"rt","stimulus","response","trial_type","trial_index","time_elapsed","internal_node_id","subject_id","condition_num","success","timeout","failed_images","failed_audio","failed_video","question_order","slider_start","practiceTrial","practiceTrialNum","correct","concept","texture_id","ishihara_plate","correct_response"
6757,"Welcome to our experiment!<p>At the bottom of this screen, you will see a button that says ""Begin Experiment"".<br>Please only click that button when you are ready to complete the 30 minute experiment in one sitting.</p><p> Once you click that button, it will not be possible to restart the experiment.","0","html-button-response",0,6761,"0.0-0.0","bx6fxnxppe",0,"","","","","","",NA,"",NA,"","","",NA,NA
NA,"","","preload",1,23836,"0.0-1.0","bx6fxnxppe",0,"true","false","[]","[]","[]","",NA,"",NA,"","","",NA,NA
3088,"","","fullscreen",2,27926,"0.0-2.0","bx6fxnxppe",0,"true","","","","","",NA,"",NA,"","","",NA,NA
43396,"","{""Consent"":[""<strong>I consent</strong>""]}","survey-multi-select",3,71326,"0.0-3.0","bx6fxnxppe",0,"","","","","","[0]",NA,"",NA,"","","",NA,NA
2848,"Welcome! <p> This experiment involves two parts: demographic information, followed by the experimental task.<p> It will take about 30 minutes to complete both parts.","0","html-button-response",4,74176,"0.0-4.0","bx6fxnxppe",0,"","","","","","",NA,"",NA,"","","",NA,NA
14860,"","{""Age"":""18"",""Gender"":""woman"",""Race/ethnicity"":""black, hispanic, white"",""Languages"":""english\n""}","survey-text",5,89043,"0.0-5.0","bx6fxnxppe",0,"","","","","","",NA,"",NA,"","","",NA,NA
61013,"
                        <div>
                            <div style='text-align:left; font-size:18px; line-height:25px; width: 1300px;'>
                                During this experiment you will be asked to rate how much you associate charts with                                different concepts. Below, you can see some examples of the charts you will be asked to rate. Above the charts
                                is the list of concepts. You will be asked
                                to rate how much you associate each chart with each concept on a scale from 'not at all' to 'very much' like the
                                one below. <br>

                        <div style=""text-align: left; width: 1300px;"">
                            <p style=""font-size:18px; line-height:20px; text-align:center; font-weight:bold"">
                                Angry, Disgust, Happy, Fearful, Sad
                            </p>
                        </div>

                        <div style=""display: flex; justify-content: center; width: 100%;"">
                            <div style=""
                                display: grid;
                                grid-template-columns: repeat(5, 1fr);
                                gap: 8px;
                                padding: 10px;
                                width: 900px;  
                                margin: 0 auto;
                            "">
                                
                                    <div style=""width: 100%;"">
                                        <img src=""images/1_Angry_hi_hi_1_tab20_decend_lgsm_dot.png"" style=""width: 100%; height: auto; object-fit: contain;"">
                                    </div>
                                
                                    <div style=""width: 100%;"">
                                        <img src=""images/1_Happy_lo_lo_1_tab20b_ascend_smlg_dot.png"" style=""width: 100%; height: auto; object-fit: contain;"">
                                    </div>
                                
                                    <div style=""width: 100%;"">
                                        <img src=""images/1_Fearful_lo_lo_1_Pastel1_decend_lgsm_dot.png"" style=""width: 100%; height: auto; object-fit: contain;"">
                                    </div>
                                
                                    <div style=""width: 100%;"">
                                        <img src=""images/1_Disgust_lo_lo_1_tab20c_ascend_lgsm_dot.png"" style=""width: 100%; height: auto; object-fit: contain;"">
                                    </div>
                                
                                    <div style=""width: 100%;"">
                                        <img src=""images/1_Sad_lo_lo_1_Set1_decend_smlg_dot.png"" style=""width: 100%; height: auto; object-fit: contain;"">
                                    </div>
                                
                                    <div style=""width: 100%;"">
                                        <img src=""images/1_Happy_hi_hi_1_Set1_decend_smlg_dot.png"" style=""width: 100%; height: auto; object-fit: contain;"">
                                    </div>
                                
                                    <div style=""width: 100%;"">
                                        <img src=""images/1_Fearful_hi_hi_1_tab20b_ascend_lgsm_dot.png"" style=""width: 100%; height: auto; object-fit: contain;"">
                                    </div>
                                
                                    <div style=""width: 100%;"">
                                        <img src=""images/1_Sad_hi_hi_1_tab20_ascend_lgsm_dot.png"" style=""width: 100%; height: auto; object-fit: contain;"">
                                    </div>
                                
                                    <div style=""width: 100%;"">
                                        <img src=""images/1_Disgust_hi_hi_1_tab20b_decend_smlg_dot.png"" style=""width: 100%; height: auto; object-fit: contain;"">
                                    </div>
                                
                                    <div style=""width: 100%;"">
                                        <img src=""images/1_Angry_lo_lo_1_tab20c_decend_lgsm_dot.png"" style=""width: 100%; height: auto; object-fit: contain;"">
                                    </div>
                                
                            </div>
                        </div>
                    </div>
                </div>
                    ","74","html-slider-response",6,150058,"0.0-6.0","bx6fxnxppe",0,"","","","","","",0,"true",NA,"","","",NA,NA
8965,"<div style=""width:1300px;""><p style=""text-align:left"">To move the slider, click and drag your cursor to the location of the scale where you would like to make your rating and then let go. When you let go of the slider, your response will be recorded and the next trial will begin. <br>
                    We are interested in your initial impressions of each chart for a given concept, so please go with your first intuition. 
                    Before you begin the experiment, there will be four training trials for you to practice using the slider. 
                     When you are ready to start the training trials, please click ""Continue"".</p><br></div>","0","html-button-response",7,159024,"0.0-7.0","bx6fxnxppe",0,"","","","","","",NA,"",NA,"","","",NA,NA
NA,"<div style=""width:500px;"">
                                    <p style=""font-size:25px;"">Please move the slider all the way to the <br> right endpoint of the scale</p>

                                    </div>
                                </div>","200","html-slider-response",8,164071,"0.0-8.0-0.0","bx6fxnxppe",0,"","","","","","",0,"true",0,"true","","",NA,NA
1450,"<p align='center'><b>Good job!</b> Click on 'Continue' to proceed.</p>","0","html-button-response",9,166025,"0.0-8.0-1.0","bx6fxnxppe",0,"","","","","","",NA,"",NA,"","","",NA,NA
NA,"<div style=""width:500px;"">
                                    <p style=""font-size:25px;"">Please move the slider all the way to the <br> left endpoint of the scale</p>

                                    </div>
                                </div>","-200","html-slider-response",10,167853,"0.0-9.0-0.0","bx6fxnxppe",0,"","","","","","",0,"true",1,"true","","",NA,NA
985,"<p align='center'><b>Good job!</b> Click on 'Continue' to proceed.</p>","0","html-button-response",11,169341,"0.0-9.0-1.0","bx6fxnxppe",0,"","","","","","",NA,"",NA,"","","",NA,NA
NA,"<div style=""width:500px;"">
                                    <p style=""font-size:25px;"">Please move the slider halfway between the center and right endpoint of the scale</p>

                                    </div>
                                </div>","110","html-slider-response",12,172986,"0.0-10.0-0.0","bx6fxnxppe",0,"","","","","","",0,"true",2,"true","","",NA,NA
968,"<p align='center'><b>Good job!</b> Click on 'Continue' to proceed.</p>","0","html-button-response",13,174458,"0.0-10.0-1.0","bx6fxnxppe",0,"","","","","","",NA,"",NA,"","","",NA,NA
NA,"<div style=""width:500px;"">
                                    <p style=""font-size:25px;"">Please move the slider halfway between the center and left endpoint of the scale</p>

                                    </div>
                                </div>","-103","html-slider-response",14,176735,"0.0-11.0-0.0","bx6fxnxppe",0,"","","","","","",0,"true",3,"true","","",NA,NA
755,"<p align='center'><b>Good job!</b> Click on 'Continue' to proceed.</p>","0","html-button-response",15,177991,"0.0-11.0-1.0","bx6fxnxppe",0,"","","","","","",NA,"",NA,"","","",NA,NA
1566,"<p>Great job! You've completed the practice trials. Now you will begin the main task.</p>","0","html-button-response",16,179558,"0.0-12.0","bx6fxnxppe",0,"","","","","","",NA,"",NA,"","","",NA,NA
3482,"<p>In this block of trials, you will be asked to rate how much you associate each texture with the concept</p >
                        <p style = 'font-size:150%; font-weight: bold'>Angry</p><br></br>","0","html-button-response",17,183041,"0.0-13.0","bx6fxnxppe",0,"","","","","","",NA,"",NA,"","","",NA,NA
NA,"<div style=""width:500px;"">
                            <p style=""font-size:50px; font-weight:bold;""
                            >Angry</p>
                            <div style=""width:480px; margin: auto;"">
                                <img src=""images/1_Angry_hi_hi_3_tab10new_decend_smlg_dot.png"" width=""480"" height=""420"" style=""object-fit:contain;"">
                            </div>
                        </div>","40","html-slider-response",18,187385,"0.0-14.0","bx6fxnxppe",0,"","","","","","",0,"",NA,"","Angry","images/1_Angry_hi_hi_3_tab10new_decend_smlg_dot.png",NA,NA
NA,"<div style=""width:500px;"">
                            <p style=""font-size:50px; font-weight:bold;""
                            >Angry</p>
                            <div style=""width:480px; margin: auto;"">
                                <img src=""images/1_Angry_med_med_2_Paired_ascend_lgsm_dot.png"" width=""480"" height=""420"" style=""object-fit:contain;"">
                            </div>
                        </div>","-200","html-slider-response",19,190453,"0.0-15.0","bx6fxnxppe",0,"","","","","","",0,"",NA,"","Angry","images/1_Angry_med_med_2_Paired_ascend_lgsm_dot.png",NA,NA
NA,"<div style=""width:500px;"">
                            <p style=""font-size:50px; font-weight:bold;""
                            >Angry</p>
                            <div style=""width:480px; margin: auto;"">
                                <img src=""images/1_Angry_lo_lo_3_Pastel2_decend_smlg_dot.png"" width=""480"" height=""420"" style=""object-fit:contain;"">
                            </div>
                        </div>","-200","html-slider-response",20,192537,"0.0-16.0","bx6fxnxppe",0,"","","","","","",0,"",NA,"","Angry","images/1_Angry_lo_lo_3_Pastel2_decend_smlg_dot.png",NA,NA
NA,"<div style=""width:500px;"">
                            <p style=""font-size:50px; font-weight:bold;""
                            >Angry</p>
                            <div style=""width:480px; margin: auto;"">
                                <img src=""images/1_Angry_med_med_1_tab20b_decend_smlg_dot.png"" width=""480"" height=""420"" style=""object-fit:contain;"">
                            </div>
                        </div>","-200","html-slider-response",21,194436,"0.0-17.0","bx6fxnxppe",0,"","","","","","",0,"",NA,"","Angry","images/1_Angry_med_med_1_tab20b_decend_smlg_dot.png",NA,NA
NA,"<div style=""width:500px;"">
                            <p style=""font-size:50px; font-weight:bold;""
                            >Angry</p>
                            <div style=""width:480px; margin: auto;"">
                                <img src=""images/1_Angry_lo_lo_2_Pastel1_decend_smlg_dot.png"" width=""480"" height=""420"" style=""object-fit:contain;"">
                            </div>
                        </div>","-200","html-slider-response",22,196402,"0.0-18.0","bx6fxnxppe",0,"","","","","","",0,"",NA,"","Angry","images/1_Angry_lo_lo_2_Pastel1_decend_smlg_dot.png",NA,NA
NA,"<div style=""width:500px;"">
                            <p style=""font-size:50px; font-weight:bold;""
                            >Angry</p>
                            <div style=""width:480px; margin: auto;"">
                                <img src=""images/1_Angry_hi_md_1_Set1_decend_smlg_dot.png"" width=""480"" height=""420"" style=""object-fit:contain;"">
                            </div>
                        </div>","34","html-slider-response",23,198752,"0.0-19.0","bx6fxnxppe",0,"","","","","","",0,"",NA,"","Angry","images/1_Angry_hi_md_1_Set1_decend_smlg_dot.png",NA,NA
NA,"<div style=""width:500px;"">
                            <p style=""font-size:50px; font-weight:bold;""
                            >Angry</p>
                            <div style=""width:480px; margin: auto;"">
                                <img src=""images/1_Angry_hi_hi_2_Paired_ascend_lgsm_dot.png"" width=""480"" height=""420"" style=""object-fit:contain;"">
                            </div>
                        </div>","129","html-slider-response",24,200954,"0.0-20.0","bx6fxnxppe",0,"","","","","","",0,"",NA,"","Angry","images/1_Angry_hi_hi_2_Paired_ascend_lgsm_dot.png",NA,NA
NA,"<div style=""width:500px;"">
                            <p style=""font-size:50px; font-weight:bold;""
                            >Angry</p>
                            <div style=""width:480px; margin: auto;"">
                                <img src=""images/1_Angry_hi_lo_3_Paired_ascend_smlg_dot.png"" width=""480"" height=""420"" style=""object-fit:contain;"">
                            </div>
                        </div>","1","html-slider-response",25,204451,"0.0-21.0","bx6fxnxppe",0,"","","","","","",0,"",NA,"","Angry","images/1_Angry_hi_lo_3_Paired_ascend_smlg_dot.png",NA,NA
NA,"<div style=""width:500px;"">
                            <p style=""font-size:50px; font-weight:bold;""
                            >Angry</p>
                            <div style=""width:480px; margin: auto;"">
                                <img src=""images/1_Angry_lo_lo_3_Pastel2_ascend_lgsm_dot.png"" width=""480"" height=""420"" style=""object-fit:contain;"">
                            </div>
                        </div>","-192","html-slider-response",26,206335,"0.0-22.0","bx6fxnxppe",0,"","","","","","",0,"",NA,"","Angry","images/1_Angry_lo_lo_3_Pastel2_ascend_lgsm_dot.png",NA,NA
NA,"<div style=""width:500px;"">
                            <p style=""font-size:50px; font-weight:bold;""
                            >Angry</p>
                            <div style=""width:480px; margin: auto;"">
                                <img src=""images/1_Angry_med_med_2_Paired_decend_lgsm_dot.png"" width=""480"" height=""420"" style=""object-fit:contain;"">
                            </div>
                        </div>","-188","html-slider-response",27,211852,"0.0-23.0","bx6fxnxppe",0,"","","","","","",0,"",NA,"","Angry","images/1_Angry_med_med_2_Paired_decend_lgsm_dot.png",NA,NA
NA,"<div style=""width:500px;"">
                            <p style=""font-size:50px; font-weight:bold;""
                            >Angry</p>
                            <div style=""width:480px; margin: auto;"">
                                <img src=""images/1_Angry_med_med_3_Set1_ascend_smlg_dot.png"" width=""480"" height=""420"" style=""object-fit:contain;"">
                            </div>
                        </div>","-200","html-slider-response",28,214119,"0.0-24.0","bx6fxnxppe",0,"","","","","","",0,"",NA,"","Angry","images/1_Angry_med_med_3_Set1_ascend_smlg_dot.png",NA,NA
NA,"<div style=""width:500px;"">
                            <p style=""font-size:50px; font-weight:bold;""
                            >Angry</p>
                            <div style=""width:480px; margin: auto;"">
                                <img src=""images/1_Angry_med_med_3_Set1_decend_lgsm_dot.png"" width=""480"" height=""420"" style=""object-fit:contain;"">
                            </div>
                        </div>","-200","html-slider-response",29,215886,"0.0-25.0","bx6fxnxppe",0,"","","","","","",0,"",NA,"","Angry","images/1_Angry_med_med_3_Set1_decend_lgsm_dot.png",NA,NA
NA,"<div style=""width:500px;"">
                            <p style=""font-size:50px; font-weight:bold;""
                            >Angry</p>
                            <div style=""width:480px; margin: auto;"">
                                <img src=""images/1_Angry_med_lo_2_Pastel2_ascend_lgsm_dot.png"" width=""480"" height=""420"" style=""object-fit:contain;"">
                            </div>
                        </div>","105","html-slider-response",30,218504,"0.0-26.0","bx6fxnxppe",0,"","","","","","",0,"",NA,"","Angry","images/1_Angry_med_lo_2_Pastel2_ascend_lgsm_dot.png",NA,NA
NA,"<div style=""width:500px;"">
                            <p style=""font-size:50px; font-weight:bold;""
                            >Angry</p>
                            <div style=""width:480px; margin: auto;"">
                                <img src=""images/1_Angry_med_lo_1_tab20c_ascend_lgsm_dot.png"" width=""480"" height=""420"" style=""object-fit:contain;"">
                            </div>
                        </div>","81","html-slider-response",31,220285,"0.0-27.0","bx6fxnxppe",0,"","","","","","",0,"",NA,"","Angry","images/1_Angry_med_lo_1_tab20c_ascend_lgsm_dot.png",NA,NA
NA,"<div style=""width:500px;"">
                            <p style=""font-size:50px; font-weight:bold;""
                            >Angry</p>
                            <div style=""width:480px; margin: auto;"">
                                <img src=""images/1_Angry_med_lo_3_Pastel1_decend_lgsm_dot.png"" width=""480"" height=""420"" style=""object-fit:contain;"">
                            </div>
                        </div>","-129","html-slider-response",32,222085,"0.0-28.0","bx6fxnxppe",0,"","","","","","",0,"",NA,"","Angry","images/1_Angry_med_lo_3_Pastel1_decend_lgsm_dot.png",NA,NA
NA,"<div style=""width:500px;"">
                            <p style=""font-size:50px; font-weight:bold;""
                            >Angry</p>
                            <div style=""width:480px; margin: auto;"">
                                <img src=""images/1_Angry_hi_hi_3_tab10new_ascend_smlg_dot.png"" width=""480"" height=""420"" style=""object-fit:contain;"">
                            </div>
                        </div>","135","html-slider-response",33,224018,"0.0-29.0","bx6fxnxppe",0,"","","","","","",0,"",NA,"","Angry","images/1_Angry_hi_hi_3_tab10new_ascend_smlg_dot.png",NA,NA
NA,"<div style=""width:500px;"">
                            <p style=""font-size:50px; font-weight:bold;""
                            >Angry</p>
                            <div style=""width:480px; margin: auto;"">
                                <img src=""images/1_Angry_hi_md_3_Paired_ascend_smlg_dot.png"" width=""480"" height=""420"" style=""object-fit:contain;"">
                            </div>
                        </div>","-38","html-slider-response",34,227019,"0.0-30.0","bx6fxnxppe",0,"","","","","","",0,"",NA,"","Angry","images/1_Angry_hi_md_3_Paired_ascend_smlg_dot.png",NA,NA
NA,"<div style=""width:500px;"">
                            <p style=""font-size:50px; font-weight:bold;""
                            >Angry</p>
                            <div style=""width:480px; margin: auto;"">
                                <img src=""images/1_Angry_med_lo_3_Pastel1_ascend_smlg_dot.png"" width=""480"" height=""420"" style=""object-fit:contain;"">
                            </div>
                        </div>","-87","html-slider-response",35,229286,"0.0-31.0","bx6fxnxppe",0,"","","","","","",0,"",NA,"","Angry","images/1_Angry_med_lo_3_Pastel1_ascend_smlg_dot.png",NA,NA
NA,"<div style=""width:500px;"">
                            <p style=""font-size:50px; font-weight:bold;""
                            >Angry</p>
                            <div style=""width:480px; margin: auto;"">
                                <img src=""images/1_Angry_med_med_3_Set1_decend_smlg_dot.png"" width=""480"" height=""420"" style=""object-fit:contain;"">
                            </div>
                        </div>","-194","html-slider-response",36,231486,"0.0-32.0","bx6fxnxppe",0,"","","","","","",0,"",NA,"","Angry","images/1_Angry_med_med_3_Set1_decend_smlg_dot.png",NA,NA
NA,"<div style=""width:500px;"">
                            <p style=""font-size:50px; font-weight:bold;""
                            >Angry</p>
                            <div style=""width:480px; margin: auto;"">
                                <img src=""images/1_Angry_hi_hi_3_tab10new_decend_lgsm_dot.png"" width=""480"" height=""420"" style=""object-fit:contain;"">
                            </div>
                        </div>","118","html-slider-response",37,233452,"0.0-33.0","bx6fxnxppe",0,"","","","","","",0,"",NA,"","Angry","images/1_Angry_hi_hi_3_tab10new_decend_lgsm_dot.png",NA,NA
NA,"<div style=""width:500px;"">
                            <p style=""font-size:50px; font-weight:bold;""
                            >Angry</p>
                            <div style=""width:480px; margin: auto;"">
                                <img src=""images/1_Angry_hi_md_1_Set1_decend_lgsm_dot.png"" width=""480"" height=""420"" style=""object-fit:contain;"">
                            </div>
                        </div>","18","html-slider-response",38,236152,"0.0-34.0","bx6fxnxppe",0,"","","","","","",0,"",NA,"","Angry","images/1_Angry_hi_md_1_Set1_decend_lgsm_dot.png",NA,NA
NA,"<div style=""width:500px;"">
                            <p style=""font-size:50px; font-weight:bold;""
                            >Angry</p>
                            <div style=""width:480px; margin: auto;"">
                                <img src=""images/1_Angry_hi_md_3_Paired_decend_smlg_dot.png"" width=""480"" height=""420"" style=""object-fit:contain;"">
                            </div>
                        </div>","-110","html-slider-response",39,238084,"0.0-35.0","bx6fxnxppe",0,"","","","","","",0,"",NA,"","Angry","images/1_Angry_hi_md_3_Paired_decend_smlg_dot.png",NA,NA
NA,"<div style=""width:500px;"">
                            <p style=""font-size:50px; font-weight:bold;""
                            >Angry</p>
                            <div style=""width:480px; margin: auto;"">
                                <img src=""images/1_Angry_hi_hi_1_tab20_ascend_smlg_dot.png"" width=""480"" height=""420"" style=""object-fit:contain;"">
                            </div>
                        </div>","194","html-slider-response",40,241235,"0.0-36.0","bx6fxnxppe",0,"","","","","","",0,"",NA,"","Angry","images/1_Angry_hi_hi_1_tab20_ascend_smlg_dot.png",NA,NA
NA,"<div style=""width:500px;"">
                            <p style=""font-size:50px; font-weight:bold;""
                            >Angry</p>
                            <div style=""width:480px; margin: auto;"">
                                <img src=""images/1_Angry_med_med_1_tab20b_decend_lgsm_dot.png"" width=""480"" height=""420"" style=""object-fit:contain;"">
                            </div>
                        </div>","66","html-slider-response",41,244369,"0.0-37.0","bx6fxnxppe",0,"","","","","","",0,"",NA,"","Angry","images/1_Angry_med_med_1_tab20b_decend_lgsm_dot.png",NA,NA
NA,"<div style=""width:500px;"">
                            <p style=""font-size:50px; font-weight:bold;""
                            >Angry</p>
                            <div style=""width:480px; margin: auto;"">
                                <img src=""images/1_Angry_hi_lo_2_tab20c_decend_smlg_dot.png"" width=""480"" height=""420"" style=""object-fit:contain;"">
                            </div>
                        </div>","73","html-slider-response",42,246519,"0.0-38.0","bx6fxnxppe",0,"","","","","","",0,"",NA,"","Angry","images/1_Angry_hi_lo_2_tab20c_decend_smlg_dot.png",NA,NA
NA,"<div style=""width:500px;"">
                            <p style=""font-size:50px; font-weight:bold;""
                            >Angry</p>
                            <div style=""width:480px; margin: auto;"">
                                <img src=""images/1_Angry_lo_lo_1_tab20c_decend_lgsm_dot.png"" width=""480"" height=""420"" style=""object-fit:contain;"">
                            </div>
                        </div>","-194","html-slider-response",43,250135,"0.0-39.0","bx6fxnxppe",0,"","","","","","",0,"",NA,"","Angry","images/1_Angry_lo_lo_1_tab20c_decend_lgsm_dot.png",NA,NA
NA,"<div style=""width:500px;"">
                            <p style=""font-size:50px; font-weight:bold;""
                            >Angry</p>
                            <div style=""width:480px; margin: auto;"">
                                <img src=""images/1_Angry_med_med_1_tab20b_ascend_smlg_dot.png"" width=""480"" height=""420"" style=""object-fit:contain;"">
                            </div>
                        </div>","-92","html-slider-response",44,253435,"0.0-40.0","bx6fxnxppe",0,"","","","","","",0,"",NA,"","Angry","images/1_Angry_med_med_1_tab20b_ascend_smlg_dot.png",NA,NA
NA,"<div style=""width:500px;"">
                            <p style=""font-size:50px; font-weight:bold;""
                            >Angry</p>
                            <div style=""width:480px; margin: auto;"">
                                <img src=""images/1_Angry_hi_md_2_tab20_ascend_lgsm_dot.png"" width=""480"" height=""420"" style=""object-fit:contain;"">
                            </div>
                        </div>","-117","html-slider-response",45,255269,"0.0-41.0","bx6fxnxppe",0,"","","","","","",0,"",NA,"","Angry","images/1_Angry_hi_md_2_tab20_ascend_lgsm_dot.png",NA,NA
NA,"<div style=""width:500px;"">
                            <p style=""font-size:50px; font-weight:bold;""
                            >Angry</p>
                            <div style=""width:480px; margin: auto;"">
                                <img src=""images/1_Angry_med_med_1_tab20b_ascend_lgsm_dot.png"" width=""480"" height=""420"" style=""object-fit:contain;"">
                            </div>
                        </div>","-138","html-slider-response",46,257168,"0.0-42.0","bx6fxnxppe",0,"","","","","","",0,"",NA,"","Angry","images/1_Angry_med_med_1_tab20b_ascend_lgsm_dot.png",NA,NA
NA,"<div style=""width:500px;"">
                            <p style=""font-size:50px; font-weight:bold;""
                            >Angry</p>
                            <div style=""width:480px; margin: auto;"">
                                <img src=""images/1_Angry_lo_lo_3_Pastel2_decend_lgsm_dot.png"" width=""480"" height=""420"" style=""object-fit:contain;"">
                            </div>
                        </div>","26","html-slider-response",47,259385,"0.0-43.0","bx6fxnxppe",0,"","","","","","",0,"",NA,"","Angry","images/1_Angry_lo_lo_3_Pastel2_decend_lgsm_dot.png",NA,NA
NA,"<div style=""width:500px;"">
                            <p style=""font-size:50px; font-weight:bold;""
                            >Angry</p>
                            <div style=""width:480px; margin: auto;"">
                                <img src=""images/1_Angry_lo_lo_1_tab20c_ascend_lgsm_dot.png"" width=""480"" height=""420"" style=""object-fit:contain;"">
                            </div>
                        </div>","14","html-slider-response",48,261718,"0.0-44.0","bx6fxnxppe",0,"","","","","","",0,"",NA,"","Angry","images/1_Angry_lo_lo_1_tab20c_ascend_lgsm_dot.png",NA,NA
NA,"<div style=""width:500px;"">
                            <p style=""font-size:50px; font-weight:bold;""
                            >Angry</p>
                            <div style=""width:480px; margin: auto;"">
                                <img src=""images/1_Angry_hi_md_3_Paired_ascend_lgsm_dot.png"" width=""480"" height=""420"" style=""object-fit:contain;"">
                            </div>
                        </div>","-85","html-slider-response",49,263485,"0.0-45.0","bx6fxnxppe",0,"","","","","","",0,"",NA,"","Angry","images/1_Angry_hi_md_3_Paired_ascend_lgsm_dot.png",NA,NA
NA,"<div style=""width:500px;"">
                            <p style=""font-size:50px; font-weight:bold;""
                            >Angry</p>
                            <div style=""width:480px; margin: auto;"">
                                <img src=""images/1_Angry_hi_lo_2_tab20c_ascend_lgsm_dot.png"" width=""480"" height=""420"" style=""object-fit:contain;"">
                            </div>
                        </div>","56","html-slider-response",50,265285,"0.0-46.0","bx6fxnxppe",0,"","","","","","",0,"",NA,"","Angry","images/1_Angry_hi_lo_2_tab20c_ascend_lgsm_dot.png",NA,NA
NA,"<div style=""width:500px;"">
                            <p style=""font-size:50px; font-weight:bold;""
                            >Angry</p>
                            <div style=""width:480px; margin: auto;"">
                                <img src=""images/1_Angry_hi_lo_1_tab20_ascend_lgsm_dot.png"" width=""480"" height=""420"" style=""object-fit:contain;"">
                            </div>
                        </div>","-115","html-slider-response",51,267068,"0.0-47.0","bx6fxnxppe",0,"","","","","","",0,"",NA,"","Angry","images/1_Angry_hi_lo_1_tab20_ascend_lgsm_dot.png",NA,NA
NA,"<div style=""width:500px;"">
                            <p style=""font-size:50px; font-weight:bold;""
                            >Angry</p>
                            <div style=""width:480px; margin: auto;"">
                                <img src=""images/1_Angry_med_lo_2_Pastel2_decend_lgsm_dot.png"" width=""480"" height=""420"" style=""object-fit:contain;"">
                            </div>
                        </div>","-113","html-slider-response",52,268852,"0.0-48.0","bx6fxnxppe",0,"","","","","","",0,"",NA,"","Angry","images/1_Angry_med_lo_2_Pastel2_decend_lgsm_dot.png",NA,NA
NA,"<div style=""width:500px;"">
                            <p style=""font-size:50px; font-weight:bold;""
                            >Angry</p>
                            <div style=""width:480px; margin: auto;"">
                                <img src=""images/1_Angry_lo_lo_1_tab20c_decend_smlg_dot.png"" width=""480"" height=""420"" style=""object-fit:contain;"">
                            </div>
                        </div>","11","html-slider-response",53,272335,"0.0-49.0","bx6fxnxppe",0,"","","","","","",0,"",NA,"","Angry","images/1_Angry_lo_lo_1_tab20c_decend_smlg_dot.png",NA,NA
NA,"<div style=""width:500px;"">
                            <p style=""font-size:50px; font-weight:bold;""
                            >Angry</p>
                            <div style=""width:480px; margin: auto;"">
                                <img src=""images/1_Angry_hi_md_2_tab20_decend_lgsm_dot.png"" width=""480"" height=""420"" style=""object-fit:contain;"">
                            </div>
                        </div>","47","html-slider-response",54,274202,"0.0-50.0","bx6fxnxppe",0,"","","","","","",0,"",NA,"","Angry","images/1_Angry_hi_md_2_tab20_decend_lgsm_dot.png",NA,NA
NA,"<div style=""width:500px;"">
                            <p style=""font-size:50px; font-weight:bold;""
                            >Angry</p>
                            <div style=""width:480px; margin: auto;"">
                                <img src=""images/1_Angry_med_lo_3_Pastel1_decend_smlg_dot.png"" width=""480"" height=""420"" style=""object-fit:contain;"">
                            </div>
                        </div>","-42","html-slider-response",55,276085,"0.0-51.0","bx6fxnxppe",0,"","","","","","",0,"",NA,"","Angry","images/1_Angry_med_lo_3_Pastel1_decend_smlg_dot.png",NA,NA
NA,"<div style=""width:500px;"">
                            <p style=""font-size:50px; font-weight:bold;""
                            >Angry</p>
                            <div style=""width:480px; margin: auto;"">
                                <img src=""images/1_Angry_lo_lo_1_tab20c_ascend_smlg_dot.png"" width=""480"" height=""420"" style=""object-fit:contain;"">
                            </div>
                        </div>","-2","html-slider-response",56,279118,"0.0-52.0","bx6fxnxppe",0,"","","","","","",0,"",NA,"","Angry","images/1_Angry_lo_lo_1_tab20c_ascend_smlg_dot.png",NA,NA
NA,"<div style=""width:500px;"">
                            <p style=""font-size:50px; font-weight:bold;""
                            >Angry</p>
                            <div style=""width:480px; margin: auto;"">
                                <img src=""images/1_Angry_hi_lo_3_Paired_decend_smlg_dot.png"" width=""480"" height=""420"" style=""object-fit:contain;"">
                            </div>
                        </div>","-42","html-slider-response",57,280968,"0.0-53.0","bx6fxnxppe",0,"","","","","","",0,"",NA,"","Angry","images/1_Angry_hi_lo_3_Paired_decend_smlg_dot.png",NA,NA
NA,"<div style=""width:500px;"">
                            <p style=""font-size:50px; font-weight:bold;""
                            >Angry</p>
                            <div style=""width:480px; margin: auto;"">
                                <img src=""images/1_Angry_hi_lo_1_tab20_decend_smlg_dot.png"" width=""480"" height=""420"" style=""object-fit:contain;"">
                            </div>
                        </div>","-96","html-slider-response",58,282769,"0.0-54.0","bx6fxnxppe",0,"","","","","","",0,"",NA,"","Angry","images/1_Angry_hi_lo_1_tab20_decend_smlg_dot.png",NA,NA
NA,"<div style=""width:500px;"">
                            <p style=""font-size:50px; font-weight:bold;""
                            >Angry</p>
                            <div style=""width:480px; margin: auto;"">
                                <img src=""images/1_Angry_hi_lo_3_Paired_decend_lgsm_dot.png"" width=""480"" height=""420"" style=""object-fit:contain;"">
                            </div>
                        </div>","-26","html-slider-response",59,284835,"0.0-55.0","bx6fxnxppe",0,"","","","","","",0,"",NA,"","Angry","images/1_Angry_hi_lo_3_Paired_decend_lgsm_dot.png",NA,NA
NA,"<div style=""width:500px;"">
                            <p style=""font-size:50px; font-weight:bold;""
                            >Angry</p>
                            <div style=""width:480px; margin: auto;"">
                                <img src=""images/1_Angry_hi_md_1_Set1_ascend_smlg_dot.png"" width=""480"" height=""420"" style=""object-fit:contain;"">
                            </div>
                        </div>","-60","html-slider-response",60,288135,"0.0-56.0","bx6fxnxppe",0,"","","","","","",0,"",NA,"","Angry","images/1_Angry_hi_md_1_Set1_ascend_smlg_dot.png",NA,NA
NA,"<div style=""width:500px;"">
                            <p style=""font-size:50px; font-weight:bold;""
                            >Angry</p>
                            <div style=""width:480px; margin: auto;"">
                                <img src=""images/1_Angry_med_lo_1_tab20c_decend_lgsm_dot.png"" width=""480"" height=""420"" style=""object-fit:contain;"">
                            </div>
                        </div>","-14","html-slider-response",61,290935,"0.0-57.0","bx6fxnxppe",0,"","","","","","",0,"",NA,"","Angry","images/1_Angry_med_lo_1_tab20c_decend_lgsm_dot.png",NA,NA
NA,"<div style=""width:500px;"">
                            <p style=""font-size:50px; font-weight:bold;""
                            >Angry</p>
                            <div style=""width:480px; margin: auto;"">
                                <img src=""images/1_Angry_hi_hi_2_Paired_decend_smlg_dot.png"" width=""480"" height=""420"" style=""object-fit:contain;"">
                            </div>
                        </div>","197","html-slider-response",62,293935,"0.0-58.0","bx6fxnxppe",0,"","","","","","",0,"",NA,"","Angry","images/1_Angry_hi_hi_2_Paired_decend_smlg_dot.png",NA,NA
NA,"<div style=""width:500px;"">
                            <p style=""font-size:50px; font-weight:bold;""
                            >Angry</p>
                            <div style=""width:480px; margin: auto;"">
                                <img src=""images/1_Angry_hi_lo_2_tab20c_decend_lgsm_dot.png"" width=""480"" height=""420"" style=""object-fit:contain;"">
                            </div>
                        </div>","54","html-slider-response",63,295818,"0.0-59.0","bx6fxnxppe",0,"","","","","","",0,"",NA,"","Angry","images/1_Angry_hi_lo_2_tab20c_decend_lgsm_dot.png",NA,NA
NA,"<div style=""width:500px;"">
                            <p style=""font-size:50px; font-weight:bold;""
                            >Angry</p>
                            <div style=""width:480px; margin: auto;"">
                                <img src=""images/1_Angry_lo_lo_2_Pastel1_decend_lgsm_dot.png"" width=""480"" height=""420"" style=""object-fit:contain;"">
                            </div>
                        </div>","-178","html-slider-response",64,297801,"0.0-60.0","bx6fxnxppe",0,"","","","","","",0,"",NA,"","Angry","images/1_Angry_lo_lo_2_Pastel1_decend_lgsm_dot.png",NA,NA
NA,"<div style=""width:500px;"">
                            <p style=""font-size:50px; font-weight:bold;""
                            >Angry</p>
                            <div style=""width:480px; margin: auto;"">
                                <img src=""images/1_Angry_med_lo_3_Pastel1_ascend_lgsm_dot.png"" width=""480"" height=""420"" style=""object-fit:contain;"">
                            </div>
                        </div>","-86","html-slider-response",65,299802,"0.0-61.0","bx6fxnxppe",0,"","","","","","",0,"",NA,"","Angry","images/1_Angry_med_lo_3_Pastel1_ascend_lgsm_dot.png",NA,NA
NA,"<div style=""width:500px;"">
                            <p style=""font-size:50px; font-weight:bold;""
                            >Angry</p>
                            <div style=""width:480px; margin: auto;"">
                                <img src=""images/1_Angry_hi_hi_1_tab20_decend_lgsm_dot.png"" width=""480"" height=""420"" style=""object-fit:contain;"">
                            </div>
                        </div>","200","html-slider-response",66,301751,"0.0-62.0","bx6fxnxppe",0,"","","","","","",0,"",NA,"","Angry","images/1_Angry_hi_hi_1_tab20_decend_lgsm_dot.png",NA,NA
NA,"<div style=""width:500px;"">
                            <p style=""font-size:50px; font-weight:bold;""
                            >Angry</p>
                            <div style=""width:480px; margin: auto;"">
                                <img src=""images/1_Angry_hi_md_2_tab20_ascend_smlg_dot.png"" width=""480"" height=""420"" style=""object-fit:contain;"">
                            </div>
                        </div>","90","html-slider-response",67,303685,"0.0-63.0","bx6fxnxppe",0,"","","","","","",0,"",NA,"","Angry","images/1_Angry_hi_md_2_tab20_ascend_smlg_dot.png",NA,NA
NA,"<div style=""width:500px;"">
                            <p style=""font-size:50px; font-weight:bold;""
                            >Angry</p>
                            <div style=""width:480px; margin: auto;"">
                                <img src=""images/1_Angry_hi_lo_2_tab20c_ascend_smlg_dot.png"" width=""480"" height=""420"" style=""object-fit:contain;"">
                            </div>
                        </div>","140","html-slider-response",68,305702,"0.0-64.0","bx6fxnxppe",0,"","","","","","",0,"",NA,"","Angry","images/1_Angry_hi_lo_2_tab20c_ascend_smlg_dot.png",NA,NA
NA,"<div style=""width:500px;"">
                            <p style=""font-size:50px; font-weight:bold;""
                            >Angry</p>
                            <div style=""width:480px; margin: auto;"">
                                <img src=""images/1_Angry_med_lo_2_Pastel2_decend_smlg_dot.png"" width=""480"" height=""420"" style=""object-fit:contain;"">
                            </div>
                        </div>","-64","html-slider-response",69,307569,"0.0-65.0","bx6fxnxppe",0,"","","","","","",0,"",NA,"","Angry","images/1_Angry_med_lo_2_Pastel2_decend_smlg_dot.png",NA,NA
NA,"<div style=""width:500px;"">
                            <p style=""font-size:50px; font-weight:bold;""
                            >Angry</p>
                            <div style=""width:480px; margin: auto;"">
                                <img src=""images/1_Angry_med_med_3_Set1_ascend_lgsm_dot.png"" width=""480"" height=""420"" style=""object-fit:contain;"">
                            </div>
                        </div>","-150","html-slider-response",70,309502,"0.0-66.0","bx6fxnxppe",0,"","","","","","",0,"",NA,"","Angry","images/1_Angry_med_med_3_Set1_ascend_lgsm_dot.png",NA,NA
NA,"<div style=""width:500px;"">
                            <p style=""font-size:50px; font-weight:bold;""
                            >Angry</p>
                            <div style=""width:480px; margin: auto;"">
                                <img src=""images/1_Angry_hi_lo_1_tab20_ascend_smlg_dot.png"" width=""480"" height=""420"" style=""object-fit:contain;"">
                            </div>
                        </div>","32","html-slider-response",71,311468,"0.0-67.0","bx6fxnxppe",0,"","","","","","",0,"",NA,"","Angry","images/1_Angry_hi_lo_1_tab20_ascend_smlg_dot.png",NA,NA
NA,"<div style=""width:500px;"">
                            <p style=""font-size:50px; font-weight:bold;""
                            >Angry</p>
                            <div style=""width:480px; margin: auto;"">
                                <img src=""images/1_Angry_hi_hi_1_tab20_ascend_lgsm_dot.png"" width=""480"" height=""420"" style=""object-fit:contain;"">
                            </div>
                        </div>","86","html-slider-response",72,312952,"0.0-68.0","bx6fxnxppe",0,"","","","","","",0,"",NA,"","Angry","images/1_Angry_hi_hi_1_tab20_ascend_lgsm_dot.png",NA,NA
NA,"<div style=""width:500px;"">
                            <p style=""font-size:50px; font-weight:bold;""
                            >Angry</p>
                            <div style=""width:480px; margin: auto;"">
                                <img src=""images/1_Angry_hi_lo_1_tab20_decend_lgsm_dot.png"" width=""480"" height=""420"" style=""object-fit:contain;"">
                            </div>
                        </div>","33","html-slider-response",73,314885,"0.0-69.0","bx6fxnxppe",0,"","","","","","",0,"",NA,"","Angry","images/1_Angry_hi_lo_1_tab20_decend_lgsm_dot.png",NA,NA
NA,"<div style=""width:500px;"">
                            <p style=""font-size:50px; font-weight:bold;""
                            >Angry</p>
                            <div style=""width:480px; margin: auto;"">
                                <img src=""images/1_Angry_med_lo_1_tab20c_decend_smlg_dot.png"" width=""480"" height=""420"" style=""object-fit:contain;"">
                            </div>
                        </div>","25","html-slider-response",74,317452,"0.0-70.0","bx6fxnxppe",0,"","","","","","",0,"",NA,"","Angry","images/1_Angry_med_lo_1_tab20c_decend_smlg_dot.png",NA,NA
NA,"<div style=""width:500px;"">
                            <p style=""font-size:50px; font-weight:bold;""
                            >Angry</p>
                            <div style=""width:480px; margin: auto;"">
                                <img src=""images/1_Angry_lo_lo_2_Pastel1_ascend_smlg_dot.png"" width=""480"" height=""420"" style=""object-fit:contain;"">
                            </div>
                        </div>","-175","html-slider-response",75,319667,"0.0-71.0","bx6fxnxppe",0,"","","","","","",0,"",NA,"","Angry","images/1_Angry_lo_lo_2_Pastel1_ascend_smlg_dot.png",NA,NA
NA,"<div style=""width:500px;"">
                            <p style=""font-size:50px; font-weight:bold;""
                            >Angry</p>
                            <div style=""width:480px; margin: auto;"">
                                <img src=""images/1_Angry_hi_md_2_tab20_decend_smlg_dot.png"" width=""480"" height=""420"" style=""object-fit:contain;"">
                            </div>
                        </div>","3","html-slider-response",76,323717,"0.0-72.0","bx6fxnxppe",0,"","","","","","",0,"",NA,"","Angry","images/1_Angry_hi_md_2_tab20_decend_smlg_dot.png",NA,NA
NA,"<div style=""width:500px;"">
                            <p style=""font-size:50px; font-weight:bold;""
                            >Angry</p>
                            <div style=""width:480px; margin: auto;"">
                                <img src=""images/1_Angry_lo_lo_3_Pastel2_ascend_smlg_dot.png"" width=""480"" height=""420"" style=""object-fit:contain;"">
                            </div>
                        </div>","17","html-slider-response",77,326317,"0.0-73.0","bx6fxnxppe",0,"","","","","","",0,"",NA,"","Angry","images/1_Angry_lo_lo_3_Pastel2_ascend_smlg_dot.png",NA,NA
NA,"<div style=""width:500px;"">
                            <p style=""font-size:50px; font-weight:bold;""
                            >Angry</p>
                            <div style=""width:480px; margin: auto;"">
                                <img src=""images/1_Angry_med_med_2_Paired_ascend_smlg_dot.png"" width=""480"" height=""420"" style=""object-fit:contain;"">
                            </div>
                        </div>","-90","html-slider-response",78,328185,"0.0-74.0","bx6fxnxppe",0,"","","","","","",0,"",NA,"","Angry","images/1_Angry_med_med_2_Paired_ascend_smlg_dot.png",NA,NA
NA,"<div style=""width:500px;"">
                            <p style=""font-size:50px; font-weight:bold;""
                            >Angry</p>
                            <div style=""width:480px; margin: auto;"">
                                <img src=""images/1_Angry_med_lo_2_Pastel2_ascend_smlg_dot.png"" width=""480"" height=""420"" style=""object-fit:contain;"">
                            </div>
                        </div>","68","html-slider-response",79,329885,"0.0-75.0","bx6fxnxppe",0,"","","","","","",0,"",NA,"","Angry","images/1_Angry_med_lo_2_Pastel2_ascend_smlg_dot.png",NA,NA
NA,"<div style=""width:500px;"">
                            <p style=""font-size:50px; font-weight:bold;""
                            >Angry</p>
                            <div style=""width:480px; margin: auto;"">
                                <img src=""images/1_Angry_med_med_2_Paired_decend_smlg_dot.png"" width=""480"" height=""420"" style=""object-fit:contain;"">
                            </div>
                        </div>","-82","html-slider-response",80,332302,"0.0-76.0","bx6fxnxppe",0,"","","","","","",0,"",NA,"","Angry","images/1_Angry_med_med_2_Paired_decend_smlg_dot.png",NA,NA
NA,"<div style=""width:500px;"">
                            <p style=""font-size:50px; font-weight:bold;""
                            >Angry</p>
                            <div style=""width:480px; margin: auto;"">
                                <img src=""images/1_Angry_hi_md_1_Set1_ascend_lgsm_dot.png"" width=""480"" height=""420"" style=""object-fit:contain;"">
                            </div>
                        </div>","-134","html-slider-response",81,334135,"0.0-77.0","bx6fxnxppe",0,"","","","","","",0,"",NA,"","Angry","images/1_Angry_hi_md_1_Set1_ascend_lgsm_dot.png",NA,NA
NA,"<div style=""width:500px;"">
                            <p style=""font-size:50px; font-weight:bold;""
                            >Angry</p>
                            <div style=""width:480px; margin: auto;"">
                                <img src=""images/1_Angry_hi_hi_2_Paired_decend_lgsm_dot.png"" width=""480"" height=""420"" style=""object-fit:contain;"">
                            </div>
                        </div>","144","html-slider-response",82,336201,"0.0-78.0","bx6fxnxppe",0,"","","","","","",0,"",NA,"","Angry","images/1_Angry_hi_hi_2_Paired_decend_lgsm_dot.png",NA,NA
NA,"<div style=""width:500px;"">
                            <p style=""font-size:50px; font-weight:bold;""
                            >Angry</p>
                            <div style=""width:480px; margin: auto;"">
                                <img src=""images/1_Angry_hi_lo_3_Paired_ascend_lgsm_dot.png"" width=""480"" height=""420"" style=""object-fit:contain;"">
                            </div>
                        </div>","48","html-slider-response",83,337985,"0.0-79.0","bx6fxnxppe",0,"","","","","","",0,"",NA,"","Angry","images/1_Angry_hi_lo_3_Paired_ascend_lgsm_dot.png",NA,NA
NA,"<div style=""width:500px;"">
                            <p style=""font-size:50px; font-weight:bold;""
                            >Angry</p>
                            <div style=""width:480px; margin: auto;"">
                                <img src=""images/1_Angry_hi_hi_2_Paired_ascend_smlg_dot.png"" width=""480"" height=""420"" style=""object-fit:contain;"">
                            </div>
                        </div>","150","html-slider-response",84,339902,"0.0-80.0","bx6fxnxppe",0,"","","","","","",0,"",NA,"","Angry","images/1_Angry_hi_hi_2_Paired_ascend_smlg_dot.png",NA,NA
NA,"<div style=""width:500px;"">
                            <p style=""font-size:50px; font-weight:bold;""
                            >Angry</p>
                            <div style=""width:480px; margin: auto;"">
                                <img src=""images/1_Angry_hi_hi_3_tab10new_ascend_lgsm_dot.png"" width=""480"" height=""420"" style=""object-fit:contain;"">
                            </div>
                        </div>","198","html-slider-response",85,341518,"0.0-81.0","bx6fxnxppe",0,"","","","","","",0,"",NA,"","Angry","images/1_Angry_hi_hi_3_tab10new_ascend_lgsm_dot.png",NA,NA
NA,"<div style=""width:500px;"">
                            <p style=""font-size:50px; font-weight:bold;""
                            >Angry</p>
                            <div style=""width:480px; margin: auto;"">
                                <img src=""images/1_Angry_med_lo_1_tab20c_ascend_smlg_dot.png"" width=""480"" height=""420"" style=""object-fit:contain;"">
                            </div>
                        </div>","-67","html-slider-response",86,343335,"0.0-82.0","bx6fxnxppe",0,"","","","","","",0,"",NA,"","Angry","images/1_Angry_med_lo_1_tab20c_ascend_smlg_dot.png",NA,NA
NA,"<div style=""width:500px;"">
                            <p style=""font-size:50px; font-weight:bold;""
                            >Angry</p>
                            <div style=""width:480px; margin: auto;"">
                                <img src=""images/1_Angry_hi_md_3_Paired_decend_lgsm_dot.png"" width=""480"" height=""420"" style=""object-fit:contain;"">
                            </div>
                        </div>","40","html-slider-response",87,346152,"0.0-83.0","bx6fxnxppe",0,"","","","","","",0,"",NA,"","Angry","images/1_Angry_hi_md_3_Paired_decend_lgsm_dot.png",NA,NA
NA,"<div style=""width:500px;"">
                            <p style=""font-size:50px; font-weight:bold;""
                            >Angry</p>
                            <div style=""width:480px; margin: auto;"">
                                <img src=""images/1_Angry_lo_lo_2_Pastel1_ascend_lgsm_dot.png"" width=""480"" height=""420"" style=""object-fit:contain;"">
                            </div>
                        </div>","-150","html-slider-response",88,347985,"0.0-84.0","bx6fxnxppe",0,"","","","","","",0,"",NA,"","Angry","images/1_Angry_lo_lo_2_Pastel1_ascend_lgsm_dot.png",NA,NA
NA,"<div style=""width:500px;"">
                            <p style=""font-size:50px; font-weight:bold;""
                            >Angry</p>
                            <div style=""width:480px; margin: auto;"">
                                <img src=""images/1_Angry_hi_hi_1_tab20_decend_smlg_dot.png"" width=""480"" height=""420"" style=""object-fit:contain;"">
                            </div>
                        </div>","193","html-slider-response",89,349835,"0.0-85.0","bx6fxnxppe",0,"","","","","","",0,"",NA,"","Angry","images/1_Angry_hi_hi_1_tab20_decend_smlg_dot.png",NA,NA
3254,"<p>Great Job! You've finished block 1.<br></br> You have 4 block(s) left to go.<br></br></p>","0","html-button-response",90,353590,"0.0-86.0","bx6fxnxppe",0,"","","","","","",NA,"",NA,"","","",NA,NA
3866,"<p>In this block of trials, you will be asked to rate how much you associate each texture with the concept</p >
                        <p style = 'font-size:150%; font-weight: bold'>Disgust</p><br></br>","0","html-button-response",91,357457,"0.0-87.0","bx6fxnxppe",0,"","","","","","",NA,"",NA,"","","",NA,NA
NA,"<div style=""width:500px;"">
                            <p style=""font-size:50px; font-weight:bold;""
                            >Disgust</p>
                            <div style=""width:480px; margin: auto;"">
                                <img src=""images/1_Disgust_hi_hi_1_tab20b_decend_smlg_dot.png"" width=""480"" height=""420"" style=""object-fit:contain;"">
                            </div>
                        </div>","194","html-slider-response",92,360101,"0.0-88.0","bx6fxnxppe",0,"","","","","","",0,"",NA,"","Disgust","images/1_Disgust_hi_hi_1_tab20b_decend_smlg_dot.png",NA,NA
NA,"<div style=""width:500px;"">
                            <p style=""font-size:50px; font-weight:bold;""
                            >Disgust</p>
                            <div style=""width:480px; margin: auto;"">
                                <img src=""images/1_Disgust_hi_lo_2_tab20_ascend_smlg_dot.png"" width=""480"" height=""420"" style=""object-fit:contain;"">
                            </div>
                        </div>","94","html-slider-response",93,362835,"0.0-89.0","bx6fxnxppe",0,"","","","","","",0,"",NA,"","Disgust","images/1_Disgust_hi_lo_2_tab20_ascend_smlg_dot.png",NA,NA
NA,"<div style=""width:500px;"">
                            <p style=""font-size:50px; font-weight:bold;""
                            >Disgust</p>
                            <div style=""width:480px; margin: auto;"">
                                <img src=""images/1_Disgust_med_med_3_Paired_decend_smlg_dot.png"" width=""480"" height=""420"" style=""object-fit:contain;"">
                            </div>
                        </div>","-50","html-slider-response",94,364985,"0.0-90.0","bx6fxnxppe",0,"","","","","","",0,"",NA,"","Disgust","images/1_Disgust_med_med_3_Paired_decend_smlg_dot.png",NA,NA
NA,"<div style=""width:500px;"">
                            <p style=""font-size:50px; font-weight:bold;""
                            >Disgust</p>
                            <div style=""width:480px; margin: auto;"">
                                <img src=""images/1_Disgust_hi_lo_1_tab20b_ascend_smlg_dot.png"" width=""480"" height=""420"" style=""object-fit:contain;"">
                            </div>
                        </div>","61","html-slider-response",95,367385,"0.0-91.0","bx6fxnxppe",0,"","","","","","",0,"",NA,"","Disgust","images/1_Disgust_hi_lo_1_tab20b_ascend_smlg_dot.png",NA,NA
NA,"<div style=""width:500px;"">
                            <p style=""font-size:50px; font-weight:bold;""
                            >Disgust</p>
                            <div style=""width:480px; margin: auto;"">
                                <img src=""images/1_Disgust_med_lo_2_tab20_decend_smlg_dot.png"" width=""480"" height=""420"" style=""object-fit:contain;"">
                            </div>
                        </div>","-198","html-slider-response",96,369551,"0.0-92.0","bx6fxnxppe",0,"","","","","","",0,"",NA,"","Disgust","images/1_Disgust_med_lo_2_tab20_decend_smlg_dot.png",NA,NA
NA,"<div style=""width:500px;"">
                            <p style=""font-size:50px; font-weight:bold;""
                            >Disgust</p>
                            <div style=""width:480px; margin: auto;"">
                                <img src=""images/1_Disgust_hi_md_1_tab20b_ascend_lgsm_dot.png"" width=""480"" height=""420"" style=""object-fit:contain;"">
                            </div>
                        </div>","146","html-slider-response",97,372651,"0.0-93.0","bx6fxnxppe",0,"","","","","","",0,"",NA,"","Disgust","images/1_Disgust_hi_md_1_tab20b_ascend_lgsm_dot.png",NA,NA
NA,"<div style=""width:500px;"">
                            <p style=""font-size:50px; font-weight:bold;""
                            >Disgust</p>
                            <div style=""width:480px; margin: auto;"">
                                <img src=""images/1_Disgust_hi_hi_1_tab20b_ascend_lgsm_dot.png"" width=""480"" height=""420"" style=""object-fit:contain;"">
                            </div>
                        </div>","143","html-slider-response",98,373935,"0.0-94.0","bx6fxnxppe",0,"","","","","","",0,"",NA,"","Disgust","images/1_Disgust_hi_hi_1_tab20b_ascend_lgsm_dot.png",NA,NA
NA,"<div style=""width:500px;"">
                            <p style=""font-size:50px; font-weight:bold;""
                            >Disgust</p>
                            <div style=""width:480px; margin: auto;"">
                                <img src=""images/1_Disgust_hi_md_2_Dark2_decend_smlg_dot.png"" width=""480"" height=""420"" style=""object-fit:contain;"">
                            </div>
                        </div>","190","html-slider-response",99,375350,"0.0-95.0","bx6fxnxppe",0,"","","","","","",0,"",NA,"","Disgust","images/1_Disgust_hi_md_2_Dark2_decend_smlg_dot.png",NA,NA
NA,"<div style=""width:500px;"">
                            <p style=""font-size:50px; font-weight:bold;""
                            >Disgust</p>
                            <div style=""width:480px; margin: auto;"">
                                <img src=""images/1_Disgust_hi_md_3_tab20_ascend_smlg_dot.png"" width=""480"" height=""420"" style=""object-fit:contain;"">
                            </div>
                        </div>","-89","html-slider-response",100,377251,"0.0-96.0","bx6fxnxppe",0,"","","","","","",0,"",NA,"","Disgust","images/1_Disgust_hi_md_3_tab20_ascend_smlg_dot.png",NA,NA
NA,"<div style=""width:500px;"">
                            <p style=""font-size:50px; font-weight:bold;""
                            >Disgust</p>
                            <div style=""width:480px; margin: auto;"">
                                <img src=""images/1_Disgust_med_med_2_tab20_ascend_lgsm_dot.png"" width=""480"" height=""420"" style=""object-fit:contain;"">
                            </div>
                        </div>","-104","html-slider-response",101,378834,"0.0-97.0","bx6fxnxppe",0,"","","","","","",0,"",NA,"","Disgust","images/1_Disgust_med_med_2_tab20_ascend_lgsm_dot.png",NA,NA
NA,"<div style=""width:500px;"">
                            <p style=""font-size:50px; font-weight:bold;""
                            >Disgust</p>
                            <div style=""width:480px; margin: auto;"">
                                <img src=""images/1_Disgust_hi_lo_3_Paired_ascend_smlg_dot.png"" width=""480"" height=""420"" style=""object-fit:contain;"">
                            </div>
                        </div>","31","html-slider-response",102,380685,"0.0-98.0","bx6fxnxppe",0,"","","","","","",0,"",NA,"","Disgust","images/1_Disgust_hi_lo_3_Paired_ascend_smlg_dot.png",NA,NA
NA,"<div style=""width:500px;"">
                            <p style=""font-size:50px; font-weight:bold;""
                            >Disgust</p>
                            <div style=""width:480px; margin: auto;"">
                                <img src=""images/1_Disgust_hi_md_1_tab20b_decend_lgsm_dot.png"" width=""480"" height=""420"" style=""object-fit:contain;"">
                            </div>
                        </div>","200","html-slider-response",103,382750,"0.0-99.0","bx6fxnxppe",0,"","","","","","",0,"",NA,"","Disgust","images/1_Disgust_hi_md_1_tab20b_decend_lgsm_dot.png",NA,NA
NA,"<div style=""width:500px;"">
                            <p style=""font-size:50px; font-weight:bold;""
                            >Disgust</p>
                            <div style=""width:480px; margin: auto;"">
                                <img src=""images/1_Disgust_hi_hi_3_Dark2_ascend_smlg_dot.png"" width=""480"" height=""420"" style=""object-fit:contain;"">
                            </div>
                        </div>","195","html-slider-response",104,384635,"0.0-100.0","bx6fxnxppe",0,"","","","","","",0,"",NA,"","Disgust","images/1_Disgust_hi_hi_3_Dark2_ascend_smlg_dot.png",NA,NA
NA,"<div style=""width:500px;"">
                            <p style=""font-size:50px; font-weight:bold;""
                            >Disgust</p>
                            <div style=""width:480px; margin: auto;"">
                                <img src=""images/1_Disgust_hi_hi_2_tab20_decend_lgsm_dot.png"" width=""480"" height=""420"" style=""object-fit:contain;"">
                            </div>
                        </div>","196","html-slider-response",105,386117,"0.0-101.0","bx6fxnxppe",0,"","","","","","",0,"",NA,"","Disgust","images/1_Disgust_hi_hi_2_tab20_decend_lgsm_dot.png",NA,NA
NA,"<div style=""width:500px;"">
                            <p style=""font-size:50px; font-weight:bold;""
                            >Disgust</p>
                            <div style=""width:480px; margin: auto;"">
                                <img src=""images/1_Disgust_lo_lo_1_tab20c_ascend_smlg_dot.png"" width=""480"" height=""420"" style=""object-fit:contain;"">
                            </div>
                        </div>","-196","html-slider-response",106,388385,"0.0-102.0","bx6fxnxppe",0,"","","","","","",0,"",NA,"","Disgust","images/1_Disgust_lo_lo_1_tab20c_ascend_smlg_dot.png",NA,NA
NA,"<div style=""width:500px;"">
                            <p style=""font-size:50px; font-weight:bold;""
                            >Disgust</p>
                            <div style=""width:480px; margin: auto;"">
                                <img src=""images/1_Disgust_hi_lo_3_Paired_ascend_lgsm_dot.png"" width=""480"" height=""420"" style=""object-fit:contain;"">
                            </div>
                        </div>","-154","html-slider-response",107,389885,"0.0-103.0","bx6fxnxppe",0,"","","","","","",0,"",NA,"","Disgust","images/1_Disgust_hi_lo_3_Paired_ascend_lgsm_dot.png",NA,NA
NA,"<div style=""width:500px;"">
                            <p style=""font-size:50px; font-weight:bold;""
                            >Disgust</p>
                            <div style=""width:480px; margin: auto;"">
                                <img src=""images/1_Disgust_med_lo_2_tab20_ascend_smlg_dot.png"" width=""480"" height=""420"" style=""object-fit:contain;"">
                            </div>
                        </div>","-118","html-slider-response",108,391468,"0.0-104.0","bx6fxnxppe",0,"","","","","","",0,"",NA,"","Disgust","images/1_Disgust_med_lo_2_tab20_ascend_smlg_dot.png",NA,NA
NA,"<div style=""width:500px;"">
                            <p style=""font-size:50px; font-weight:bold;""
                            >Disgust</p>
                            <div style=""width:480px; margin: auto;"">
                                <img src=""images/1_Disgust_lo_lo_1_tab20c_ascend_lgsm_dot.png"" width=""480"" height=""420"" style=""object-fit:contain;"">
                            </div>
                        </div>","-38","html-slider-response",109,392951,"0.0-105.0","bx6fxnxppe",0,"","","","","","",0,"",NA,"","Disgust","images/1_Disgust_lo_lo_1_tab20c_ascend_lgsm_dot.png",NA,NA
NA,"<div style=""width:500px;"">
                            <p style=""font-size:50px; font-weight:bold;""
                            >Disgust</p>
                            <div style=""width:480px; margin: auto;"">
                                <img src=""images/1_Disgust_hi_lo_1_tab20b_decend_smlg_dot.png"" width=""480"" height=""420"" style=""object-fit:contain;"">
                            </div>
                        </div>","89","html-slider-response",110,394734,"0.0-106.0","bx6fxnxppe",0,"","","","","","",0,"",NA,"","Disgust","images/1_Disgust_hi_lo_1_tab20b_decend_smlg_dot.png",NA,NA
NA,"<div style=""width:500px;"">
                            <p style=""font-size:50px; font-weight:bold;""
                            >Disgust</p>
                            <div style=""width:480px; margin: auto;"">
                                <img src=""images/1_Disgust_hi_lo_2_tab20_ascend_lgsm_dot.png"" width=""480"" height=""420"" style=""object-fit:contain;"">
                            </div>
                        </div>","69","html-slider-response",111,396467,"0.0-107.0","bx6fxnxppe",0,"","","","","","",0,"",NA,"","Disgust","images/1_Disgust_hi_lo_2_tab20_ascend_lgsm_dot.png",NA,NA
NA,"<div style=""width:500px;"">
                            <p style=""font-size:50px; font-weight:bold;""
                            >Disgust</p>
                            <div style=""width:480px; margin: auto;"">
                                <img src=""images/1_Disgust_hi_md_1_tab20b_decend_smlg_dot.png"" width=""480"" height=""420"" style=""object-fit:contain;"">
                            </div>
                        </div>","154","html-slider-response",112,398434,"0.0-108.0","bx6fxnxppe",0,"","","","","","",0,"",NA,"","Disgust","images/1_Disgust_hi_md_1_tab20b_decend_smlg_dot.png",NA,NA
NA,"<div style=""width:500px;"">
                            <p style=""font-size:50px; font-weight:bold;""
                            >Disgust</p>
                            <div style=""width:480px; margin: auto;"">
                                <img src=""images/1_Disgust_hi_md_2_Dark2_ascend_smlg_dot.png"" width=""480"" height=""420"" style=""object-fit:contain;"">
                            </div>
                        </div>","193","html-slider-response",113,400084,"0.0-109.0","bx6fxnxppe",0,"","","","","","",0,"",NA,"","Disgust","images/1_Disgust_hi_md_2_Dark2_ascend_smlg_dot.png",NA,NA
NA,"<div style=""width:500px;"">
                            <p style=""font-size:50px; font-weight:bold;""
                            >Disgust</p>
                            <div style=""width:480px; margin: auto;"">
                                <img src=""images/1_Disgust_hi_lo_3_Paired_decend_smlg_dot.png"" width=""480"" height=""420"" style=""object-fit:contain;"">
                            </div>
                        </div>","38","html-slider-response",114,402284,"0.0-110.0","bx6fxnxppe",0,"","","","","","",0,"",NA,"","Disgust","images/1_Disgust_hi_lo_3_Paired_decend_smlg_dot.png",NA,NA
NA,"<div style=""width:500px;"">
                            <p style=""font-size:50px; font-weight:bold;""
                            >Disgust</p>
                            <div style=""width:480px; margin: auto;"">
                                <img src=""images/1_Disgust_hi_md_3_tab20_decend_smlg_dot.png"" width=""480"" height=""420"" style=""object-fit:contain;"">
                            </div>
                        </div>","-39","html-slider-response",115,404318,"0.0-111.0","bx6fxnxppe",0,"","","","","","",0,"",NA,"","Disgust","images/1_Disgust_hi_md_3_tab20_decend_smlg_dot.png",NA,NA
NA,"<div style=""width:500px;"">
                            <p style=""font-size:50px; font-weight:bold;""
                            >Disgust</p>
                            <div style=""width:480px; margin: auto;"">
                                <img src=""images/1_Disgust_lo_lo_3_tab20_ascend_lgsm_dot.png"" width=""480"" height=""420"" style=""object-fit:contain;"">
                            </div>
                        </div>","-198","html-slider-response",116,406651,"0.0-112.0","bx6fxnxppe",0,"","","","","","",0,"",NA,"","Disgust","images/1_Disgust_lo_lo_3_tab20_ascend_lgsm_dot.png",NA,NA
NA,"<div style=""width:500px;"">
                            <p style=""font-size:50px; font-weight:bold;""
                            >Disgust</p>
                            <div style=""width:480px; margin: auto;"">
                                <img src=""images/1_Disgust_med_lo_3_Pastel2_ascend_lgsm_dot.png"" width=""480"" height=""420"" style=""object-fit:contain;"">
                            </div>
                        </div>","-77","html-slider-response",117,408568,"0.0-113.0","bx6fxnxppe",0,"","","","","","",0,"",NA,"","Disgust","images/1_Disgust_med_lo_3_Pastel2_ascend_lgsm_dot.png",NA,NA
NA,"<div style=""width:500px;"">
                            <p style=""font-size:50px; font-weight:bold;""
                            >Disgust</p>
                            <div style=""width:480px; margin: auto;"">
                                <img src=""images/1_Disgust_med_med_1_tab20b_ascend_lgsm_dot.png"" width=""480"" height=""420"" style=""object-fit:contain;"">
                            </div>
                        </div>","54","html-slider-response",118,410235,"0.0-114.0","bx6fxnxppe",0,"","","","","","",0,"",NA,"","Disgust","images/1_Disgust_med_med_1_tab20b_ascend_lgsm_dot.png",NA,NA
NA,"<div style=""width:500px;"">
                            <p style=""font-size:50px; font-weight:bold;""
                            >Disgust</p>
                            <div style=""width:480px; margin: auto;"">
                                <img src=""images/1_Disgust_med_lo_1_tab20c_decend_smlg_dot.png"" width=""480"" height=""420"" style=""object-fit:contain;"">
                            </div>
                        </div>","94","html-slider-response",119,412284,"0.0-115.0","bx6fxnxppe",0,"","","","","","",0,"",NA,"","Disgust","images/1_Disgust_med_lo_1_tab20c_decend_smlg_dot.png",NA,NA
NA,"<div style=""width:500px;"">
                            <p style=""font-size:50px; font-weight:bold;""
                            >Disgust</p>
                            <div style=""width:480px; margin: auto;"">
                                <img src=""images/1_Disgust_hi_hi_3_Dark2_decend_smlg_dot.png"" width=""480"" height=""420"" style=""object-fit:contain;"">
                            </div>
                        </div>","136","html-slider-response",120,413918,"0.0-116.0","bx6fxnxppe",0,"","","","","","",0,"",NA,"","Disgust","images/1_Disgust_hi_hi_3_Dark2_decend_smlg_dot.png",NA,NA
NA,"<div style=""width:500px;"">
                            <p style=""font-size:50px; font-weight:bold;""
                            >Disgust</p>
                            <div style=""width:480px; margin: auto;"">
                                <img src=""images/1_Disgust_med_lo_2_tab20_decend_lgsm_dot.png"" width=""480"" height=""420"" style=""object-fit:contain;"">
                            </div>
                        </div>","-71","html-slider-response",121,415551,"0.0-117.0","bx6fxnxppe",0,"","","","","","",0,"",NA,"","Disgust","images/1_Disgust_med_lo_2_tab20_decend_lgsm_dot.png",NA,NA
NA,"<div style=""width:500px;"">
                            <p style=""font-size:50px; font-weight:bold;""
                            >Disgust</p>
                            <div style=""width:480px; margin: auto;"">
                                <img src=""images/1_Disgust_hi_md_3_tab20_decend_lgsm_dot.png"" width=""480"" height=""420"" style=""object-fit:contain;"">
                            </div>
                        </div>","-43","html-slider-response",122,417184,"0.0-118.0","bx6fxnxppe",0,"","","","","","",0,"",NA,"","Disgust","images/1_Disgust_hi_md_3_tab20_decend_lgsm_dot.png",NA,NA
NA,"<div style=""width:500px;"">
                            <p style=""font-size:50px; font-weight:bold;""
                            >Disgust</p>
                            <div style=""width:480px; margin: auto;"">
                                <img src=""images/1_Disgust_med_lo_1_tab20c_ascend_lgsm_dot.png"" width=""480"" height=""420"" style=""object-fit:contain;"">
                            </div>
                        </div>","34","html-slider-response",123,418818,"0.0-119.0","bx6fxnxppe",0,"","","","","","",0,"",NA,"","Disgust","images/1_Disgust_med_lo_1_tab20c_ascend_lgsm_dot.png",NA,NA
NA,"<div style=""width:500px;"">
                            <p style=""font-size:50px; font-weight:bold;""
                            >Disgust</p>
                            <div style=""width:480px; margin: auto;"">
                                <img src=""images/1_Disgust_med_med_1_tab20b_decend_lgsm_dot.png"" width=""480"" height=""420"" style=""object-fit:contain;"">
                            </div>
                        </div>","105","html-slider-response",124,421267,"0.0-120.0","bx6fxnxppe",0,"","","","","","",0,"",NA,"","Disgust","images/1_Disgust_med_med_1_tab20b_decend_lgsm_dot.png",NA,NA
NA,"<div style=""width:500px;"">
                            <p style=""font-size:50px; font-weight:bold;""
                            >Disgust</p>
                            <div style=""width:480px; margin: auto;"">
                                <img src=""images/1_Disgust_med_med_3_Paired_decend_lgsm_dot.png"" width=""480"" height=""420"" style=""object-fit:contain;"">
                            </div>
                        </div>","-99","html-slider-response",125,423318,"0.0-121.0","bx6fxnxppe",0,"","","","","","",0,"",NA,"","Disgust","images/1_Disgust_med_med_3_Paired_decend_lgsm_dot.png",NA,NA
NA,"<div style=""width:500px;"">
                            <p style=""font-size:50px; font-weight:bold;""
                            >Disgust</p>
                            <div style=""width:480px; margin: auto;"">
                                <img src=""images/1_Disgust_med_lo_1_tab20c_decend_lgsm_dot.png"" width=""480"" height=""420"" style=""object-fit:contain;"">
                            </div>
                        </div>","46","html-slider-response",126,425451,"0.0-122.0","bx6fxnxppe",0,"","","","","","",0,"",NA,"","Disgust","images/1_Disgust_med_lo_1_tab20c_decend_lgsm_dot.png",NA,NA
NA,"<div style=""width:500px;"">
                            <p style=""font-size:50px; font-weight:bold;""
                            >Disgust</p>
                            <div style=""width:480px; margin: auto;"">
                                <img src=""images/1_Disgust_lo_lo_1_tab20c_decend_lgsm_dot.png"" width=""480"" height=""420"" style=""object-fit:contain;"">
                            </div>
                        </div>","-188","html-slider-response",127,427551,"0.0-123.0","bx6fxnxppe",0,"","","","","","",0,"",NA,"","Disgust","images/1_Disgust_lo_lo_1_tab20c_decend_lgsm_dot.png",NA,NA
NA,"<div style=""width:500px;"">
                            <p style=""font-size:50px; font-weight:bold;""
                            >Disgust</p>
                            <div style=""width:480px; margin: auto;"">
                                <img src=""images/1_Disgust_lo_lo_2_Pastel1_ascend_lgsm_dot.png"" width=""480"" height=""420"" style=""object-fit:contain;"">
                            </div>
                        </div>","-195","html-slider-response",128,429634,"0.0-124.0","bx6fxnxppe",0,"","","","","","",0,"",NA,"","Disgust","images/1_Disgust_lo_lo_2_Pastel1_ascend_lgsm_dot.png",NA,NA
NA,"<div style=""width:500px;"">
                            <p style=""font-size:50px; font-weight:bold;""
                            >Disgust</p>
                            <div style=""width:480px; margin: auto;"">
                                <img src=""images/1_Disgust_med_lo_3_Pastel2_decend_smlg_dot.png"" width=""480"" height=""420"" style=""object-fit:contain;"">
                            </div>
                        </div>","-195","html-slider-response",129,430968,"0.0-125.0","bx6fxnxppe",0,"","","","","","",0,"",NA,"","Disgust","images/1_Disgust_med_lo_3_Pastel2_decend_smlg_dot.png",NA,NA
NA,"<div style=""width:500px;"">
                            <p style=""font-size:50px; font-weight:bold;""
                            >Disgust</p>
                            <div style=""width:480px; margin: auto;"">
                                <img src=""images/1_Disgust_hi_hi_3_Dark2_ascend_lgsm_dot.png"" width=""480"" height=""420"" style=""object-fit:contain;"">
                            </div>
                        </div>","180","html-slider-response",130,432884,"0.0-126.0","bx6fxnxppe",0,"","","","","","",0,"",NA,"","Disgust","images/1_Disgust_hi_hi_3_Dark2_ascend_lgsm_dot.png",NA,NA
NA,"<div style=""width:500px;"">
                            <p style=""font-size:50px; font-weight:bold;""
                            >Disgust</p>
                            <div style=""width:480px; margin: auto;"">
                                <img src=""images/1_Disgust_lo_lo_3_tab20_decend_lgsm_dot.png"" width=""480"" height=""420"" style=""object-fit:contain;"">
                            </div>
                        </div>","-191","html-slider-response",131,435084,"0.0-127.0","bx6fxnxppe",0,"","","","","","",0,"",NA,"","Disgust","images/1_Disgust_lo_lo_3_tab20_decend_lgsm_dot.png",NA,NA
NA,"<div style=""width:500px;"">
                            <p style=""font-size:50px; font-weight:bold;""
                            >Disgust</p>
                            <div style=""width:480px; margin: auto;"">
                                <img src=""images/1_Disgust_hi_hi_1_tab20b_decend_lgsm_dot.png"" width=""480"" height=""420"" style=""object-fit:contain;"">
                            </div>
                        </div>","199","html-slider-response",132,439416,"0.0-128.0","bx6fxnxppe",0,"","","","","","",0,"",NA,"","Disgust","images/1_Disgust_hi_hi_1_tab20b_decend_lgsm_dot.png",NA,NA
NA,"<div style=""width:500px;"">
                            <p style=""font-size:50px; font-weight:bold;""
                            >Disgust</p>
                            <div style=""width:480px; margin: auto;"">
                                <img src=""images/1_Disgust_med_med_2_tab20_ascend_smlg_dot.png"" width=""480"" height=""420"" style=""object-fit:contain;"">
                            </div>
                        </div>","-44","html-slider-response",133,442018,"0.0-129.0","bx6fxnxppe",0,"","","","","","",0,"",NA,"","Disgust","images/1_Disgust_med_med_2_tab20_ascend_smlg_dot.png",NA,NA
NA,"<div style=""width:500px;"">
                            <p style=""font-size:50px; font-weight:bold;""
                            >Disgust</p>
                            <div style=""width:480px; margin: auto;"">
                                <img src=""images/1_Disgust_med_med_2_tab20_decend_lgsm_dot.png"" width=""480"" height=""420"" style=""object-fit:contain;"">
                            </div>
                        </div>","23","html-slider-response",134,444067,"0.0-130.0","bx6fxnxppe",0,"","","","","","",0,"",NA,"","Disgust","images/1_Disgust_med_med_2_tab20_decend_lgsm_dot.png",NA,NA
NA,"<div style=""width:500px;"">
                            <p style=""font-size:50px; font-weight:bold;""
                            >Disgust</p>
                            <div style=""width:480px; margin: auto;"">
                                <img src=""images/1_Disgust_med_med_3_Paired_ascend_smlg_dot.png"" width=""480"" height=""420"" style=""object-fit:contain;"">
                            </div>
                        </div>","-84","html-slider-response",135,446118,"0.0-131.0","bx6fxnxppe",0,"","","","","","",0,"",NA,"","Disgust","images/1_Disgust_med_med_3_Paired_ascend_smlg_dot.png",NA,NA
NA,"<div style=""width:500px;"">
                            <p style=""font-size:50px; font-weight:bold;""
                            >Disgust</p>
                            <div style=""width:480px; margin: auto;"">
                                <img src=""images/1_Disgust_hi_md_3_tab20_ascend_lgsm_dot.png"" width=""480"" height=""420"" style=""object-fit:contain;"">
                            </div>
                        </div>","-107","html-slider-response",136,448317,"0.0-132.0","bx6fxnxppe",0,"","","","","","",0,"",NA,"","Disgust","images/1_Disgust_hi_md_3_tab20_ascend_lgsm_dot.png",NA,NA
NA,"<div style=""width:500px;"">
                            <p style=""font-size:50px; font-weight:bold;""
                            >Disgust</p>
                            <div style=""width:480px; margin: auto;"">
                                <img src=""images/1_Disgust_med_lo_1_tab20c_ascend_smlg_dot.png"" width=""480"" height=""420"" style=""object-fit:contain;"">
                            </div>
                        </div>","-52","html-slider-response",137,549484,"0.0-133.0","bx6fxnxppe",0,"","","","","","",0,"",NA,"","Disgust","images/1_Disgust_med_lo_1_tab20c_ascend_smlg_dot.png",NA,NA
NA,"<div style=""width:500px;"">
                            <p style=""font-size:50px; font-weight:bold;""
                            >Disgust</p>
                            <div style=""width:480px; margin: auto;"">
                                <img src=""images/1_Disgust_hi_lo_3_Paired_decend_lgsm_dot.png"" width=""480"" height=""420"" style=""object-fit:contain;"">
                            </div>
                        </div>","-101","html-slider-response",138,551266,"0.0-134.0","bx6fxnxppe",0,"","","","","","",0,"",NA,"","Disgust","images/1_Disgust_hi_lo_3_Paired_decend_lgsm_dot.png",NA,NA
NA,"<div style=""width:500px;"">
                            <p style=""font-size:50px; font-weight:bold;""
                            >Disgust</p>
                            <div style=""width:480px; margin: auto;"">
                                <img src=""images/1_Disgust_lo_lo_2_Pastel1_ascend_smlg_dot.png"" width=""480"" height=""420"" style=""object-fit:contain;"">
                            </div>
                        </div>","-192","html-slider-response",139,554216,"0.0-135.0","bx6fxnxppe",0,"","","","","","",0,"",NA,"","Disgust","images/1_Disgust_lo_lo_2_Pastel1_ascend_smlg_dot.png",NA,NA
NA,"<div style=""width:500px;"">
                            <p style=""font-size:50px; font-weight:bold;""
                            >Disgust</p>
                            <div style=""width:480px; margin: auto;"">
                                <img src=""images/1_Disgust_med_lo_2_tab20_ascend_lgsm_dot.png"" width=""480"" height=""420"" style=""object-fit:contain;"">
                            </div>
                        </div>","-47","html-slider-response",140,556299,"0.0-136.0","bx6fxnxppe",0,"","","","","","",0,"",NA,"","Disgust","images/1_Disgust_med_lo_2_tab20_ascend_lgsm_dot.png",NA,NA
NA,"<div style=""width:500px;"">
                            <p style=""font-size:50px; font-weight:bold;""
                            >Disgust</p>
                            <div style=""width:480px; margin: auto;"">
                                <img src=""images/1_Disgust_lo_lo_2_Pastel1_decend_smlg_dot.png"" width=""480"" height=""420"" style=""object-fit:contain;"">
                            </div>
                        </div>","-193","html-slider-response",141,558084,"0.0-137.0","bx6fxnxppe",0,"","","","","","",0,"",NA,"","Disgust","images/1_Disgust_lo_lo_2_Pastel1_decend_smlg_dot.png",NA,NA
NA,"<div style=""width:500px;"">
                            <p style=""font-size:50px; font-weight:bold;""
                            >Disgust</p>
                            <div style=""width:480px; margin: auto;"">
                                <img src=""images/1_Disgust_lo_lo_3_tab20_ascend_smlg_dot.png"" width=""480"" height=""420"" style=""object-fit:contain;"">
                            </div>
                        </div>","-164","html-slider-response",142,559583,"0.0-138.0","bx6fxnxppe",0,"","","","","","",0,"",NA,"","Disgust","images/1_Disgust_lo_lo_3_tab20_ascend_smlg_dot.png",NA,NA
NA,"<div style=""width:500px;"">
                            <p style=""font-size:50px; font-weight:bold;""
                            >Disgust</p>
                            <div style=""width:480px; margin: auto;"">
                                <img src=""images/1_Disgust_hi_hi_2_tab20_decend_smlg_dot.png"" width=""480"" height=""420"" style=""object-fit:contain;"">
                            </div>
                        </div>","45","html-slider-response",143,561717,"0.0-139.0","bx6fxnxppe",0,"","","","","","",0,"",NA,"","Disgust","images/1_Disgust_hi_hi_2_tab20_decend_smlg_dot.png",NA,NA
NA,"<div style=""width:500px;"">
                            <p style=""font-size:50px; font-weight:bold;""
                            >Disgust</p>
                            <div style=""width:480px; margin: auto;"">
                                <img src=""images/1_Disgust_hi_md_2_Dark2_ascend_lgsm_dot.png"" width=""480"" height=""420"" style=""object-fit:contain;"">
                            </div>
                        </div>","61","html-slider-response",144,563183,"0.0-140.0","bx6fxnxppe",0,"","","","","","",0,"",NA,"","Disgust","images/1_Disgust_hi_md_2_Dark2_ascend_lgsm_dot.png",NA,NA
NA,"<div style=""width:500px;"">
                            <p style=""font-size:50px; font-weight:bold;""
                            >Disgust</p>
                            <div style=""width:480px; margin: auto;"">
                                <img src=""images/1_Disgust_hi_lo_2_tab20_decend_smlg_dot.png"" width=""480"" height=""420"" style=""object-fit:contain;"">
                            </div>
                        </div>","-78","html-slider-response",145,565850,"0.0-141.0","bx6fxnxppe",0,"","","","","","",0,"",NA,"","Disgust","images/1_Disgust_hi_lo_2_tab20_decend_smlg_dot.png",NA,NA
NA,"<div style=""width:500px;"">
                            <p style=""font-size:50px; font-weight:bold;""
                            >Disgust</p>
                            <div style=""width:480px; margin: auto;"">
                                <img src=""images/1_Disgust_hi_hi_2_tab20_ascend_lgsm_dot.png"" width=""480"" height=""420"" style=""object-fit:contain;"">
                            </div>
                        </div>","-105","html-slider-response",146,567383,"0.0-142.0","bx6fxnxppe",0,"","","","","","",0,"",NA,"","Disgust","images/1_Disgust_hi_hi_2_tab20_ascend_lgsm_dot.png",NA,NA
NA,"<div style=""width:500px;"">
                            <p style=""font-size:50px; font-weight:bold;""
                            >Disgust</p>
                            <div style=""width:480px; margin: auto;"">
                                <img src=""images/1_Disgust_med_med_2_tab20_decend_smlg_dot.png"" width=""480"" height=""420"" style=""object-fit:contain;"">
                            </div>
                        </div>","-192","html-slider-response",147,569384,"0.0-143.0","bx6fxnxppe",0,"","","","","","",0,"",NA,"","Disgust","images/1_Disgust_med_med_2_tab20_decend_smlg_dot.png",NA,NA
NA,"<div style=""width:500px;"">
                            <p style=""font-size:50px; font-weight:bold;""
                            >Disgust</p>
                            <div style=""width:480px; margin: auto;"">
                                <img src=""images/1_Disgust_hi_hi_2_tab20_ascend_smlg_dot.png"" width=""480"" height=""420"" style=""object-fit:contain;"">
                            </div>
                        </div>","42","html-slider-response",148,573184,"0.0-144.0","bx6fxnxppe",0,"","","","","","",0,"",NA,"","Disgust","images/1_Disgust_hi_hi_2_tab20_ascend_smlg_dot.png",NA,NA
NA,"<div style=""width:500px;"">
                            <p style=""font-size:50px; font-weight:bold;""
                            >Disgust</p>
                            <div style=""width:480px; margin: auto;"">
                                <img src=""images/1_Disgust_lo_lo_3_tab20_decend_smlg_dot.png"" width=""480"" height=""420"" style=""object-fit:contain;"">
                            </div>
                        </div>","-190","html-slider-response",149,575083,"0.0-145.0","bx6fxnxppe",0,"","","","","","",0,"",NA,"","Disgust","images/1_Disgust_lo_lo_3_tab20_decend_smlg_dot.png",NA,NA
NA,"<div style=""width:500px;"">
                            <p style=""font-size:50px; font-weight:bold;""
                            >Disgust</p>
                            <div style=""width:480px; margin: auto;"">
                                <img src=""images/1_Disgust_hi_md_1_tab20b_ascend_smlg_dot.png"" width=""480"" height=""420"" style=""object-fit:contain;"">
                            </div>
                        </div>","174","html-slider-response",150,577216,"0.0-146.0","bx6fxnxppe",0,"","","","","","",0,"",NA,"","Disgust","images/1_Disgust_hi_md_1_tab20b_ascend_smlg_dot.png",NA,NA
NA,"<div style=""width:500px;"">
                            <p style=""font-size:50px; font-weight:bold;""
                            >Disgust</p>
                            <div style=""width:480px; margin: auto;"">
                                <img src=""images/1_Disgust_med_med_1_tab20b_decend_smlg_dot.png"" width=""480"" height=""420"" style=""object-fit:contain;"">
                            </div>
                        </div>","-69","html-slider-response",151,579517,"0.0-147.0","bx6fxnxppe",0,"","","","","","",0,"",NA,"","Disgust","images/1_Disgust_med_med_1_tab20b_decend_smlg_dot.png",NA,NA
NA,"<div style=""width:500px;"">
                            <p style=""font-size:50px; font-weight:bold;""
                            >Disgust</p>
                            <div style=""width:480px; margin: auto;"">
                                <img src=""images/1_Disgust_hi_lo_1_tab20b_decend_lgsm_dot.png"" width=""480"" height=""420"" style=""object-fit:contain;"">
                            </div>
                        </div>","30","html-slider-response",152,581717,"0.0-148.0","bx6fxnxppe",0,"","","","","","",0,"",NA,"","Disgust","images/1_Disgust_hi_lo_1_tab20b_decend_lgsm_dot.png",NA,NA
NA,"<div style=""width:500px;"">
                            <p style=""font-size:50px; font-weight:bold;""
                            >Disgust</p>
                            <div style=""width:480px; margin: auto;"">
                                <img src=""images/1_Disgust_med_med_3_Paired_ascend_lgsm_dot.png"" width=""480"" height=""420"" style=""object-fit:contain;"">
                            </div>
                        </div>","-76","html-slider-response",153,583583,"0.0-149.0","bx6fxnxppe",0,"","","","","","",0,"",NA,"","Disgust","images/1_Disgust_med_med_3_Paired_ascend_lgsm_dot.png",NA,NA
NA,"<div style=""width:500px;"">
                            <p style=""font-size:50px; font-weight:bold;""
                            >Disgust</p>
                            <div style=""width:480px; margin: auto;"">
                                <img src=""images/1_Disgust_med_lo_3_Pastel2_ascend_smlg_dot.png"" width=""480"" height=""420"" style=""object-fit:contain;"">
                            </div>
                        </div>","-192","html-slider-response",154,586050,"0.0-150.0","bx6fxnxppe",0,"","","","","","",0,"",NA,"","Disgust","images/1_Disgust_med_lo_3_Pastel2_ascend_smlg_dot.png",NA,NA
NA,"<div style=""width:500px;"">
                            <p style=""font-size:50px; font-weight:bold;""
                            >Disgust</p>
                            <div style=""width:480px; margin: auto;"">
                                <img src=""images/1_Disgust_lo_lo_2_Pastel1_decend_lgsm_dot.png"" width=""480"" height=""420"" style=""object-fit:contain;"">
                            </div>
                        </div>","-194","html-slider-response",155,588317,"0.0-151.0","bx6fxnxppe",0,"","","","","","",0,"",NA,"","Disgust","images/1_Disgust_lo_lo_2_Pastel1_decend_lgsm_dot.png",NA,NA
NA,"<div style=""width:500px;"">
                            <p style=""font-size:50px; font-weight:bold;""
                            >Disgust</p>
                            <div style=""width:480px; margin: auto;"">
                                <img src=""images/1_Disgust_lo_lo_1_tab20c_decend_smlg_dot.png"" width=""480"" height=""420"" style=""object-fit:contain;"">
                            </div>
                        </div>","-194","html-slider-response",156,589650,"0.0-152.0","bx6fxnxppe",0,"","","","","","",0,"",NA,"","Disgust","images/1_Disgust_lo_lo_1_tab20c_decend_smlg_dot.png",NA,NA
NA,"<div style=""width:500px;"">
                            <p style=""font-size:50px; font-weight:bold;""
                            >Disgust</p>
                            <div style=""width:480px; margin: auto;"">
                                <img src=""images/1_Disgust_med_med_1_tab20b_ascend_smlg_dot.png"" width=""480"" height=""420"" style=""object-fit:contain;"">
                            </div>
                        </div>","2","html-slider-response",157,592433,"0.0-153.0","bx6fxnxppe",0,"","","","","","",0,"",NA,"","Disgust","images/1_Disgust_med_med_1_tab20b_ascend_smlg_dot.png",NA,NA
NA,"<div style=""width:500px;"">
                            <p style=""font-size:50px; font-weight:bold;""
                            >Disgust</p>
                            <div style=""width:480px; margin: auto;"">
                                <img src=""images/1_Disgust_med_lo_3_Pastel2_decend_lgsm_dot.png"" width=""480"" height=""420"" style=""object-fit:contain;"">
                            </div>
                        </div>","-34","html-slider-response",158,594067,"0.0-154.0","bx6fxnxppe",0,"","","","","","",0,"",NA,"","Disgust","images/1_Disgust_med_lo_3_Pastel2_decend_lgsm_dot.png",NA,NA
NA,"<div style=""width:500px;"">
                            <p style=""font-size:50px; font-weight:bold;""
                            >Disgust</p>
                            <div style=""width:480px; margin: auto;"">
                                <img src=""images/1_Disgust_hi_hi_1_tab20b_ascend_smlg_dot.png"" width=""480"" height=""420"" style=""object-fit:contain;"">
                            </div>
                        </div>","42","html-slider-response",159,595899,"0.0-155.0","bx6fxnxppe",0,"","","","","","",0,"",NA,"","Disgust","images/1_Disgust_hi_hi_1_tab20b_ascend_smlg_dot.png",NA,NA
NA,"<div style=""width:500px;"">
                            <p style=""font-size:50px; font-weight:bold;""
                            >Disgust</p>
                            <div style=""width:480px; margin: auto;"">
                                <img src=""images/1_Disgust_hi_md_2_Dark2_decend_lgsm_dot.png"" width=""480"" height=""420"" style=""object-fit:contain;"">
                            </div>
                        </div>","104","html-slider-response",160,597967,"0.0-156.0","bx6fxnxppe",0,"","","","","","",0,"",NA,"","Disgust","images/1_Disgust_hi_md_2_Dark2_decend_lgsm_dot.png",NA,NA
NA,"<div style=""width:500px;"">
                            <p style=""font-size:50px; font-weight:bold;""
                            >Disgust</p>
                            <div style=""width:480px; margin: auto;"">
                                <img src=""images/1_Disgust_hi_hi_3_Dark2_decend_lgsm_dot.png"" width=""480"" height=""420"" style=""object-fit:contain;"">
                            </div>
                        </div>","131","html-slider-response",161,599684,"0.0-157.0","bx6fxnxppe",0,"","","","","","",0,"",NA,"","Disgust","images/1_Disgust_hi_hi_3_Dark2_decend_lgsm_dot.png",NA,NA
NA,"<div style=""width:500px;"">
                            <p style=""font-size:50px; font-weight:bold;""
                            >Disgust</p>
                            <div style=""width:480px; margin: auto;"">
                                <img src=""images/1_Disgust_hi_lo_1_tab20b_ascend_lgsm_dot.png"" width=""480"" height=""420"" style=""object-fit:contain;"">
                            </div>
                        </div>","0","html-slider-response",162,601616,"0.0-158.0","bx6fxnxppe",0,"","","","","","",0,"",NA,"","Disgust","images/1_Disgust_hi_lo_1_tab20b_ascend_lgsm_dot.png",NA,NA
NA,"<div style=""width:500px;"">
                            <p style=""font-size:50px; font-weight:bold;""
                            >Disgust</p>
                            <div style=""width:480px; margin: auto;"">
                                <img src=""images/1_Disgust_hi_lo_2_tab20_decend_lgsm_dot.png"" width=""480"" height=""420"" style=""object-fit:contain;"">
                            </div>
                        </div>","-70","html-slider-response",163,603384,"0.0-159.0","bx6fxnxppe",0,"","","","","","",0,"",NA,"","Disgust","images/1_Disgust_hi_lo_2_tab20_decend_lgsm_dot.png",NA,NA
3671,"<p>Great Job! You've finished block 2.<br></br> You have 3 block(s) left to go.<br></br></p>","0","html-button-response",164,607556,"0.0-160.0","bx6fxnxppe",0,"","","","","","",NA,"",NA,"","","",NA,NA
2332,"<p>In this block of trials, you will be asked to rate how much you associate each texture with the concept</p >
                        <p style = 'font-size:150%; font-weight: bold'>Happy</p><br></br>","0","html-button-response",165,609889,"0.0-161.0","bx6fxnxppe",0,"","","","","","",NA,"",NA,"","","",NA,NA
NA,"<div style=""width:500px;"">
                            <p style=""font-size:50px; font-weight:bold;""
                            >Happy</p>
                            <div style=""width:480px; margin: auto;"">
                                <img src=""images/1_Happy_lo_lo_1_tab20b_ascend_lgsm_dot.png"" width=""480"" height=""420"" style=""object-fit:contain;"">
                            </div>
                        </div>","-129","html-slider-response",166,612367,"0.0-162.0","bx6fxnxppe",0,"","","","","","",0,"",NA,"","Happy","images/1_Happy_lo_lo_1_tab20b_ascend_lgsm_dot.png",NA,NA
NA,"<div style=""width:500px;"">
                            <p style=""font-size:50px; font-weight:bold;""
                            >Happy</p>
                            <div style=""width:480px; margin: auto;"">
                                <img src=""images/1_Happy_hi_lo_3_Dark2_decend_lgsm_dot.png"" width=""480"" height=""420"" style=""object-fit:contain;"">
                            </div>
                        </div>","22","html-slider-response",167,617500,"0.0-163.0","bx6fxnxppe",0,"","","","","","",0,"",NA,"","Happy","images/1_Happy_hi_lo_3_Dark2_decend_lgsm_dot.png",NA,NA
NA,"<div style=""width:500px;"">
                            <p style=""font-size:50px; font-weight:bold;""
                            >Happy</p>
                            <div style=""width:480px; margin: auto;"">
                                <img src=""images/1_Happy_med_lo_2_tab20_decend_lgsm_dot.png"" width=""480"" height=""420"" style=""object-fit:contain;"">
                            </div>
                        </div>","-116","html-slider-response",168,619600,"0.0-164.0","bx6fxnxppe",0,"","","","","","",0,"",NA,"","Happy","images/1_Happy_med_lo_2_tab20_decend_lgsm_dot.png",NA,NA
NA,"<div style=""width:500px;"">
