"rt","stimulus","response","trial_type","trial_index","time_elapsed","internal_node_id","subject_id","condition_num","success","timeout","failed_images","failed_audio","failed_video","question_order","slider_start","practiceTrial","practiceTrialNum","correct","concept","texture_id","ishihara_plate","correct_response"
11685,"Welcome to our experiment!<p>At the bottom of this screen, you will see a button that says ""Begin Experiment"".<br>Please only click that button when you are ready to complete the 30 minute experiment in one sitting.</p><p> Once you click that button, it will not be possible to restart the experiment.","0","html-button-response",0,11689,"0.0-0.0","c8dhga6mt1",19,"","","","","","",NA,"",NA,"","","",NA,NA
NA,"","","preload",1,13506,"0.0-1.0","c8dhga6mt1",19,"true","false","[]","[]","[]","",NA,"",NA,"","","",NA,NA
5032,"","","fullscreen",2,19541,"0.0-2.0","c8dhga6mt1",19,"true","","","","","",NA,"",NA,"","","",NA,NA
7756,"","{""Consent"":[""<strong>I consent</strong>""]}","survey-multi-select",3,27302,"0.0-3.0","c8dhga6mt1",19,"","","","","","[0]",NA,"",NA,"","","",NA,NA
1285,"Welcome! <p> This experiment involves two parts: demographic information, followed by the experimental task.<p> It will take about 30 minutes to complete both parts.","0","html-button-response",4,28589,"0.0-4.0","c8dhga6mt1",19,"","","","","","",NA,"",NA,"","","",NA,NA
11723,"","{""Age"":""19"",""Gender"":""Female"",""Race/ethnicity"":""White"",""Languages"":""English, some spanish""}","survey-text",5,40328,"0.0-5.0","c8dhga6mt1",19,"","","","","","",NA,"",NA,"","","",NA,NA
79788,"
                        <div>
                            <div style='text-align:left; font-size:18px; line-height:25px; width: 1300px;'>
                                During this experiment you will be asked to rate how much you associate charts with                                different concepts. Below, you can see some examples of the charts you will be asked to rate. Above the charts
                                is the list of concepts. You will be asked
                                to rate how much you associate each chart with each concept on a scale from 'not at all' to 'very much' like the
                                one below. <br>

                        <div style=""text-align: left; width: 1300px;"">
                            <p style=""font-size:18px; line-height:20px; text-align:center; font-weight:bold"">
                                Fearful, Angry, Sad, Disgust, Happy
                            </p>
                        </div>

                        <div style=""display: flex; justify-content: center; width: 100%;"">
                            <div style=""
                                display: grid;
                                grid-template-columns: repeat(5, 1fr);
                                gap: 8px;
                                padding: 10px;
                                width: 900px;  
                                margin: 0 auto;
                            "">
                                
                                    <div style=""width: 100%;"">
                                        <img src=""images/20_Happy_hi_hi_1_Set1_ascend_smlg_dot.png"" style=""width: 100%; height: auto; object-fit: contain;"">
                                    </div>
                                
                                    <div style=""width: 100%;"">
                                        <img src=""images/20_Happy_lo_lo_1_tab20b_ascend_smlg_dot.png"" style=""width: 100%; height: auto; object-fit: contain;"">
                                    </div>
                                
                                    <div style=""width: 100%;"">
                                        <img src=""images/20_Fearful_lo_lo_1_Pastel1_decend_smlg_dot.png"" style=""width: 100%; height: auto; object-fit: contain;"">
                                    </div>
                                
                                    <div style=""width: 100%;"">
                                        <img src=""images/20_Angry_hi_hi_1_tab20_ascend_lgsm_dot.png"" style=""width: 100%; height: auto; object-fit: contain;"">
                                    </div>
                                
                                    <div style=""width: 100%;"">
                                        <img src=""images/20_Sad_lo_lo_1_Set1_decend_smlg_dot.png"" style=""width: 100%; height: auto; object-fit: contain;"">
                                    </div>
                                
                                    <div style=""width: 100%;"">
                                        <img src=""images/20_Sad_hi_hi_1_tab20_decend_lgsm_dot.png"" style=""width: 100%; height: auto; object-fit: contain;"">
                                    </div>
                                
                                    <div style=""width: 100%;"">
                                        <img src=""images/20_Angry_lo_lo_1_tab20c_decend_lgsm_dot.png"" style=""width: 100%; height: auto; object-fit: contain;"">
                                    </div>
                                
                                    <div style=""width: 100%;"">
                                        <img src=""images/20_Disgust_lo_lo_1_tab20c_ascend_lgsm_dot.png"" style=""width: 100%; height: auto; object-fit: contain;"">
                                    </div>
                                
                                    <div style=""width: 100%;"">
                                        <img src=""images/20_Disgust_hi_hi_1_tab20b_decend_smlg_dot.png"" style=""width: 100%; height: auto; object-fit: contain;"">
                                    </div>
                                
                                    <div style=""width: 100%;"">
                                        <img src=""images/20_Fearful_hi_hi_1_tab20b_decend_lgsm_dot.png"" style=""width: 100%; height: auto; object-fit: contain;"">
                                    </div>
                                
                            </div>
                        </div>
                    </div>
                </div>
                    ","-2","html-slider-response",6,120120,"0.0-6.0","c8dhga6mt1",19,"","","","","","",0,"true",NA,"","","",NA,NA
1461,"<div style=""width:1300px;""><p style=""text-align:left"">To move the slider, click and drag your cursor to the location of the scale where you would like to make your rating and then let go. When you let go of the slider, your response will be recorded and the next trial will begin. <br>
                    We are interested in your initial impressions of each chart for a given concept, so please go with your first intuition. 
                    Before you begin the experiment, there will be four training trials for you to practice using the slider. 
                     When you are ready to start the training trials, please click ""Continue"".</p><br></div>","0","html-button-response",7,121583,"0.0-7.0","c8dhga6mt1",19,"","","","","","",NA,"",NA,"","","",NA,NA
NA,"<div style=""width:500px;"">
                                    <p style=""font-size:25px;"">Please move the slider all the way to the <br> right endpoint of the scale</p>

                                    </div>
                                </div>","200","html-slider-response",8,124831,"0.0-8.0-0.0","c8dhga6mt1",19,"","","","","","",0,"true",0,"true","","",NA,NA
888,"<p align='center'><b>Good job!</b> Click on 'Continue' to proceed.</p>","0","html-button-response",9,126221,"0.0-8.0-1.0","c8dhga6mt1",19,"","","","","","",NA,"",NA,"","","",NA,NA
NA,"<div style=""width:500px;"">
                                    <p style=""font-size:25px;"">Please move the slider all the way to the <br> left endpoint of the scale</p>

                                    </div>
                                </div>","-200","html-slider-response",10,127656,"0.0-9.0-0.0","c8dhga6mt1",19,"","","","","","",0,"true",1,"true","","",NA,NA
864,"<p align='center'><b>Good job!</b> Click on 'Continue' to proceed.</p>","0","html-button-response",11,129023,"0.0-9.0-1.0","c8dhga6mt1",19,"","","","","","",NA,"",NA,"","","",NA,NA
NA,"<div style=""width:500px;"">
                                    <p style=""font-size:25px;"">Please move the slider halfway between the center and right endpoint of the scale</p>

                                    </div>
                                </div>","-2","html-slider-response",12,131979,"0.0-10.0-0.0","c8dhga6mt1",19,"","","","","","",0,"true",2,"false","","",NA,NA
737,"<p align='center'><b>Not quite!</b> The slider was not placed near the instructed located. Click on 'Continue' to try again. </p>","0","html-button-response",13,133218,"0.0-10.0-1.0","c8dhga6mt1",19,"","","","","","",NA,"",NA,"","","",NA,NA
NA,"<div style=""width:500px;"">
                                    <p style=""font-size:25px;"">Please move the slider halfway between the center and right endpoint of the scale</p>

                                    </div>
                                </div>","107","html-slider-response",14,138095,"0.0-10.1-0.1","c8dhga6mt1",19,"","","","","","",0,"true",2,"true","","",NA,NA
659,"<p align='center'><b>Good job!</b> Click on 'Continue' to proceed.</p>","0","html-button-response",15,139258,"0.0-10.1-1.1","c8dhga6mt1",19,"","","","","","",NA,"",NA,"","","",NA,NA
NA,"<div style=""width:500px;"">
                                    <p style=""font-size:25px;"">Please move the slider halfway between the center and left endpoint of the scale</p>

                                    </div>
                                </div>","-109","html-slider-response",16,141948,"0.0-11.0-0.0","c8dhga6mt1",19,"","","","","","",0,"true",3,"true","","",NA,NA
645,"<p align='center'><b>Good job!</b> Click on 'Continue' to proceed.</p>","0","html-button-response",17,143095,"0.0-11.0-1.0","c8dhga6mt1",19,"","","","","","",NA,"",NA,"","","",NA,NA
1440,"<p>Great job! You've completed the practice trials. Now you will begin the main task.</p>","0","html-button-response",18,144536,"0.0-12.0","c8dhga6mt1",19,"","","","","","",NA,"",NA,"","","",NA,NA
4210,"<p>In this block of trials, you will be asked to rate how much you associate each texture with the concept</p >
                        <p style = 'font-size:150%; font-weight: bold'>Fearful</p><br></br>","0","html-button-response",19,148747,"0.0-13.0","c8dhga6mt1",19,"","","","","","",NA,"",NA,"","","",NA,NA
NA,"<div style=""width:500px;"">
                            <p style=""font-size:50px; font-weight:bold;""
                            >Fearful</p>
                            <div style=""width:480px; margin: auto;"">
                                <img src=""images/20_Fearful_med_med_3_tab20b_ascend_lgsm_dot.png"" width=""480"" height=""420"" style=""object-fit:contain;"">
                            </div>
                        </div>","-142","html-slider-response",20,153116,"0.0-14.0","c8dhga6mt1",19,"","","","","","",0,"",NA,"","Fearful","images/20_Fearful_med_med_3_tab20b_ascend_lgsm_dot.png",NA,NA
NA,"<div style=""width:500px;"">
                            <p style=""font-size:50px; font-weight:bold;""
                            >Fearful</p>
                            <div style=""width:480px; margin: auto;"">
                                <img src=""images/20_Fearful_hi_md_1_tab20b_decend_lgsm_dot.png"" width=""480"" height=""420"" style=""object-fit:contain;"">
                            </div>
                        </div>","-34","html-slider-response",21,156022,"0.0-15.0","c8dhga6mt1",19,"","","","","","",0,"",NA,"","Fearful","images/20_Fearful_hi_md_1_tab20b_decend_lgsm_dot.png",NA,NA
NA,"<div style=""width:500px;"">
                            <p style=""font-size:50px; font-weight:bold;""
                            >Fearful</p>
                            <div style=""width:480px; margin: auto;"">
                                <img src=""images/20_Fearful_hi_md_2_tab10new_decend_lgsm_dot.png"" width=""480"" height=""420"" style=""object-fit:contain;"">
                            </div>
                        </div>","-29","html-slider-response",22,159605,"0.0-16.0","c8dhga6mt1",19,"","","","","","",0,"",NA,"","Fearful","images/20_Fearful_hi_md_2_tab10new_decend_lgsm_dot.png",NA,NA
NA,"<div style=""width:500px;"">
                            <p style=""font-size:50px; font-weight:bold;""
                            >Fearful</p>
                            <div style=""width:480px; margin: auto;"">
                                <img src=""images/20_Fearful_hi_lo_1_tab20_ascend_lgsm_dot.png"" width=""480"" height=""420"" style=""object-fit:contain;"">
                            </div>
                        </div>","-104","html-slider-response",23,161972,"0.0-17.0","c8dhga6mt1",19,"","","","","","",0,"",NA,"","Fearful","images/20_Fearful_hi_lo_1_tab20_ascend_lgsm_dot.png",NA,NA
NA,"<div style=""width:500px;"">
                            <p style=""font-size:50px; font-weight:bold;""
                            >Fearful</p>
                            <div style=""width:480px; margin: auto;"">
                                <img src=""images/20_Fearful_hi_hi_2_tab20_decend_smlg_dot.png"" width=""480"" height=""420"" style=""object-fit:contain;"">
                            </div>
                        </div>","57","html-slider-response",24,165655,"0.0-18.0","c8dhga6mt1",19,"","","","","","",0,"",NA,"","Fearful","images/20_Fearful_hi_hi_2_tab20_decend_smlg_dot.png",NA,NA
NA,"<div style=""width:500px;"">
                            <p style=""font-size:50px; font-weight:bold;""
                            >Fearful</p>
                            <div style=""width:480px; margin: auto;"">
                                <img src=""images/20_Fearful_med_lo_1_Pastel1_ascend_lgsm_dot.png"" width=""480"" height=""420"" style=""object-fit:contain;"">
                            </div>
                        </div>","0","html-slider-response",25,173332,"0.0-19.0","c8dhga6mt1",19,"","","","","","",0,"",NA,"","Fearful","images/20_Fearful_med_lo_1_Pastel1_ascend_lgsm_dot.png",NA,NA
NA,"<div style=""width:500px;"">
                            <p style=""font-size:50px; font-weight:bold;""
                            >Fearful</p>
                            <div style=""width:480px; margin: auto;"">
                                <img src=""images/20_Fearful_hi_md_3_tab20_ascend_lgsm_dot.png"" width=""480"" height=""420"" style=""object-fit:contain;"">
                            </div>
                        </div>","-18","html-slider-response",26,176178,"0.0-20.0","c8dhga6mt1",19,"","","","","","",0,"",NA,"","Fearful","images/20_Fearful_hi_md_3_tab20_ascend_lgsm_dot.png",NA,NA
NA,"<div style=""width:500px;"">
                            <p style=""font-size:50px; font-weight:bold;""
                            >Fearful</p>
                            <div style=""width:480px; margin: auto;"">
                                <img src=""images/20_Fearful_hi_md_1_tab20b_ascend_lgsm_dot.png"" width=""480"" height=""420"" style=""object-fit:contain;"">
                            </div>
                        </div>","29","html-slider-response",27,178431,"0.0-21.0","c8dhga6mt1",19,"","","","","","",0,"",NA,"","Fearful","images/20_Fearful_hi_md_1_tab20b_ascend_lgsm_dot.png",NA,NA
NA,"<div style=""width:500px;"">
                            <p style=""font-size:50px; font-weight:bold;""
                            >Fearful</p>
                            <div style=""width:480px; margin: auto;"">
                                <img src=""images/20_Fearful_med_med_1_tab20c_ascend_lgsm_dot.png"" width=""480"" height=""420"" style=""object-fit:contain;"">
                            </div>
                        </div>","-88","html-slider-response",28,181029,"0.0-22.0","c8dhga6mt1",19,"","","","","","",0,"",NA,"","Fearful","images/20_Fearful_med_med_1_tab20c_ascend_lgsm_dot.png",NA,NA
NA,"<div style=""width:500px;"">
                            <p style=""font-size:50px; font-weight:bold;""
                            >Fearful</p>
                            <div style=""width:480px; margin: auto;"">
                                <img src=""images/20_Fearful_med_lo_3_tab20_decend_smlg_dot.png"" width=""480"" height=""420"" style=""object-fit:contain;"">
                            </div>
                        </div>","-80","html-slider-response",29,182911,"0.0-23.0","c8dhga6mt1",19,"","","","","","",0,"",NA,"","Fearful","images/20_Fearful_med_lo_3_tab20_decend_smlg_dot.png",NA,NA
NA,"<div style=""width:500px;"">
                            <p style=""font-size:50px; font-weight:bold;""
                            >Fearful</p>
                            <div style=""width:480px; margin: auto;"">
                                <img src=""images/20_Fearful_lo_lo_1_Pastel1_ascend_smlg_dot.png"" width=""480"" height=""420"" style=""object-fit:contain;"">
                            </div>
                        </div>","-97","html-slider-response",30,184929,"0.0-24.0","c8dhga6mt1",19,"","","","","","",0,"",NA,"","Fearful","images/20_Fearful_lo_lo_1_Pastel1_ascend_smlg_dot.png",NA,NA
NA,"<div style=""width:500px;"">
                            <p style=""font-size:50px; font-weight:bold;""
                            >Fearful</p>
                            <div style=""width:480px; margin: auto;"">
                                <img src=""images/20_Fearful_med_lo_1_Pastel1_decend_smlg_dot.png"" width=""480"" height=""420"" style=""object-fit:contain;"">
                            </div>
                        </div>","-96","html-slider-response",31,186971,"0.0-25.0","c8dhga6mt1",19,"","","","","","",0,"",NA,"","Fearful","images/20_Fearful_med_lo_1_Pastel1_decend_smlg_dot.png",NA,NA
NA,"<div style=""width:500px;"">
                            <p style=""font-size:50px; font-weight:bold;""
                            >Fearful</p>
                            <div style=""width:480px; margin: auto;"">
                                <img src=""images/20_Fearful_hi_hi_1_tab20b_decend_smlg_dot.png"" width=""480"" height=""420"" style=""object-fit:contain;"">
                            </div>
                        </div>","58","html-slider-response",32,189709,"0.0-26.0","c8dhga6mt1",19,"","","","","","",0,"",NA,"","Fearful","images/20_Fearful_hi_hi_1_tab20b_decend_smlg_dot.png",NA,NA
NA,"<div style=""width:500px;"">
                            <p style=""font-size:50px; font-weight:bold;""
                            >Fearful</p>
                            <div style=""width:480px; margin: auto;"">
                                <img src=""images/20_Fearful_hi_lo_1_tab20_ascend_smlg_dot.png"" width=""480"" height=""420"" style=""object-fit:contain;"">
                            </div>
                        </div>","-59","html-slider-response",33,191858,"0.0-27.0","c8dhga6mt1",19,"","","","","","",0,"",NA,"","Fearful","images/20_Fearful_hi_lo_1_tab20_ascend_smlg_dot.png",NA,NA
NA,"<div style=""width:500px;"">
                            <p style=""font-size:50px; font-weight:bold;""
                            >Fearful</p>
                            <div style=""width:480px; margin: auto;"">
                                <img src=""images/20_Fearful_hi_lo_1_tab20_decend_lgsm_dot.png"" width=""480"" height=""420"" style=""object-fit:contain;"">
                            </div>
                        </div>","-70","html-slider-response",34,193846,"0.0-28.0","c8dhga6mt1",19,"","","","","","",0,"",NA,"","Fearful","images/20_Fearful_hi_lo_1_tab20_decend_lgsm_dot.png",NA,NA
NA,"<div style=""width:500px;"">
                            <p style=""font-size:50px; font-weight:bold;""
                            >Fearful</p>
                            <div style=""width:480px; margin: auto;"">
                                <img src=""images/20_Fearful_hi_md_2_tab10new_ascend_smlg_dot.png"" width=""480"" height=""420"" style=""object-fit:contain;"">
                            </div>
                        </div>","-30","html-slider-response",35,196221,"0.0-29.0","c8dhga6mt1",19,"","","","","","",0,"",NA,"","Fearful","images/20_Fearful_hi_md_2_tab10new_ascend_smlg_dot.png",NA,NA
NA,"<div style=""width:500px;"">
                            <p style=""font-size:50px; font-weight:bold;""
                            >Fearful</p>
                            <div style=""width:480px; margin: auto;"">
                                <img src=""images/20_Fearful_med_med_2_tab20_decend_smlg_dot.png"" width=""480"" height=""420"" style=""object-fit:contain;"">
                            </div>
                        </div>","-89","html-slider-response",36,198411,"0.0-30.0","c8dhga6mt1",19,"","","","","","",0,"",NA,"","Fearful","images/20_Fearful_med_med_2_tab20_decend_smlg_dot.png",NA,NA
NA,"<div style=""width:500px;"">
                            <p style=""font-size:50px; font-weight:bold;""
                            >Fearful</p>
                            <div style=""width:480px; margin: auto;"">
                                <img src=""images/20_Fearful_hi_hi_2_tab20_ascend_lgsm_dot.png"" width=""480"" height=""420"" style=""object-fit:contain;"">
                            </div>
                        </div>","46","html-slider-response",37,200438,"0.0-31.0","c8dhga6mt1",19,"","","","","","",0,"",NA,"","Fearful","images/20_Fearful_hi_hi_2_tab20_ascend_lgsm_dot.png",NA,NA
NA,"<div style=""width:500px;"">
                            <p style=""font-size:50px; font-weight:bold;""
                            >Fearful</p>
                            <div style=""width:480px; margin: auto;"">
                                <img src=""images/20_Fearful_hi_hi_3_tab10new_decend_lgsm_dot.png"" width=""480"" height=""420"" style=""object-fit:contain;"">
                            </div>
                        </div>","79","html-slider-response",38,202741,"0.0-32.0","c8dhga6mt1",19,"","","","","","",0,"",NA,"","Fearful","images/20_Fearful_hi_hi_3_tab10new_decend_lgsm_dot.png",NA,NA
NA,"<div style=""width:500px;"">
                            <p style=""font-size:50px; font-weight:bold;""
                            >Fearful</p>
                            <div style=""width:480px; margin: auto;"">
                                <img src=""images/20_Fearful_med_lo_1_Pastel1_ascend_smlg_dot.png"" width=""480"" height=""420"" style=""object-fit:contain;"">
                            </div>
                        </div>","-159","html-slider-response",39,204811,"0.0-33.0","c8dhga6mt1",19,"","","","","","",0,"",NA,"","Fearful","images/20_Fearful_med_lo_1_Pastel1_ascend_smlg_dot.png",NA,NA
NA,"<div style=""width:500px;"">
                            <p style=""font-size:50px; font-weight:bold;""
                            >Fearful</p>
                            <div style=""width:480px; margin: auto;"">
                                <img src=""images/20_Fearful_hi_hi_3_tab10new_decend_smlg_dot.png"" width=""480"" height=""420"" style=""object-fit:contain;"">
                            </div>
                        </div>","-86","html-slider-response",40,207619,"0.0-34.0","c8dhga6mt1",19,"","","","","","",0,"",NA,"","Fearful","images/20_Fearful_hi_hi_3_tab10new_decend_smlg_dot.png",NA,NA
NA,"<div style=""width:500px;"">
                            <p style=""font-size:50px; font-weight:bold;""
                            >Fearful</p>
                            <div style=""width:480px; margin: auto;"">
                                <img src=""images/20_Fearful_lo_lo_1_Pastel1_ascend_lgsm_dot.png"" width=""480"" height=""420"" style=""object-fit:contain;"">
                            </div>
                        </div>","-123","html-slider-response",41,210605,"0.0-35.0","c8dhga6mt1",19,"","","","","","",0,"",NA,"","Fearful","images/20_Fearful_lo_lo_1_Pastel1_ascend_lgsm_dot.png",NA,NA
NA,"<div style=""width:500px;"">
                            <p style=""font-size:50px; font-weight:bold;""
                            >Fearful</p>
                            <div style=""width:480px; margin: auto;"">
                                <img src=""images/20_Fearful_med_med_1_tab20c_ascend_smlg_dot.png"" width=""480"" height=""420"" style=""object-fit:contain;"">
                            </div>
                        </div>","-49","html-slider-response",42,215911,"0.0-36.0","c8dhga6mt1",19,"","","","","","",0,"",NA,"","Fearful","images/20_Fearful_med_med_1_tab20c_ascend_smlg_dot.png",NA,NA
NA,"<div style=""width:500px;"">
                            <p style=""font-size:50px; font-weight:bold;""
                            >Fearful</p>
                            <div style=""width:480px; margin: auto;"">
                                <img src=""images/20_Fearful_lo_lo_3_tab20c_ascend_smlg_dot.png"" width=""480"" height=""420"" style=""object-fit:contain;"">
                            </div>
                        </div>","-2","html-slider-response",43,218922,"0.0-37.0","c8dhga6mt1",19,"","","","","","",0,"",NA,"","Fearful","images/20_Fearful_lo_lo_3_tab20c_ascend_smlg_dot.png",NA,NA
NA,"<div style=""width:500px;"">
                            <p style=""font-size:50px; font-weight:bold;""
                            >Fearful</p>
                            <div style=""width:480px; margin: auto;"">
                                <img src=""images/20_Fearful_hi_lo_3_Accent_decend_lgsm_dot.png"" width=""480"" height=""420"" style=""object-fit:contain;"">
                            </div>
                        </div>","-96","html-slider-response",44,221080,"0.0-38.0","c8dhga6mt1",19,"","","","","","",0,"",NA,"","Fearful","images/20_Fearful_hi_lo_3_Accent_decend_lgsm_dot.png",NA,NA
NA,"<div style=""width:500px;"">
                            <p style=""font-size:50px; font-weight:bold;""
                            >Fearful</p>
                            <div style=""width:480px; margin: auto;"">
                                <img src=""images/20_Fearful_lo_lo_2_Set3_ascend_lgsm_dot.png"" width=""480"" height=""420"" style=""object-fit:contain;"">
                            </div>
                        </div>","-114","html-slider-response",45,222755,"0.0-39.0","c8dhga6mt1",19,"","","","","","",0,"",NA,"","Fearful","images/20_Fearful_lo_lo_2_Set3_ascend_lgsm_dot.png",NA,NA
NA,"<div style=""width:500px;"">
                            <p style=""font-size:50px; font-weight:bold;""
                            >Fearful</p>
                            <div style=""width:480px; margin: auto;"">
                                <img src=""images/20_Fearful_lo_lo_2_Set3_decend_lgsm_dot.png"" width=""480"" height=""420"" style=""object-fit:contain;"">
                            </div>
                        </div>","-62","html-slider-response",46,225105,"0.0-40.0","c8dhga6mt1",19,"","","","","","",0,"",NA,"","Fearful","images/20_Fearful_lo_lo_2_Set3_decend_lgsm_dot.png",NA,NA
NA,"<div style=""width:500px;"">
                            <p style=""font-size:50px; font-weight:bold;""
                            >Fearful</p>
                            <div style=""width:480px; margin: auto;"">
                                <img src=""images/20_Fearful_hi_lo_3_Accent_ascend_lgsm_dot.png"" width=""480"" height=""420"" style=""object-fit:contain;"">
                            </div>
                        </div>","-83","html-slider-response",47,226771,"0.0-41.0","c8dhga6mt1",19,"","","","","","",0,"",NA,"","Fearful","images/20_Fearful_hi_lo_3_Accent_ascend_lgsm_dot.png",NA,NA
NA,"<div style=""width:500px;"">
                            <p style=""font-size:50px; font-weight:bold;""
                            >Fearful</p>
                            <div style=""width:480px; margin: auto;"">
                                <img src=""images/20_Fearful_hi_lo_2_tab20b_decend_lgsm_dot.png"" width=""480"" height=""420"" style=""object-fit:contain;"">
                            </div>
                        </div>","-129","html-slider-response",48,228469,"0.0-42.0","c8dhga6mt1",19,"","","","","","",0,"",NA,"","Fearful","images/20_Fearful_hi_lo_2_tab20b_decend_lgsm_dot.png",NA,NA
NA,"<div style=""width:500px;"">
                            <p style=""font-size:50px; font-weight:bold;""
                            >Fearful</p>
                            <div style=""width:480px; margin: auto;"">
                                <img src=""images/20_Fearful_hi_hi_3_tab10new_ascend_smlg_dot.png"" width=""480"" height=""420"" style=""object-fit:contain;"">
                            </div>
                        </div>","-70","html-slider-response",49,230265,"0.0-43.0","c8dhga6mt1",19,"","","","","","",0,"",NA,"","Fearful","images/20_Fearful_hi_hi_3_tab10new_ascend_smlg_dot.png",NA,NA
NA,"<div style=""width:500px;"">
                            <p style=""font-size:50px; font-weight:bold;""
                            >Fearful</p>
                            <div style=""width:480px; margin: auto;"">
                                <img src=""images/20_Fearful_hi_lo_2_tab20b_decend_smlg_dot.png"" width=""480"" height=""420"" style=""object-fit:contain;"">
                            </div>
                        </div>","42","html-slider-response",50,232607,"0.0-44.0","c8dhga6mt1",19,"","","","","","",0,"",NA,"","Fearful","images/20_Fearful_hi_lo_2_tab20b_decend_smlg_dot.png",NA,NA
NA,"<div style=""width:500px;"">
                            <p style=""font-size:50px; font-weight:bold;""
                            >Fearful</p>
                            <div style=""width:480px; margin: auto;"">
                                <img src=""images/20_Fearful_med_med_3_tab20b_decend_lgsm_dot.png"" width=""480"" height=""420"" style=""object-fit:contain;"">
                            </div>
                        </div>","-58","html-slider-response",51,234424,"0.0-45.0","c8dhga6mt1",19,"","","","","","",0,"",NA,"","Fearful","images/20_Fearful_med_med_3_tab20b_decend_lgsm_dot.png",NA,NA
NA,"<div style=""width:500px;"">
                            <p style=""font-size:50px; font-weight:bold;""
                            >Fearful</p>
                            <div style=""width:480px; margin: auto;"">
                                <img src=""images/20_Fearful_lo_lo_1_Pastel1_decend_smlg_dot.png"" width=""480"" height=""420"" style=""object-fit:contain;"">
                            </div>
                        </div>","-131","html-slider-response",52,236099,"0.0-46.0","c8dhga6mt1",19,"","","","","","",0,"",NA,"","Fearful","images/20_Fearful_lo_lo_1_Pastel1_decend_smlg_dot.png",NA,NA
NA,"<div style=""width:500px;"">
                            <p style=""font-size:50px; font-weight:bold;""
                            >Fearful</p>
                            <div style=""width:480px; margin: auto;"">
                                <img src=""images/20_Fearful_hi_md_2_tab10new_ascend_lgsm_dot.png"" width=""480"" height=""420"" style=""object-fit:contain;"">
                            </div>
                        </div>","-110","html-slider-response",53,238145,"0.0-47.0","c8dhga6mt1",19,"","","","","","",0,"",NA,"","Fearful","images/20_Fearful_hi_md_2_tab10new_ascend_lgsm_dot.png",NA,NA
NA,"<div style=""width:500px;"">
                            <p style=""font-size:50px; font-weight:bold;""
                            >Fearful</p>
                            <div style=""width:480px; margin: auto;"">
                                <img src=""images/20_Fearful_hi_md_2_tab10new_decend_smlg_dot.png"" width=""480"" height=""420"" style=""object-fit:contain;"">
                            </div>
                        </div>","-101","html-slider-response",54,240044,"0.0-48.0","c8dhga6mt1",19,"","","","","","",0,"",NA,"","Fearful","images/20_Fearful_hi_md_2_tab10new_decend_smlg_dot.png",NA,NA
NA,"<div style=""width:500px;"">
                            <p style=""font-size:50px; font-weight:bold;""
                            >Fearful</p>
                            <div style=""width:480px; margin: auto;"">
                                <img src=""images/20_Fearful_lo_lo_1_Pastel1_decend_lgsm_dot.png"" width=""480"" height=""420"" style=""object-fit:contain;"">
                            </div>
                        </div>","-74","html-slider-response",55,242088,"0.0-49.0","c8dhga6mt1",19,"","","","","","",0,"",NA,"","Fearful","images/20_Fearful_lo_lo_1_Pastel1_decend_lgsm_dot.png",NA,NA
NA,"<div style=""width:500px;"">
                            <p style=""font-size:50px; font-weight:bold;""
                            >Fearful</p>
                            <div style=""width:480px; margin: auto;"">
                                <img src=""images/20_Fearful_med_lo_2_Set3_decend_lgsm_dot.png"" width=""480"" height=""420"" style=""object-fit:contain;"">
                            </div>
                        </div>","-200","html-slider-response",56,246455,"0.0-50.0","c8dhga6mt1",19,"","","","","","",0,"",NA,"","Fearful","images/20_Fearful_med_lo_2_Set3_decend_lgsm_dot.png",NA,NA
NA,"<div style=""width:500px;"">
                            <p style=""font-size:50px; font-weight:bold;""
                            >Fearful</p>
                            <div style=""width:480px; margin: auto;"">
                                <img src=""images/20_Fearful_lo_lo_3_tab20c_ascend_lgsm_dot.png"" width=""480"" height=""420"" style=""object-fit:contain;"">
                            </div>
                        </div>","29","html-slider-response",57,248748,"0.0-51.0","c8dhga6mt1",19,"","","","","","",0,"",NA,"","Fearful","images/20_Fearful_lo_lo_3_tab20c_ascend_lgsm_dot.png",NA,NA
NA,"<div style=""width:500px;"">
                            <p style=""font-size:50px; font-weight:bold;""
                            >Fearful</p>
                            <div style=""width:480px; margin: auto;"">
                                <img src=""images/20_Fearful_hi_lo_2_tab20b_ascend_smlg_dot.png"" width=""480"" height=""420"" style=""object-fit:contain;"">
                            </div>
                        </div>","46","html-slider-response",58,253645,"0.0-52.0","c8dhga6mt1",19,"","","","","","",0,"",NA,"","Fearful","images/20_Fearful_hi_lo_2_tab20b_ascend_smlg_dot.png",NA,NA
NA,"<div style=""width:500px;"">
                            <p style=""font-size:50px; font-weight:bold;""
                            >Fearful</p>
                            <div style=""width:480px; margin: auto;"">
                                <img src=""images/20_Fearful_med_med_2_tab20_ascend_lgsm_dot.png"" width=""480"" height=""420"" style=""object-fit:contain;"">
                            </div>
                        </div>","-190","html-slider-response",59,255601,"0.0-53.0","c8dhga6mt1",19,"","","","","","",0,"",NA,"","Fearful","images/20_Fearful_med_med_2_tab20_ascend_lgsm_dot.png",NA,NA
NA,"<div style=""width:500px;"">
                            <p style=""font-size:50px; font-weight:bold;""
                            >Fearful</p>
                            <div style=""width:480px; margin: auto;"">
                                <img src=""images/20_Fearful_med_lo_3_tab20_ascend_smlg_dot.png"" width=""480"" height=""420"" style=""object-fit:contain;"">
                            </div>
                        </div>","-94","html-slider-response",60,257205,"0.0-54.0","c8dhga6mt1",19,"","","","","","",0,"",NA,"","Fearful","images/20_Fearful_med_lo_3_tab20_ascend_smlg_dot.png",NA,NA
NA,"<div style=""width:500px;"">
                            <p style=""font-size:50px; font-weight:bold;""
                            >Fearful</p>
                            <div style=""width:480px; margin: auto;"">
                                <img src=""images/20_Fearful_hi_lo_2_tab20b_ascend_lgsm_dot.png"" width=""480"" height=""420"" style=""object-fit:contain;"">
                            </div>
                        </div>","13","html-slider-response",61,260211,"0.0-55.0","c8dhga6mt1",19,"","","","","","",0,"",NA,"","Fearful","images/20_Fearful_hi_lo_2_tab20b_ascend_lgsm_dot.png",NA,NA
NA,"<div style=""width:500px;"">
                            <p style=""font-size:50px; font-weight:bold;""
                            >Fearful</p>
                            <div style=""width:480px; margin: auto;"">
                                <img src=""images/20_Fearful_med_med_1_tab20c_decend_smlg_dot.png"" width=""480"" height=""420"" style=""object-fit:contain;"">
                            </div>
                        </div>","-85","html-slider-response",62,261975,"0.0-56.0","c8dhga6mt1",19,"","","","","","",0,"",NA,"","Fearful","images/20_Fearful_med_med_1_tab20c_decend_smlg_dot.png",NA,NA
NA,"<div style=""width:500px;"">
                            <p style=""font-size:50px; font-weight:bold;""
                            >Fearful</p>
                            <div style=""width:480px; margin: auto;"">
                                <img src=""images/20_Fearful_med_med_1_tab20c_decend_lgsm_dot.png"" width=""480"" height=""420"" style=""object-fit:contain;"">
                            </div>
                        </div>","-149","html-slider-response",63,263754,"0.0-57.0","c8dhga6mt1",19,"","","","","","",0,"",NA,"","Fearful","images/20_Fearful_med_med_1_tab20c_decend_lgsm_dot.png",NA,NA
NA,"<div style=""width:500px;"">
                            <p style=""font-size:50px; font-weight:bold;""
                            >Fearful</p>
                            <div style=""width:480px; margin: auto;"">
                                <img src=""images/20_Fearful_med_lo_2_Set3_decend_smlg_dot.png"" width=""480"" height=""420"" style=""object-fit:contain;"">
                            </div>
                        </div>","-200","html-slider-response",64,266138,"0.0-58.0","c8dhga6mt1",19,"","","","","","",0,"",NA,"","Fearful","images/20_Fearful_med_lo_2_Set3_decend_smlg_dot.png",NA,NA
NA,"<div style=""width:500px;"">
                            <p style=""font-size:50px; font-weight:bold;""
                            >Fearful</p>
                            <div style=""width:480px; margin: auto;"">
                                <img src=""images/20_Fearful_hi_hi_1_tab20b_decend_lgsm_dot.png"" width=""480"" height=""420"" style=""object-fit:contain;"">
                            </div>
                        </div>","60","html-slider-response",65,268221,"0.0-59.0","c8dhga6mt1",19,"","","","","","",0,"",NA,"","Fearful","images/20_Fearful_hi_hi_1_tab20b_decend_lgsm_dot.png",NA,NA
NA,"<div style=""width:500px;"">
                            <p style=""font-size:50px; font-weight:bold;""
                            >Fearful</p>
                            <div style=""width:480px; margin: auto;"">
                                <img src=""images/20_Fearful_lo_lo_3_tab20c_decend_lgsm_dot.png"" width=""480"" height=""420"" style=""object-fit:contain;"">
                            </div>
                        </div>","29","html-slider-response",66,270271,"0.0-60.0","c8dhga6mt1",19,"","","","","","",0,"",NA,"","Fearful","images/20_Fearful_lo_lo_3_tab20c_decend_lgsm_dot.png",NA,NA
NA,"<div style=""width:500px;"">
                            <p style=""font-size:50px; font-weight:bold;""
                            >Fearful</p>
                            <div style=""width:480px; margin: auto;"">
                                <img src=""images/20_Fearful_med_lo_3_tab20_decend_lgsm_dot.png"" width=""480"" height=""420"" style=""object-fit:contain;"">
                            </div>
                        </div>","-189","html-slider-response",67,271800,"0.0-61.0","c8dhga6mt1",19,"","","","","","",0,"",NA,"","Fearful","images/20_Fearful_med_lo_3_tab20_decend_lgsm_dot.png",NA,NA
NA,"<div style=""width:500px;"">
                            <p style=""font-size:50px; font-weight:bold;""
                            >Fearful</p>
                            <div style=""width:480px; margin: auto;"">
                                <img src=""images/20_Fearful_med_lo_2_Set3_ascend_lgsm_dot.png"" width=""480"" height=""420"" style=""object-fit:contain;"">
                            </div>
                        </div>","-200","html-slider-response",68,273611,"0.0-62.0","c8dhga6mt1",19,"","","","","","",0,"",NA,"","Fearful","images/20_Fearful_med_lo_2_Set3_ascend_lgsm_dot.png",NA,NA
NA,"<div style=""width:500px;"">
                            <p style=""font-size:50px; font-weight:bold;""
                            >Fearful</p>
                            <div style=""width:480px; margin: auto;"">
                                <img src=""images/20_Fearful_lo_lo_3_tab20c_decend_smlg_dot.png"" width=""480"" height=""420"" style=""object-fit:contain;"">
                            </div>
                        </div>","30","html-slider-response",69,275494,"0.0-63.0","c8dhga6mt1",19,"","","","","","",0,"",NA,"","Fearful","images/20_Fearful_lo_lo_3_tab20c_decend_smlg_dot.png",NA,NA
NA,"<div style=""width:500px;"">
                            <p style=""font-size:50px; font-weight:bold;""
                            >Fearful</p>
                            <div style=""width:480px; margin: auto;"">
                                <img src=""images/20_Fearful_hi_lo_3_Accent_ascend_smlg_dot.png"" width=""480"" height=""420"" style=""object-fit:contain;"">
                            </div>
                        </div>","-78","html-slider-response",70,279305,"0.0-64.0","c8dhga6mt1",19,"","","","","","",0,"",NA,"","Fearful","images/20_Fearful_hi_lo_3_Accent_ascend_smlg_dot.png",NA,NA
NA,"<div style=""width:500px;"">
                            <p style=""font-size:50px; font-weight:bold;""
                            >Fearful</p>
                            <div style=""width:480px; margin: auto;"">
                                <img src=""images/20_Fearful_hi_md_1_tab20b_decend_smlg_dot.png"" width=""480"" height=""420"" style=""object-fit:contain;"">
                            </div>
                        </div>","23","html-slider-response",71,281138,"0.0-65.0","c8dhga6mt1",19,"","","","","","",0,"",NA,"","Fearful","images/20_Fearful_hi_md_1_tab20b_decend_smlg_dot.png",NA,NA
NA,"<div style=""width:500px;"">
                            <p style=""font-size:50px; font-weight:bold;""
                            >Fearful</p>
                            <div style=""width:480px; margin: auto;"">
                                <img src=""images/20_Fearful_hi_md_3_tab20_decend_lgsm_dot.png"" width=""480"" height=""420"" style=""object-fit:contain;"">
                            </div>
                        </div>","-106","html-slider-response",72,284555,"0.0-66.0","c8dhga6mt1",19,"","","","","","",0,"",NA,"","Fearful","images/20_Fearful_hi_md_3_tab20_decend_lgsm_dot.png",NA,NA
NA,"<div style=""width:500px;"">
                            <p style=""font-size:50px; font-weight:bold;""
                            >Fearful</p>
                            <div style=""width:480px; margin: auto;"">
                                <img src=""images/20_Fearful_med_med_2_tab20_ascend_smlg_dot.png"" width=""480"" height=""420"" style=""object-fit:contain;"">
                            </div>
                        </div>","-87","html-slider-response",73,287305,"0.0-67.0","c8dhga6mt1",19,"","","","","","",0,"",NA,"","Fearful","images/20_Fearful_med_med_2_tab20_ascend_smlg_dot.png",NA,NA
NA,"<div style=""width:500px;"">
                            <p style=""font-size:50px; font-weight:bold;""
                            >Fearful</p>
                            <div style=""width:480px; margin: auto;"">
                                <img src=""images/20_Fearful_hi_hi_2_tab20_ascend_smlg_dot.png"" width=""480"" height=""420"" style=""object-fit:contain;"">
                            </div>
                        </div>","40","html-slider-response",74,288905,"0.0-68.0","c8dhga6mt1",19,"","","","","","",0,"",NA,"","Fearful","images/20_Fearful_hi_hi_2_tab20_ascend_smlg_dot.png",NA,NA
NA,"<div style=""width:500px;"">
                            <p style=""font-size:50px; font-weight:bold;""
                            >Fearful</p>
                            <div style=""width:480px; margin: auto;"">
                                <img src=""images/20_Fearful_med_lo_3_tab20_ascend_lgsm_dot.png"" width=""480"" height=""420"" style=""object-fit:contain;"">
                            </div>
                        </div>","-105","html-slider-response",75,290538,"0.0-69.0","c8dhga6mt1",19,"","","","","","",0,"",NA,"","Fearful","images/20_Fearful_med_lo_3_tab20_ascend_lgsm_dot.png",NA,NA
NA,"<div style=""width:500px;"">
                            <p style=""font-size:50px; font-weight:bold;""
                            >Fearful</p>
                            <div style=""width:480px; margin: auto;"">
                                <img src=""images/20_Fearful_med_med_3_tab20b_decend_smlg_dot.png"" width=""480"" height=""420"" style=""object-fit:contain;"">
                            </div>
                        </div>","-117","html-slider-response",76,295554,"0.0-70.0","c8dhga6mt1",19,"","","","","","",0,"",NA,"","Fearful","images/20_Fearful_med_med_3_tab20b_decend_smlg_dot.png",NA,NA
NA,"<div style=""width:500px;"">
                            <p style=""font-size:50px; font-weight:bold;""
                            >Fearful</p>
                            <div style=""width:480px; margin: auto;"">
                                <img src=""images/20_Fearful_med_lo_2_Set3_ascend_smlg_dot.png"" width=""480"" height=""420"" style=""object-fit:contain;"">
                            </div>
                        </div>","-200","html-slider-response",77,298505,"0.0-71.0","c8dhga6mt1",19,"","","","","","",0,"",NA,"","Fearful","images/20_Fearful_med_lo_2_Set3_ascend_smlg_dot.png",NA,NA
NA,"<div style=""width:500px;"">
                            <p style=""font-size:50px; font-weight:bold;""
                            >Fearful</p>
                            <div style=""width:480px; margin: auto;"">
                                <img src=""images/20_Fearful_med_med_3_tab20b_ascend_smlg_dot.png"" width=""480"" height=""420"" style=""object-fit:contain;"">
                            </div>
                        </div>","-92","html-slider-response",78,300707,"0.0-72.0","c8dhga6mt1",19,"","","","","","",0,"",NA,"","Fearful","images/20_Fearful_med_med_3_tab20b_ascend_smlg_dot.png",NA,NA
NA,"<div style=""width:500px;"">
                            <p style=""font-size:50px; font-weight:bold;""
                            >Fearful</p>
                            <div style=""width:480px; margin: auto;"">
                                <img src=""images/20_Fearful_med_med_2_tab20_decend_lgsm_dot.png"" width=""480"" height=""420"" style=""object-fit:contain;"">
                            </div>
                        </div>","-122","html-slider-response",79,303037,"0.0-73.0","c8dhga6mt1",19,"","","","","","",0,"",NA,"","Fearful","images/20_Fearful_med_med_2_tab20_decend_lgsm_dot.png",NA,NA
NA,"<div style=""width:500px;"">
                            <p style=""font-size:50px; font-weight:bold;""
                            >Fearful</p>
                            <div style=""width:480px; margin: auto;"">
                                <img src=""images/20_Fearful_lo_lo_2_Set3_decend_smlg_dot.png"" width=""480"" height=""420"" style=""object-fit:contain;"">
                            </div>
                        </div>","-200","html-slider-response",80,306311,"0.0-74.0","c8dhga6mt1",19,"","","","","","",0,"",NA,"","Fearful","images/20_Fearful_lo_lo_2_Set3_decend_smlg_dot.png",NA,NA
NA,"<div style=""width:500px;"">
                            <p style=""font-size:50px; font-weight:bold;""
                            >Fearful</p>
                            <div style=""width:480px; margin: auto;"">
                                <img src=""images/20_Fearful_hi_md_1_tab20b_ascend_smlg_dot.png"" width=""480"" height=""420"" style=""object-fit:contain;"">
                            </div>
                        </div>","46","html-slider-response",81,308105,"0.0-75.0","c8dhga6mt1",19,"","","","","","",0,"",NA,"","Fearful","images/20_Fearful_hi_md_1_tab20b_ascend_smlg_dot.png",NA,NA
NA,"<div style=""width:500px;"">
                            <p style=""font-size:50px; font-weight:bold;""
                            >Fearful</p>
                            <div style=""width:480px; margin: auto;"">
                                <img src=""images/20_Fearful_lo_lo_2_Set3_ascend_smlg_dot.png"" width=""480"" height=""420"" style=""object-fit:contain;"">
                            </div>
                        </div>","-200","html-slider-response",82,311268,"0.0-76.0","c8dhga6mt1",19,"","","","","","",0,"",NA,"","Fearful","images/20_Fearful_lo_lo_2_Set3_ascend_smlg_dot.png",NA,NA
NA,"<div style=""width:500px;"">
                            <p style=""font-size:50px; font-weight:bold;""
                            >Fearful</p>
                            <div style=""width:480px; margin: auto;"">
                                <img src=""images/20_Fearful_hi_lo_3_Accent_decend_smlg_dot.png"" width=""480"" height=""420"" style=""object-fit:contain;"">
                            </div>
                        </div>","13","html-slider-response",83,312991,"0.0-77.0","c8dhga6mt1",19,"","","","","","",0,"",NA,"","Fearful","images/20_Fearful_hi_lo_3_Accent_decend_smlg_dot.png",NA,NA
NA,"<div style=""width:500px;"">
                            <p style=""font-size:50px; font-weight:bold;""
                            >Fearful</p>
                            <div style=""width:480px; margin: auto;"">
                                <img src=""images/20_Fearful_hi_md_3_tab20_ascend_smlg_dot.png"" width=""480"" height=""420"" style=""object-fit:contain;"">
                            </div>
                        </div>","-57","html-slider-response",84,316221,"0.0-78.0","c8dhga6mt1",19,"","","","","","",0,"",NA,"","Fearful","images/20_Fearful_hi_md_3_tab20_ascend_smlg_dot.png",NA,NA
NA,"<div style=""width:500px;"">
                            <p style=""font-size:50px; font-weight:bold;""
                            >Fearful</p>
                            <div style=""width:480px; margin: auto;"">
                                <img src=""images/20_Fearful_med_lo_1_Pastel1_decend_lgsm_dot.png"" width=""480"" height=""420"" style=""object-fit:contain;"">
                            </div>
                        </div>","-86","html-slider-response",85,318188,"0.0-79.0","c8dhga6mt1",19,"","","","","","",0,"",NA,"","Fearful","images/20_Fearful_med_lo_1_Pastel1_decend_lgsm_dot.png",NA,NA
NA,"<div style=""width:500px;"">
                            <p style=""font-size:50px; font-weight:bold;""
                            >Fearful</p>
                            <div style=""width:480px; margin: auto;"">
                                <img src=""images/20_Fearful_hi_lo_1_tab20_decend_smlg_dot.png"" width=""480"" height=""420"" style=""object-fit:contain;"">
                            </div>
                        </div>","-19","html-slider-response",86,320121,"0.0-80.0","c8dhga6mt1",19,"","","","","","",0,"",NA,"","Fearful","images/20_Fearful_hi_lo_1_tab20_decend_smlg_dot.png",NA,NA
NA,"<div style=""width:500px;"">
                            <p style=""font-size:50px; font-weight:bold;""
                            >Fearful</p>
                            <div style=""width:480px; margin: auto;"">
                                <img src=""images/20_Fearful_hi_md_3_tab20_decend_smlg_dot.png"" width=""480"" height=""420"" style=""object-fit:contain;"">
                            </div>
                        </div>","-36","html-slider-response",87,321666,"0.0-81.0","c8dhga6mt1",19,"","","","","","",0,"",NA,"","Fearful","images/20_Fearful_hi_md_3_tab20_decend_smlg_dot.png",NA,NA
NA,"<div style=""width:500px;"">
                            <p style=""font-size:50px; font-weight:bold;""
                            >Fearful</p>
                            <div style=""width:480px; margin: auto;"">
                                <img src=""images/20_Fearful_hi_hi_1_tab20b_ascend_smlg_dot.png"" width=""480"" height=""420"" style=""object-fit:contain;"">
                            </div>
                        </div>","-30","html-slider-response",88,323757,"0.0-82.0","c8dhga6mt1",19,"","","","","","",0,"",NA,"","Fearful","images/20_Fearful_hi_hi_1_tab20b_ascend_smlg_dot.png",NA,NA
NA,"<div style=""width:500px;"">
                            <p style=""font-size:50px; font-weight:bold;""
                            >Fearful</p>
                            <div style=""width:480px; margin: auto;"">
                                <img src=""images/20_Fearful_hi_hi_2_tab20_decend_lgsm_dot.png"" width=""480"" height=""420"" style=""object-fit:contain;"">
                            </div>
                        </div>","59","html-slider-response",89,329028,"0.0-83.0","c8dhga6mt1",19,"","","","","","",0,"",NA,"","Fearful","images/20_Fearful_hi_hi_2_tab20_decend_lgsm_dot.png",NA,NA
NA,"<div style=""width:500px;"">
                            <p style=""font-size:50px; font-weight:bold;""
                            >Fearful</p>
                            <div style=""width:480px; margin: auto;"">
                                <img src=""images/20_Fearful_hi_hi_3_tab10new_ascend_lgsm_dot.png"" width=""480"" height=""420"" style=""object-fit:contain;"">
                            </div>
                        </div>","-44","html-slider-response",90,330871,"0.0-84.0","c8dhga6mt1",19,"","","","","","",0,"",NA,"","Fearful","images/20_Fearful_hi_hi_3_tab10new_ascend_lgsm_dot.png",NA,NA
NA,"<div style=""width:500px;"">
                            <p style=""font-size:50px; font-weight:bold;""
                            >Fearful</p>
                            <div style=""width:480px; margin: auto;"">
                                <img src=""images/20_Fearful_hi_hi_1_tab20b_ascend_lgsm_dot.png"" width=""480"" height=""420"" style=""object-fit:contain;"">
                            </div>
                        </div>","76","html-slider-response",91,332711,"0.0-85.0","c8dhga6mt1",19,"","","","","","",0,"",NA,"","Fearful","images/20_Fearful_hi_hi_1_tab20b_ascend_lgsm_dot.png",NA,NA
1955,"<p>Great Job! You've finished block 1.<br></br> You have 4 block(s) left to go.<br></br></p>","0","html-button-response",92,335168,"0.0-86.0","c8dhga6mt1",19,"","","","","","",NA,"",NA,"","","",NA,NA
1442,"<p>In this block of trials, you will be asked to rate how much you associate each texture with the concept</p >
                        <p style = 'font-size:150%; font-weight: bold'>Angry</p><br></br>","0","html-button-response",93,336611,"0.0-87.0","c8dhga6mt1",19,"","","","","","",NA,"",NA,"","","",NA,NA
NA,"<div style=""width:500px;"">
                            <p style=""font-size:50px; font-weight:bold;""
                            >Angry</p>
                            <div style=""width:480px; margin: auto;"">
                                <img src=""images/20_Angry_hi_md_1_Set1_ascend_smlg_dot.png"" width=""480"" height=""420"" style=""object-fit:contain;"">
                            </div>
                        </div>","62","html-slider-response",94,339199,"0.0-88.0","c8dhga6mt1",19,"","","","","","",0,"",NA,"","Angry","images/20_Angry_hi_md_1_Set1_ascend_smlg_dot.png",NA,NA
NA,"<div style=""width:500px;"">
                            <p style=""font-size:50px; font-weight:bold;""
                            >Angry</p>
                            <div style=""width:480px; margin: auto;"">
                                <img src=""images/20_Angry_med_lo_2_Pastel2_ascend_smlg_dot.png"" width=""480"" height=""420"" style=""object-fit:contain;"">
                            </div>
                        </div>","-200","html-slider-response",95,341968,"0.0-89.0","c8dhga6mt1",19,"","","","","","",0,"",NA,"","Angry","images/20_Angry_med_lo_2_Pastel2_ascend_smlg_dot.png",NA,NA
NA,"<div style=""width:500px;"">
                            <p style=""font-size:50px; font-weight:bold;""
                            >Angry</p>
                            <div style=""width:480px; margin: auto;"">
                                <img src=""images/20_Angry_hi_md_2_tab20_decend_lgsm_dot.png"" width=""480"" height=""420"" style=""object-fit:contain;"">
                            </div>
                        </div>","70","html-slider-response",96,343838,"0.0-90.0","c8dhga6mt1",19,"","","","","","",0,"",NA,"","Angry","images/20_Angry_hi_md_2_tab20_decend_lgsm_dot.png",NA,NA
NA,"<div style=""width:500px;"">
                            <p style=""font-size:50px; font-weight:bold;""
                            >Angry</p>
                            <div style=""width:480px; margin: auto;"">
                                <img src=""images/20_Angry_med_med_1_tab20b_decend_smlg_dot.png"" width=""480"" height=""420"" style=""object-fit:contain;"">
                            </div>
                        </div>","22","html-slider-response",97,345680,"0.0-91.0","c8dhga6mt1",19,"","","","","","",0,"",NA,"","Angry","images/20_Angry_med_med_1_tab20b_decend_smlg_dot.png",NA,NA
NA,"<div style=""width:500px;"">
                            <p style=""font-size:50px; font-weight:bold;""
                            >Angry</p>
                            <div style=""width:480px; margin: auto;"">
                                <img src=""images/20_Angry_hi_lo_1_tab20_ascend_lgsm_dot.png"" width=""480"" height=""420"" style=""object-fit:contain;"">
                            </div>
                        </div>","27","html-slider-response",98,347505,"0.0-92.0","c8dhga6mt1",19,"","","","","","",0,"",NA,"","Angry","images/20_Angry_hi_lo_1_tab20_ascend_lgsm_dot.png",NA,NA
NA,"<div style=""width:500px;"">
                            <p style=""font-size:50px; font-weight:bold;""
                            >Angry</p>
                            <div style=""width:480px; margin: auto;"">
                                <img src=""images/20_Angry_hi_hi_1_tab20_decend_lgsm_dot.png"" width=""480"" height=""420"" style=""object-fit:contain;"">
                            </div>
                        </div>","76","html-slider-response",99,349988,"0.0-93.0","c8dhga6mt1",19,"","","","","","",0,"",NA,"","Angry","images/20_Angry_hi_hi_1_tab20_decend_lgsm_dot.png",NA,NA
NA,"<div style=""width:500px;"">
                            <p style=""font-size:50px; font-weight:bold;""
                            >Angry</p>
                            <div style=""width:480px; margin: auto;"">
                                <img src=""images/20_Angry_hi_md_2_tab20_ascend_smlg_dot.png"" width=""480"" height=""420"" style=""object-fit:contain;"">
                            </div>
                        </div>","-54","html-slider-response",100,354038,"0.0-94.0","c8dhga6mt1",19,"","","","","","",0,"",NA,"","Angry","images/20_Angry_hi_md_2_tab20_ascend_smlg_dot.png",NA,NA
NA,"<div style=""width:500px;"">
                            <p style=""font-size:50px; font-weight:bold;""
                            >Angry</p>
                            <div style=""width:480px; margin: auto;"">
                                <img src=""images/20_Angry_hi_hi_3_tab10new_decend_lgsm_dot.png"" width=""480"" height=""420"" style=""object-fit:contain;"">
                            </div>
                        </div>","-58","html-slider-response",101,357350,"0.0-95.0","c8dhga6mt1",19,"","","","","","",0,"",NA,"","Angry","images/20_Angry_hi_hi_3_tab10new_decend_lgsm_dot.png",NA,NA
NA,"<div style=""width:500px;"">
                            <p style=""font-size:50px; font-weight:bold;""
                            >Angry</p>
                            <div style=""width:480px; margin: auto;"">
                                <img src=""images/20_Angry_hi_hi_2_Paired_decend_lgsm_dot.png"" width=""480"" height=""420"" style=""object-fit:contain;"">
                            </div>
                        </div>","-50","html-slider-response",102,360671,"0.0-96.0","c8dhga6mt1",19,"","","","","","",0,"",NA,"","Angry","images/20_Angry_hi_hi_2_Paired_decend_lgsm_dot.png",NA,NA
NA,"<div style=""width:500px;"">
                            <p style=""font-size:50px; font-weight:bold;""
                            >Angry</p>
                            <div style=""width:480px; margin: auto;"">
                                <img src=""images/20_Angry_hi_hi_2_Paired_decend_smlg_dot.png"" width=""480"" height=""420"" style=""object-fit:contain;"">
                            </div>
                        </div>","86","html-slider-response",103,362817,"0.0-97.0","c8dhga6mt1",19,"","","","","","",0,"",NA,"","Angry","images/20_Angry_hi_hi_2_Paired_decend_smlg_dot.png",NA,NA
NA,"<div style=""width:500px;"">
                            <p style=""font-size:50px; font-weight:bold;""
                            >Angry</p>
                            <div style=""width:480px; margin: auto;"">
                                <img src=""images/20_Angry_hi_lo_3_Paired_ascend_smlg_dot.png"" width=""480"" height=""420"" style=""object-fit:contain;"">
                            </div>
                        </div>","-31","html-slider-response",104,364791,"0.0-98.0","c8dhga6mt1",19,"","","","","","",0,"",NA,"","Angry","images/20_Angry_hi_lo_3_Paired_ascend_smlg_dot.png",NA,NA
NA,"<div style=""width:500px;"">
                            <p style=""font-size:50px; font-weight:bold;""
                            >Angry</p>
                            <div style=""width:480px; margin: auto;"">
                                <img src=""images/20_Angry_hi_md_2_tab20_ascend_lgsm_dot.png"" width=""480"" height=""420"" style=""object-fit:contain;"">
                            </div>
                        </div>","91","html-slider-response",105,366440,"0.0-99.0","c8dhga6mt1",19,"","","","","","",0,"",NA,"","Angry","images/20_Angry_hi_md_2_tab20_ascend_lgsm_dot.png",NA,NA
NA,"<div style=""width:500px;"">
                            <p style=""font-size:50px; font-weight:bold;""
                            >Angry</p>
                            <div style=""width:480px; margin: auto;"">
                                <img src=""images/20_Angry_med_med_2_Paired_decend_lgsm_dot.png"" width=""480"" height=""420"" style=""object-fit:contain;"">
                            </div>
                        </div>","-39","html-slider-response",106,368276,"0.0-100.0","c8dhga6mt1",19,"","","","","","",0,"",NA,"","Angry","images/20_Angry_med_med_2_Paired_decend_lgsm_dot.png",NA,NA
NA,"<div style=""width:500px;"">
                            <p style=""font-size:50px; font-weight:bold;""
                            >Angry</p>
                            <div style=""width:480px; margin: auto;"">
                                <img src=""images/20_Angry_med_lo_3_Pastel1_ascend_smlg_dot.png"" width=""480"" height=""420"" style=""object-fit:contain;"">
                            </div>
                        </div>","-200","html-slider-response",107,373396,"0.0-101.0","c8dhga6mt1",19,"","","","","","",0,"",NA,"","Angry","images/20_Angry_med_lo_3_Pastel1_ascend_smlg_dot.png",NA,NA
NA,"<div style=""width:500px;"">
                            <p style=""font-size:50px; font-weight:bold;""
                            >Angry</p>
                            <div style=""width:480px; margin: auto;"">
                                <img src=""images/20_Angry_hi_lo_1_tab20_ascend_smlg_dot.png"" width=""480"" height=""420"" style=""object-fit:contain;"">
                            </div>
                        </div>","68","html-slider-response",108,375621,"0.0-102.0","c8dhga6mt1",19,"","","","","","",0,"",NA,"","Angry","images/20_Angry_hi_lo_1_tab20_ascend_smlg_dot.png",NA,NA
NA,"<div style=""width:500px;"">
                            <p style=""font-size:50px; font-weight:bold;""
                            >Angry</p>
                            <div style=""width:480px; margin: auto;"">
                                <img src=""images/20_Angry_hi_md_1_Set1_ascend_lgsm_dot.png"" width=""480"" height=""420"" style=""object-fit:contain;"">
                            </div>
                        </div>","71","html-slider-response",109,377188,"0.0-103.0","c8dhga6mt1",19,"","","","","","",0,"",NA,"","Angry","images/20_Angry_hi_md_1_Set1_ascend_lgsm_dot.png",NA,NA
NA,"<div style=""width:500px;"">
                            <p style=""font-size:50px; font-weight:bold;""
                            >Angry</p>
                            <div style=""width:480px; margin: auto;"">
                                <img src=""images/20_Angry_med_med_3_Set1_decend_smlg_dot.png"" width=""480"" height=""420"" style=""object-fit:contain;"">
                            </div>
                        </div>","-106","html-slider-response",110,379765,"0.0-104.0","c8dhga6mt1",19,"","","","","","",0,"",NA,"","Angry","images/20_Angry_med_med_3_Set1_decend_smlg_dot.png",NA,NA
NA,"<div style=""width:500px;"">
                            <p style=""font-size:50px; font-weight:bold;""
                            >Angry</p>
                            <div style=""width:480px; margin: auto;"">
                                <img src=""images/20_Angry_med_med_3_Set1_ascend_lgsm_dot.png"" width=""480"" height=""420"" style=""object-fit:contain;"">
                            </div>
                        </div>","-200","html-slider-response",111,381440,"0.0-105.0","c8dhga6mt1",19,"","","","","","",0,"",NA,"","Angry","images/20_Angry_med_med_3_Set1_ascend_lgsm_dot.png",NA,NA
NA,"<div style=""width:500px;"">
                            <p style=""font-size:50px; font-weight:bold;""
                            >Angry</p>
                            <div style=""width:480px; margin: auto;"">
                                <img src=""images/20_Angry_lo_lo_3_Pastel2_ascend_lgsm_dot.png"" width=""480"" height=""420"" style=""object-fit:contain;"">
                            </div>
                        </div>","-200","html-slider-response",112,383645,"0.0-106.0","c8dhga6mt1",19,"","","","","","",0,"",NA,"","Angry","images/20_Angry_lo_lo_3_Pastel2_ascend_lgsm_dot.png",NA,NA
NA,"<div style=""width:500px;"">
                            <p style=""font-size:50px; font-weight:bold;""
                            >Angry</p>
                            <div style=""width:480px; margin: auto;"">
                                <img src=""images/20_Angry_hi_hi_1_tab20_ascend_lgsm_dot.png"" width=""480"" height=""420"" style=""object-fit:contain;"">
                            </div>
                        </div>","58","html-slider-response",113,385688,"0.0-107.0","c8dhga6mt1",19,"","","","","","",0,"",NA,"","Angry","images/20_Angry_hi_hi_1_tab20_ascend_lgsm_dot.png",NA,NA
NA,"<div style=""width:500px;"">
                            <p style=""font-size:50px; font-weight:bold;""
                            >Angry</p>
                            <div style=""width:480px; margin: auto;"">
                                <img src=""images/20_Angry_med_med_3_Set1_ascend_smlg_dot.png"" width=""480"" height=""420"" style=""object-fit:contain;"">
                            </div>
                        </div>","-200","html-slider-response",114,387784,"0.0-108.0","c8dhga6mt1",19,"","","","","","",0,"",NA,"","Angry","images/20_Angry_med_med_3_Set1_ascend_smlg_dot.png",NA,NA
NA,"<div style=""width:500px;"">
                            <p style=""font-size:50px; font-weight:bold;""
                            >Angry</p>
                            <div style=""width:480px; margin: auto;"">
                                <img src=""images/20_Angry_hi_lo_2_tab20c_decend_smlg_dot.png"" width=""480"" height=""420"" style=""object-fit:contain;"">
                            </div>
                        </div>","-45","html-slider-response",115,389766,"0.0-109.0","c8dhga6mt1",19,"","","","","","",0,"",NA,"","Angry","images/20_Angry_hi_lo_2_tab20c_decend_smlg_dot.png",NA,NA
NA,"<div style=""width:500px;"">
                            <p style=""font-size:50px; font-weight:bold;""
                            >Angry</p>
                            <div style=""width:480px; margin: auto;"">
                                <img src=""images/20_Angry_hi_hi_2_Paired_ascend_lgsm_dot.png"" width=""480"" height=""420"" style=""object-fit:contain;"">
                            </div>
                        </div>","-73","html-slider-response",116,392420,"0.0-110.0","c8dhga6mt1",19,"","","","","","",0,"",NA,"","Angry","images/20_Angry_hi_hi_2_Paired_ascend_lgsm_dot.png",NA,NA
NA,"<div style=""width:500px;"">
                            <p style=""font-size:50px; font-weight:bold;""
                            >Angry</p>
                            <div style=""width:480px; margin: auto;"">
                                <img src=""images/20_Angry_lo_lo_2_Pastel1_ascend_lgsm_dot.png"" width=""480"" height=""420"" style=""object-fit:contain;"">
                            </div>
                        </div>","-200","html-slider-response",117,394671,"0.0-111.0","c8dhga6mt1",19,"","","","","","",0,"",NA,"","Angry","images/20_Angry_lo_lo_2_Pastel1_ascend_lgsm_dot.png",NA,NA
NA,"<div style=""width:500px;"">
                            <p style=""font-size:50px; font-weight:bold;""
                            >Angry</p>
                            <div style=""width:480px; margin: auto;"">
                                <img src=""images/20_Angry_lo_lo_2_Pastel1_decend_lgsm_dot.png"" width=""480"" height=""420"" style=""object-fit:contain;"">
                            </div>
                        </div>","-200","html-slider-response",118,396904,"0.0-112.0","c8dhga6mt1",19,"","","","","","",0,"",NA,"","Angry","images/20_Angry_lo_lo_2_Pastel1_decend_lgsm_dot.png",NA,NA
NA,"<div style=""width:500px;"">
                            <p style=""font-size:50px; font-weight:bold;""
                            >Angry</p>
                            <div style=""width:480px; margin: auto;"">
                                <img src=""images/20_Angry_hi_md_2_tab20_decend_smlg_dot.png"" width=""480"" height=""420"" style=""object-fit:contain;"">
                            </div>
                        </div>","54","html-slider-response",119,399121,"0.0-113.0","c8dhga6mt1",19,"","","","","","",0,"",NA,"","Angry","images/20_Angry_hi_md_2_tab20_decend_smlg_dot.png",NA,NA
NA,"<div style=""width:500px;"">
                            <p style=""font-size:50px; font-weight:bold;""
                            >Angry</p>
                            <div style=""width:480px; margin: auto;"">
                                <img src=""images/20_Angry_hi_md_3_Paired_ascend_lgsm_dot.png"" width=""480"" height=""420"" style=""object-fit:contain;"">
                            </div>
                        </div>","71","html-slider-response",120,401038,"0.0-114.0","c8dhga6mt1",19,"","","","","","",0,"",NA,"","Angry","images/20_Angry_hi_md_3_Paired_ascend_lgsm_dot.png",NA,NA
NA,"<div style=""width:500px;"">
                            <p style=""font-size:50px; font-weight:bold;""
                            >Angry</p>
                            <div style=""width:480px; margin: auto;"">
                                <img src=""images/20_Angry_med_lo_1_tab20c_decend_smlg_dot.png"" width=""480"" height=""420"" style=""object-fit:contain;"">
                            </div>
                        </div>","-200","html-slider-response",121,403256,"0.0-115.0","c8dhga6mt1",19,"","","","","","",0,"",NA,"","Angry","images/20_Angry_med_lo_1_tab20c_decend_smlg_dot.png",NA,NA
NA,"<div style=""width:500px;"">
                            <p style=""font-size:50px; font-weight:bold;""
                            >Angry</p>
                            <div style=""width:480px; margin: auto;"">
                                <img src=""images/20_Angry_hi_lo_3_Paired_decend_lgsm_dot.png"" width=""480"" height=""420"" style=""object-fit:contain;"">
                            </div>
                        </div>","79","html-slider-response",122,405090,"0.0-116.0","c8dhga6mt1",19,"","","","","","",0,"",NA,"","Angry","images/20_Angry_hi_lo_3_Paired_decend_lgsm_dot.png",NA,NA
NA,"<div style=""width:500px;"">
                            <p style=""font-size:50px; font-weight:bold;""
                            >Angry</p>
                            <div style=""width:480px; margin: auto;"">
                                <img src=""images/20_Angry_med_lo_2_Pastel2_ascend_lgsm_dot.png"" width=""480"" height=""420"" style=""object-fit:contain;"">
                            </div>
                        </div>","-200","html-slider-response",123,407883,"0.0-117.0","c8dhga6mt1",19,"","","","","","",0,"",NA,"","Angry","images/20_Angry_med_lo_2_Pastel2_ascend_lgsm_dot.png",NA,NA
NA,"<div style=""width:500px;"">
                            <p style=""font-size:50px; font-weight:bold;""
                            >Angry</p>
                            <div style=""width:480px; margin: auto;"">
                                <img src=""images/20_Angry_med_lo_1_tab20c_ascend_lgsm_dot.png"" width=""480"" height=""420"" style=""object-fit:contain;"">
                            </div>
                        </div>","-200","html-slider-response",124,410121,"0.0-118.0","c8dhga6mt1",19,"","","","","","",0,"",NA,"","Angry","images/20_Angry_med_lo_1_tab20c_ascend_lgsm_dot.png",NA,NA
NA,"<div style=""width:500px;"">
                            <p style=""font-size:50px; font-weight:bold;""
                            >Angry</p>
                            <div style=""width:480px; margin: auto;"">
                                <img src=""images/20_Angry_hi_lo_1_tab20_decend_lgsm_dot.png"" width=""480"" height=""420"" style=""object-fit:contain;"">
                            </div>
                        </div>","46","html-slider-response",125,412571,"0.0-119.0","c8dhga6mt1",19,"","","","","","",0,"",NA,"","Angry","images/20_Angry_hi_lo_1_tab20_decend_lgsm_dot.png",NA,NA
NA,"<div style=""width:500px;"">
                            <p style=""font-size:50px; font-weight:bold;""
                            >Angry</p>
                            <div style=""width:480px; margin: auto;"">
                                <img src=""images/20_Angry_hi_hi_1_tab20_decend_smlg_dot.png"" width=""480"" height=""420"" style=""object-fit:contain;"">
                            </div>
                        </div>","89","html-slider-response",126,414555,"0.0-120.0","c8dhga6mt1",19,"","","","","","",0,"",NA,"","Angry","images/20_Angry_hi_hi_1_tab20_decend_smlg_dot.png",NA,NA
NA,"<div style=""width:500px;"">
                            <p style=""font-size:50px; font-weight:bold;""
                            >Angry</p>
                            <div style=""width:480px; margin: auto;"">
                                <img src=""images/20_Angry_hi_hi_3_tab10new_decend_smlg_dot.png"" width=""480"" height=""420"" style=""object-fit:contain;"">
                            </div>
                        </div>","81","html-slider-response",127,416737,"0.0-121.0","c8dhga6mt1",19,"","","","","","",0,"",NA,"","Angry","images/20_Angry_hi_hi_3_tab10new_decend_smlg_dot.png",NA,NA
NA,"<div style=""width:500px;"">
                            <p style=""font-size:50px; font-weight:bold;""
                            >Angry</p>
                            <div style=""width:480px; margin: auto;"">
                                <img src=""images/20_Angry_lo_lo_3_Pastel2_decend_smlg_dot.png"" width=""480"" height=""420"" style=""object-fit:contain;"">
                            </div>
                        </div>","-92","html-slider-response",128,418421,"0.0-122.0","c8dhga6mt1",19,"","","","","","",0,"",NA,"","Angry","images/20_Angry_lo_lo_3_Pastel2_decend_smlg_dot.png",NA,NA
NA,"<div style=""width:500px;"">
                            <p style=""font-size:50px; font-weight:bold;""
                            >Angry</p>
                            <div style=""width:480px; margin: auto;"">
                                <img src=""images/20_Angry_hi_md_3_Paired_decend_smlg_dot.png"" width=""480"" height=""420"" style=""object-fit:contain;"">
                            </div>
                        </div>","-167","html-slider-response",129,420227,"0.0-123.0","c8dhga6mt1",19,"","","","","","",0,"",NA,"","Angry","images/20_Angry_hi_md_3_Paired_decend_smlg_dot.png",NA,NA
NA,"<div style=""width:500px;"">
                            <p style=""font-size:50px; font-weight:bold;""
                            >Angry</p>
                            <div style=""width:480px; margin: auto;"">
                                <img src=""images/20_Angry_hi_lo_3_Paired_decend_smlg_dot.png"" width=""480"" height=""420"" style=""object-fit:contain;"">
                            </div>
                        </div>","62","html-slider-response",130,422394,"0.0-124.0","c8dhga6mt1",19,"","","","","","",0,"",NA,"","Angry","images/20_Angry_hi_lo_3_Paired_decend_smlg_dot.png",NA,NA
NA,"<div style=""width:500px;"">
                            <p style=""font-size:50px; font-weight:bold;""
                            >Angry</p>
                            <div style=""width:480px; margin: auto;"">
                                <img src=""images/20_Angry_med_med_2_Paired_ascend_smlg_dot.png"" width=""480"" height=""420"" style=""object-fit:contain;"">
                            </div>
                        </div>","-68","html-slider-response",131,424150,"0.0-125.0","c8dhga6mt1",19,"","","","","","",0,"",NA,"","Angry","images/20_Angry_med_med_2_Paired_ascend_smlg_dot.png",NA,NA
NA,"<div style=""width:500px;"">
                            <p style=""font-size:50px; font-weight:bold;""
                            >Angry</p>
                            <div style=""width:480px; margin: auto;"">
                                <img src=""images/20_Angry_med_lo_2_Pastel2_decend_smlg_dot.png"" width=""480"" height=""420"" style=""object-fit:contain;"">
                            </div>
                        </div>","-200","html-slider-response",132,426444,"0.0-126.0","c8dhga6mt1",19,"","","","","","",0,"",NA,"","Angry","images/20_Angry_med_lo_2_Pastel2_decend_smlg_dot.png",NA,NA
NA,"<div style=""width:500px;"">
                            <p style=""font-size:50px; font-weight:bold;""
                            >Angry</p>
                            <div style=""width:480px; margin: auto;"">
                                <img src=""images/20_Angry_hi_lo_2_tab20c_ascend_smlg_dot.png"" width=""480"" height=""420"" style=""object-fit:contain;"">
                            </div>
                        </div>","-43","html-slider-response",133,428327,"0.0-127.0","c8dhga6mt1",19,"","","","","","",0,"",NA,"","Angry","images/20_Angry_hi_lo_2_tab20c_ascend_smlg_dot.png",NA,NA
NA,"<div style=""width:500px;"">
                            <p style=""font-size:50px; font-weight:bold;""
                            >Angry</p>
                            <div style=""width:480px; margin: auto;"">
                                <img src=""images/20_Angry_med_lo_1_tab20c_decend_lgsm_dot.png"" width=""480"" height=""420"" style=""object-fit:contain;"">
                            </div>
                        </div>","-82","html-slider-response",134,430004,"0.0-128.0","c8dhga6mt1",19,"","","","","","",0,"",NA,"","Angry","images/20_Angry_med_lo_1_tab20c_decend_lgsm_dot.png",NA,NA
NA,"<div style=""width:500px;"">
                            <p style=""font-size:50px; font-weight:bold;""
                            >Angry</p>
                            <div style=""width:480px; margin: auto;"">
                                <img src=""images/20_Angry_med_lo_2_Pastel2_decend_lgsm_dot.png"" width=""480"" height=""420"" style=""object-fit:contain;"">
                            </div>
                        </div>","-182","html-slider-response",135,431815,"0.0-129.0","c8dhga6mt1",19,"","","","","","",0,"",NA,"","Angry","images/20_Angry_med_lo_2_Pastel2_decend_lgsm_dot.png",NA,NA
NA,"<div style=""width:500px;"">
                            <p style=""font-size:50px; font-weight:bold;""
                            >Angry</p>
                            <div style=""width:480px; margin: auto;"">
                                <img src=""images/20_Angry_hi_md_1_Set1_decend_smlg_dot.png"" width=""480"" height=""420"" style=""object-fit:contain;"">
                            </div>
                        </div>","59","html-slider-response",136,434405,"0.0-130.0","c8dhga6mt1",19,"","","","","","",0,"",NA,"","Angry","images/20_Angry_hi_md_1_Set1_decend_smlg_dot.png",NA,NA
NA,"<div style=""width:500px;"">
                            <p style=""font-size:50px; font-weight:bold;""
                            >Angry</p>
                            <div style=""width:480px; margin: auto;"">
                                <img src=""images/20_Angry_hi_md_3_Paired_ascend_smlg_dot.png"" width=""480"" height=""420"" style=""object-fit:contain;"">
                            </div>
                        </div>","-56","html-slider-response",137,436613,"0.0-131.0","c8dhga6mt1",19,"","","","","","",0,"",NA,"","Angry","images/20_Angry_hi_md_3_Paired_ascend_smlg_dot.png",NA,NA
NA,"<div style=""width:500px;"">
                            <p style=""font-size:50px; font-weight:bold;""
                            >Angry</p>
                            <div style=""width:480px; margin: auto;"">
                                <img src=""images/20_Angry_lo_lo_3_Pastel2_decend_lgsm_dot.png"" width=""480"" height=""420"" style=""object-fit:contain;"">
                            </div>
                        </div>","-200","html-slider-response",138,441815,"0.0-132.0","c8dhga6mt1",19,"","","","","","",0,"",NA,"","Angry","images/20_Angry_lo_lo_3_Pastel2_decend_lgsm_dot.png",NA,NA
NA,"<div style=""width:500px;"">
                            <p style=""font-size:50px; font-weight:bold;""
                            >Angry</p>
                            <div style=""width:480px; margin: auto;"">
                                <img src=""images/20_Angry_hi_hi_2_Paired_ascend_smlg_dot.png"" width=""480"" height=""420"" style=""object-fit:contain;"">
                            </div>
                        </div>","100","html-slider-response",139,444171,"0.0-133.0","c8dhga6mt1",19,"","","","","","",0,"",NA,"","Angry","images/20_Angry_hi_hi_2_Paired_ascend_smlg_dot.png",NA,NA
NA,"<div style=""width:500px;"">
                            <p style=""font-size:50px; font-weight:bold;""
                            >Angry</p>
                            <div style=""width:480px; margin: auto;"">
                                <img src=""images/20_Angry_hi_lo_3_Paired_ascend_lgsm_dot.png"" width=""480"" height=""420"" style=""object-fit:contain;"">
                            </div>
                        </div>","-57","html-slider-response",140,446121,"0.0-134.0","c8dhga6mt1",19,"","","","","","",0,"",NA,"","Angry","images/20_Angry_hi_lo_3_Paired_ascend_lgsm_dot.png",NA,NA
NA,"<div style=""width:500px;"">
                            <p style=""font-size:50px; font-weight:bold;""
                            >Angry</p>
                            <div style=""width:480px; margin: auto;"">
                                <img src=""images/20_Angry_med_lo_3_Pastel1_decend_smlg_dot.png"" width=""480"" height=""420"" style=""object-fit:contain;"">
                            </div>
                        </div>","-193","html-slider-response",141,448047,"0.0-135.0","c8dhga6mt1",19,"","","","","","",0,"",NA,"","Angry","images/20_Angry_med_lo_3_Pastel1_decend_smlg_dot.png",NA,NA
NA,"<div style=""width:500px;"">
                            <p style=""font-size:50px; font-weight:bold;""
                            >Angry</p>
                            <div style=""width:480px; margin: auto;"">
                                <img src=""images/20_Angry_hi_md_1_Set1_decend_lgsm_dot.png"" width=""480"" height=""420"" style=""object-fit:contain;"">
                            </div>
                        </div>","76","html-slider-response",142,449855,"0.0-136.0","c8dhga6mt1",19,"","","","","","",0,"",NA,"","Angry","images/20_Angry_hi_md_1_Set1_decend_lgsm_dot.png",NA,NA
NA,"<div style=""width:500px;"">
                            <p style=""font-size:50px; font-weight:bold;""
                            >Angry</p>
                            <div style=""width:480px; margin: auto;"">
                                <img src=""images/20_Angry_lo_lo_1_tab20c_decend_lgsm_dot.png"" width=""480"" height=""420"" style=""object-fit:contain;"">
                            </div>
                        </div>","-154","html-slider-response",143,451452,"0.0-137.0","c8dhga6mt1",19,"","","","","","",0,"",NA,"","Angry","images/20_Angry_lo_lo_1_tab20c_decend_lgsm_dot.png",NA,NA
NA,"<div style=""width:500px;"">
                            <p style=""font-size:50px; font-weight:bold;""
                            >Angry</p>
                            <div style=""width:480px; margin: auto;"">
                                <img src=""images/20_Angry_med_med_2_Paired_decend_smlg_dot.png"" width=""480"" height=""420"" style=""object-fit:contain;"">
                            </div>
                        </div>","-70","html-slider-response",144,453738,"0.0-138.0","c8dhga6mt1",19,"","","","","","",0,"",NA,"","Angry","images/20_Angry_med_med_2_Paired_decend_smlg_dot.png",NA,NA
NA,"<div style=""width:500px;"">
                            <p style=""font-size:50px; font-weight:bold;""
                            >Angry</p>
                            <div style=""width:480px; margin: auto;"">
                                <img src=""images/20_Angry_hi_hi_1_tab20_ascend_smlg_dot.png"" width=""480"" height=""420"" style=""object-fit:contain;"">
                            </div>
                        </div>","141","html-slider-response",145,455704,"0.0-139.0","c8dhga6mt1",19,"","","","","","",0,"",NA,"","Angry","images/20_Angry_hi_hi_1_tab20_ascend_smlg_dot.png",NA,NA
NA,"<div style=""width:500px;"">
                            <p style=""font-size:50px; font-weight:bold;""
                            >Angry</p>
                            <div style=""width:480px; margin: auto;"">
                                <img src=""images/20_Angry_hi_lo_2_tab20c_ascend_lgsm_dot.png"" width=""480"" height=""420"" style=""object-fit:contain;"">
                            </div>
                        </div>","48","html-slider-response",146,457554,"0.0-140.0","c8dhga6mt1",19,"","","","","","",0,"",NA,"","Angry","images/20_Angry_hi_lo_2_tab20c_ascend_lgsm_dot.png",NA,NA
NA,"<div style=""width:500px;"">
                            <p style=""font-size:50px; font-weight:bold;""
                            >Angry</p>
                            <div style=""width:480px; margin: auto;"">
                                <img src=""images/20_Angry_med_med_1_tab20b_ascend_lgsm_dot.png"" width=""480"" height=""420"" style=""object-fit:contain;"">
                            </div>
                        </div>","-74","html-slider-response",147,459320,"0.0-141.0","c8dhga6mt1",19,"","","","","","",0,"",NA,"","Angry","images/20_Angry_med_med_1_tab20b_ascend_lgsm_dot.png",NA,NA
NA,"<div style=""width:500px;"">
                            <p style=""font-size:50px; font-weight:bold;""
                            >Angry</p>
                            <div style=""width:480px; margin: auto;"">
                                <img src=""images/20_Angry_lo_lo_2_Pastel1_decend_smlg_dot.png"" width=""480"" height=""420"" style=""object-fit:contain;"">
                            </div>
                        </div>","-200","html-slider-response",148,461244,"0.0-142.0","c8dhga6mt1",19,"","","","","","",0,"",NA,"","Angry","images/20_Angry_lo_lo_2_Pastel1_decend_smlg_dot.png",NA,NA
NA,"<div style=""width:500px;"">
                            <p style=""font-size:50px; font-weight:bold;""
                            >Angry</p>
                            <div style=""width:480px; margin: auto;"">
                                <img src=""images/20_Angry_med_lo_3_Pastel1_ascend_lgsm_dot.png"" width=""480"" height=""420"" style=""object-fit:contain;"">
                            </div>
                        </div>","-200","html-slider-response",149,463111,"0.0-143.0","c8dhga6mt1",19,"","","","","","",0,"",NA,"","Angry","images/20_Angry_med_lo_3_Pastel1_ascend_lgsm_dot.png",NA,NA
NA,"<div style=""width:500px;"">
                            <p style=""font-size:50px; font-weight:bold;""
                            >Angry</p>
                            <div style=""width:480px; margin: auto;"">
                                <img src=""images/20_Angry_lo_lo_1_tab20c_decend_smlg_dot.png"" width=""480"" height=""420"" style=""object-fit:contain;"">
                            </div>
                        </div>","-200","html-slider-response",150,465607,"0.0-144.0","c8dhga6mt1",19,"","","","","","",0,"",NA,"","Angry","images/20_Angry_lo_lo_1_tab20c_decend_smlg_dot.png",NA,NA
NA,"<div style=""width:500px;"">
                            <p style=""font-size:50px; font-weight:bold;""
                            >Angry</p>
                            <div style=""width:480px; margin: auto;"">
                                <img src=""images/20_Angry_lo_lo_1_tab20c_ascend_lgsm_dot.png"" width=""480"" height=""420"" style=""object-fit:contain;"">
                            </div>
                        </div>","-200","html-slider-response",151,467428,"0.0-145.0","c8dhga6mt1",19,"","","","","","",0,"",NA,"","Angry","images/20_Angry_lo_lo_1_tab20c_ascend_lgsm_dot.png",NA,NA
NA,"<div style=""width:500px;"">
                            <p style=""font-size:50px; font-weight:bold;""
                            >Angry</p>
                            <div style=""width:480px; margin: auto;"">
                                <img src=""images/20_Angry_lo_lo_1_tab20c_ascend_smlg_dot.png"" width=""480"" height=""420"" style=""object-fit:contain;"">
                            </div>
                        </div>","-200","html-slider-response",152,469394,"0.0-146.0","c8dhga6mt1",19,"","","","","","",0,"",NA,"","Angry","images/20_Angry_lo_lo_1_tab20c_ascend_smlg_dot.png",NA,NA
NA,"<div style=""width:500px;"">
                            <p style=""font-size:50px; font-weight:bold;""
                            >Angry</p>
                            <div style=""width:480px; margin: auto;"">
                                <img src=""images/20_Angry_med_med_1_tab20b_decend_lgsm_dot.png"" width=""480"" height=""420"" style=""object-fit:contain;"">
                            </div>
                        </div>","-54","html-slider-response",153,471221,"0.0-147.0","c8dhga6mt1",19,"","","","","","",0,"",NA,"","Angry","images/20_Angry_med_med_1_tab20b_decend_lgsm_dot.png",NA,NA
NA,"<div style=""width:500px;"">
                            <p style=""font-size:50px; font-weight:bold;""
                            >Angry</p>
                            <div style=""width:480px; margin: auto;"">
                                <img src=""images/20_Angry_hi_hi_3_tab10new_ascend_smlg_dot.png"" width=""480"" height=""420"" style=""object-fit:contain;"">
                            </div>
                        </div>","87","html-slider-response",154,473255,"0.0-148.0","c8dhga6mt1",19,"","","","","","",0,"",NA,"","Angry","images/20_Angry_hi_hi_3_tab10new_ascend_smlg_dot.png",NA,NA
NA,"<div style=""width:500px;"">
                            <p style=""font-size:50px; font-weight:bold;""
                            >Angry</p>
                            <div style=""width:480px; margin: auto;"">
                                <img src=""images/20_Angry_hi_hi_3_tab10new_ascend_lgsm_dot.png"" width=""480"" height=""420"" style=""object-fit:contain;"">
                            </div>
                        </div>","58","html-slider-response",155,475125,"0.0-149.0","c8dhga6mt1",19,"","","","","","",0,"",NA,"","Angry","images/20_Angry_hi_hi_3_tab10new_ascend_lgsm_dot.png",NA,NA
NA,"<div style=""width:500px;"">
                            <p style=""font-size:50px; font-weight:bold;""
                            >Angry</p>
                            <div style=""width:480px; margin: auto;"">
                                <img src=""images/20_Angry_med_lo_1_tab20c_ascend_smlg_dot.png"" width=""480"" height=""420"" style=""object-fit:contain;"">
                            </div>
                        </div>","-5","html-slider-response",156,476824,"0.0-150.0","c8dhga6mt1",19,"","","","","","",0,"",NA,"","Angry","images/20_Angry_med_lo_1_tab20c_ascend_smlg_dot.png",NA,NA
NA,"<div style=""width:500px;"">
                            <p style=""font-size:50px; font-weight:bold;""
                            >Angry</p>
                            <div style=""width:480px; margin: auto;"">
                                <img src=""images/20_Angry_lo_lo_3_Pastel2_ascend_smlg_dot.png"" width=""480"" height=""420"" style=""object-fit:contain;"">
                            </div>
                        </div>","-61","html-slider-response",157,479714,"0.0-151.0","c8dhga6mt1",19,"","","","","","",0,"",NA,"","Angry","images/20_Angry_lo_lo_3_Pastel2_ascend_smlg_dot.png",NA,NA
NA,"<div style=""width:500px;"">
                            <p style=""font-size:50px; font-weight:bold;""
                            >Angry</p>
                            <div style=""width:480px; margin: auto;"">
                                <img src=""images/20_Angry_hi_md_3_Paired_decend_lgsm_dot.png"" width=""480"" height=""420"" style=""object-fit:contain;"">
                            </div>
                        </div>","59","html-slider-response",158,482048,"0.0-152.0","c8dhga6mt1",19,"","","","","","",0,"",NA,"","Angry","images/20_Angry_hi_md_3_Paired_decend_lgsm_dot.png",NA,NA
NA,"<div style=""width:500px;"">
                            <p style=""font-size:50px; font-weight:bold;""
                            >Angry</p>
                            <div style=""width:480px; margin: auto;"">
                                <img src=""images/20_Angry_med_lo_3_Pastel1_decend_lgsm_dot.png"" width=""480"" height=""420"" style=""object-fit:contain;"">
                            </div>
                        </div>","-198","html-slider-response",159,484020,"0.0-153.0","c8dhga6mt1",19,"","","","","","",0,"",NA,"","Angry","images/20_Angry_med_lo_3_Pastel1_decend_lgsm_dot.png",NA,NA
NA,"<div style=""width:500px;"">
                            <p style=""font-size:50px; font-weight:bold;""
                            >Angry</p>
                            <div style=""width:480px; margin: auto;"">
                                <img src=""images/20_Angry_hi_lo_1_tab20_decend_smlg_dot.png"" width=""480"" height=""420"" style=""object-fit:contain;"">
                            </div>
                        </div>","100","html-slider-response",160,486321,"0.0-154.0","c8dhga6mt1",19,"","","","","","",0,"",NA,"","Angry","images/20_Angry_hi_lo_1_tab20_decend_smlg_dot.png",NA,NA
NA,"<div style=""width:500px;"">
                            <p style=""font-size:50px; font-weight:bold;""
                            >Angry</p>
                            <div style=""width:480px; margin: auto;"">
                                <img src=""images/20_Angry_med_med_1_tab20b_ascend_smlg_dot.png"" width=""480"" height=""420"" style=""object-fit:contain;"">
                            </div>
                        </div>","-49","html-slider-response",161,488238,"0.0-155.0","c8dhga6mt1",19,"","","","","","",0,"",NA,"","Angry","images/20_Angry_med_med_1_tab20b_ascend_smlg_dot.png",NA,NA
NA,"<div style=""width:500px;"">
                            <p style=""font-size:50px; font-weight:bold;""
                            >Angry</p>
                            <div style=""width:480px; margin: auto;"">
                                <img src=""images/20_Angry_lo_lo_2_Pastel1_ascend_smlg_dot.png"" width=""480"" height=""420"" style=""object-fit:contain;"">
                            </div>
                        </div>","-196","html-slider-response",162,490107,"0.0-156.0","c8dhga6mt1",19,"","","","","","",0,"",NA,"","Angry","images/20_Angry_lo_lo_2_Pastel1_ascend_smlg_dot.png",NA,NA
NA,"<div style=""width:500px;"">
                            <p style=""font-size:50px; font-weight:bold;""
                            >Angry</p>
                            <div style=""width:480px; margin: auto;"">
                                <img src=""images/20_Angry_med_med_3_Set1_decend_lgsm_dot.png"" width=""480"" height=""420"" style=""object-fit:contain;"">
                            </div>
                        </div>","-97","html-slider-response",163,492450,"0.0-157.0","c8dhga6mt1",19,"","","","","","",0,"",NA,"","Angry","images/20_Angry_med_med_3_Set1_decend_lgsm_dot.png",NA,NA
NA,"<div style=""width:500px;"">
                            <p style=""font-size:50px; font-weight:bold;""
                            >Angry</p>
                            <div style=""width:480px; margin: auto;"">
                                <img src=""images/20_Angry_med_med_2_Paired_ascend_lgsm_dot.png"" width=""480"" height=""420"" style=""object-fit:contain;"">
                            </div>
                        </div>","-68","html-slider-response",164,494036,"0.0-158.0","c8dhga6mt1",19,"","","","","","",0,"",NA,"","Angry","images/20_Angry_med_med_2_Paired_ascend_lgsm_dot.png",NA,NA
NA,"<div style=""width:500px;"">
                            <p style=""font-size:50px; font-weight:bold;""
                            >Angry</p>
                            <div style=""width:480px; margin: auto;"">
                                <img src=""images/20_Angry_hi_lo_2_tab20c_decend_lgsm_dot.png"" width=""480"" height=""420"" style=""object-fit:contain;"">
                            </div>
                        </div>","62","html-slider-response",165,495896,"0.0-159.0","c8dhga6mt1",19,"","","","","","",0,"",NA,"","Angry","images/20_Angry_hi_lo_2_tab20c_decend_lgsm_dot.png",NA,NA
1459,"<p>Great Job! You've finished block 2.<br></br> You have 3 block(s) left to go.<br></br></p>","0","html-button-response",166,497857,"0.0-160.0","c8dhga6mt1",19,"","","","","","",NA,"",NA,"","","",NA,NA
868,"<p>In this block of trials, you will be asked to rate how much you associate each texture with the concept</p >
                        <p style = 'font-size:150%; font-weight: bold'>Sad</p><br></br>","0","html-button-response",167,498727,"0.0-161.0","c8dhga6mt1",19,"","","","","","",NA,"",NA,"","","",NA,NA
NA,"<div style=""width:500px;"">
                            <p style=""font-size:50px; font-weight:bold;""
                            >Sad</p>
                            <div style=""width:480px; margin: auto;"">
                                <img src=""images/20_Sad_hi_hi_2_Paired_decend_lgsm_dot.png"" width=""480"" height=""420"" style=""object-fit:contain;"">
                            </div>
                        </div>","182","html-slider-response",168,500656,"0.0-162.0","c8dhga6mt1",19,"","","","","","",0,"",NA,"","Sad","images/20_Sad_hi_hi_2_Paired_decend_lgsm_dot.png",NA,NA
NA,"<div style=""width:500px;"">
                            <p style=""font-size:50px; font-weight:bold;""
