"rt","stimulus","response","trial_type","trial_index","time_elapsed","internal_node_id","subject_id","condition_num","success","timeout","failed_images","failed_audio","failed_video","question_order","slider_start","practiceTrial","practiceTrialNum","correct","concept","texture_id","ishihara_plate","correct_response"
7934,"Welcome to our experiment!<p>At the bottom of this screen, you will see a button that says ""Begin Experiment"".<br>Please only click that button when you are ready to complete the 30 minute experiment in one sitting.</p><p> Once you click that button, it will not be possible to restart the experiment.","0","html-button-response",0,7943,"0.0-0.0","fvnyq9c7tk",18,"","","","","","",NA,"",NA,"","","",NA,NA
NA,"","","preload",1,10868,"0.0-1.0","fvnyq9c7tk",18,"true","false","[]","[]","[]","",NA,"",NA,"","","",NA,NA
2038,"","","fullscreen",2,13920,"0.0-2.0","fvnyq9c7tk",18,"true","","","","","",NA,"",NA,"","","",NA,NA
58131,"","{""Consent"":[""<strong>I consent</strong>""]}","survey-multi-select",3,72056,"0.0-3.0","fvnyq9c7tk",18,"","","","","","[0]",NA,"",NA,"","","",NA,NA
2619,"Welcome! <p> This experiment involves two parts: demographic information, followed by the experimental task.<p> It will take about 30 minutes to complete both parts.","0","html-button-response",4,74679,"0.0-4.0","fvnyq9c7tk",18,"","","","","","",NA,"",NA,"","","",NA,NA
13323,"","{""Age"":""21"",""Gender"":""Non Binary"",""Race/ethnicity"":""Asian"",""Languages"":""English""}","survey-text",5,88018,"0.0-5.0","fvnyq9c7tk",18,"","","","","","",NA,"",NA,"","","",NA,NA
35813,"
                        <div>
                            <div style='text-align:left; font-size:18px; line-height:25px; width: 1300px;'>
                                During this experiment you will be asked to rate how much you associate charts with                                different concepts. Below, you can see some examples of the charts you will be asked to rate. Above the charts
                                is the list of concepts. You will be asked
                                to rate how much you associate each chart with each concept on a scale from 'not at all' to 'very much' like the
                                one below. <br>

                        <div style=""text-align: left; width: 1300px;"">
                            <p style=""font-size:18px; line-height:20px; text-align:center; font-weight:bold"">
                                Happy, Disgust, Sad, Fearful, Angry
                            </p>
                        </div>

                        <div style=""display: flex; justify-content: center; width: 100%;"">
                            <div style=""
                                display: grid;
                                grid-template-columns: repeat(5, 1fr);
                                gap: 8px;
                                padding: 10px;
                                width: 900px;  
                                margin: 0 auto;
                            "">
                                
                                    <div style=""width: 100%;"">
                                        <img src=""images/19_Fearful_lo_lo_1_Pastel1_decend_lgsm_dot.png"" style=""width: 100%; height: auto; object-fit: contain;"">
                                    </div>
                                
                                    <div style=""width: 100%;"">
                                        <img src=""images/19_Sad_lo_lo_1_Set1_decend_lgsm_dot.png"" style=""width: 100%; height: auto; object-fit: contain;"">
                                    </div>
                                
                                    <div style=""width: 100%;"">
                                        <img src=""images/19_Fearful_hi_hi_1_tab20b_ascend_lgsm_dot.png"" style=""width: 100%; height: auto; object-fit: contain;"">
                                    </div>
                                
                                    <div style=""width: 100%;"">
                                        <img src=""images/19_Angry_hi_hi_1_tab20_decend_smlg_dot.png"" style=""width: 100%; height: auto; object-fit: contain;"">
                                    </div>
                                
                                    <div style=""width: 100%;"">
                                        <img src=""images/19_Disgust_lo_lo_1_tab20c_decend_lgsm_dot.png"" style=""width: 100%; height: auto; object-fit: contain;"">
                                    </div>
                                
                                    <div style=""width: 100%;"">
                                        <img src=""images/19_Happy_lo_lo_1_tab20b_decend_smlg_dot.png"" style=""width: 100%; height: auto; object-fit: contain;"">
                                    </div>
                                
                                    <div style=""width: 100%;"">
                                        <img src=""images/19_Angry_lo_lo_1_tab20c_decend_lgsm_dot.png"" style=""width: 100%; height: auto; object-fit: contain;"">
                                    </div>
                                
                                    <div style=""width: 100%;"">
                                        <img src=""images/19_Disgust_hi_hi_1_tab20b_decend_smlg_dot.png"" style=""width: 100%; height: auto; object-fit: contain;"">
                                    </div>
                                
                                    <div style=""width: 100%;"">
                                        <img src=""images/19_Sad_hi_hi_1_tab20_ascend_smlg_dot.png"" style=""width: 100%; height: auto; object-fit: contain;"">
                                    </div>
                                
                                    <div style=""width: 100%;"">
                                        <img src=""images/19_Happy_hi_hi_1_Set1_ascend_smlg_dot.png"" style=""width: 100%; height: auto; object-fit: contain;"">
                                    </div>
                                
                            </div>
                        </div>
                    </div>
                </div>
                    ","null","html-slider-response",6,123833,"0.0-6.0","fvnyq9c7tk",18,"","","","","","",0,"true",NA,"","","",NA,NA
13763,"<div style=""width:1300px;""><p style=""text-align:left"">To move the slider, click and drag your cursor to the location of the scale where you would like to make your rating and then let go. When you let go of the slider, your response will be recorded and the next trial will begin. <br>
                    We are interested in your initial impressions of each chart for a given concept, so please go with your first intuition. 
                    Before you begin the experiment, there will be four training trials for you to practice using the slider. 
                     When you are ready to start the training trials, please click ""Continue"".</p><br></div>","0","html-button-response",7,137598,"0.0-7.0","fvnyq9c7tk",18,"","","","","","",NA,"",NA,"","","",NA,NA
NA,"<div style=""width:500px;"">
                                    <p style=""font-size:25px;"">Please move the slider all the way to the <br> right endpoint of the scale</p>

                                    </div>
                                </div>","200","html-slider-response",8,141105,"0.0-8.0-0.0","fvnyq9c7tk",18,"","","","","","",0,"true",0,"true","","",NA,NA
1091,"<p align='center'><b>Good job!</b> Click on 'Continue' to proceed.</p>","0","html-button-response",9,142706,"0.0-8.0-1.0","fvnyq9c7tk",18,"","","","","","",NA,"",NA,"","","",NA,NA
NA,"<div style=""width:500px;"">
                                    <p style=""font-size:25px;"">Please move the slider all the way to the <br> left endpoint of the scale</p>

                                    </div>
                                </div>","-200","html-slider-response",10,144374,"0.0-9.0-0.0","fvnyq9c7tk",18,"","","","","","",0,"true",1,"true","","",NA,NA
791,"<p align='center'><b>Good job!</b> Click on 'Continue' to proceed.</p>","0","html-button-response",11,145668,"0.0-9.0-1.0","fvnyq9c7tk",18,"","","","","","",NA,"",NA,"","","",NA,NA
NA,"<div style=""width:500px;"">
                                    <p style=""font-size:25px;"">Please move the slider halfway between the center and right endpoint of the scale</p>

                                    </div>
                                </div>","106","html-slider-response",12,150974,"0.0-10.0-0.0","fvnyq9c7tk",18,"","","","","","",0,"true",2,"true","","",NA,NA
920,"<p align='center'><b>Good job!</b> Click on 'Continue' to proceed.</p>","0","html-button-response",13,152404,"0.0-10.0-1.0","fvnyq9c7tk",18,"","","","","","",NA,"",NA,"","","",NA,NA
NA,"<div style=""width:500px;"">
                                    <p style=""font-size:25px;"">Please move the slider halfway between the center and left endpoint of the scale</p>

                                    </div>
                                </div>","-109","html-slider-response",14,154905,"0.0-11.0-0.0","fvnyq9c7tk",18,"","","","","","",0,"true",3,"true","","",NA,NA
966,"<p align='center'><b>Good job!</b> Click on 'Continue' to proceed.</p>","0","html-button-response",15,156379,"0.0-11.0-1.0","fvnyq9c7tk",18,"","","","","","",NA,"",NA,"","","",NA,NA
2755,"<p>Great job! You've completed the practice trials. Now you will begin the main task.</p>","0","html-button-response",16,159136,"0.0-12.0","fvnyq9c7tk",18,"","","","","","",NA,"",NA,"","","",NA,NA
3999,"<p>In this block of trials, you will be asked to rate how much you associate each texture with the concept</p >
                        <p style = 'font-size:150%; font-weight: bold'>Happy</p><br></br>","0","html-button-response",17,163136,"0.0-13.0","fvnyq9c7tk",18,"","","","","","",NA,"",NA,"","","",NA,NA
NA,"<div style=""width:500px;"">
                            <p style=""font-size:50px; font-weight:bold;""
                            >Happy</p>
                            <div style=""width:480px; margin: auto;"">
                                <img src=""images/19_Happy_med_lo_2_tab20_decend_lgsm_dot.png"" width=""480"" height=""420"" style=""object-fit:contain;"">
                            </div>
                        </div>","-106","html-slider-response",18,170623,"0.0-14.0","fvnyq9c7tk",18,"","","","","","",0,"",NA,"","Happy","images/19_Happy_med_lo_2_tab20_decend_lgsm_dot.png",NA,NA
NA,"<div style=""width:500px;"">
                            <p style=""font-size:50px; font-weight:bold;""
                            >Happy</p>
                            <div style=""width:480px; margin: auto;"">
                                <img src=""images/19_Happy_hi_hi_3_Paired_decend_lgsm_dot.png"" width=""480"" height=""420"" style=""object-fit:contain;"">
                            </div>
                        </div>","-107","html-slider-response",19,176750,"0.0-15.0","fvnyq9c7tk",18,"","","","","","",0,"",NA,"","Happy","images/19_Happy_hi_hi_3_Paired_decend_lgsm_dot.png",NA,NA
NA,"<div style=""width:500px;"">
                            <p style=""font-size:50px; font-weight:bold;""
                            >Happy</p>
                            <div style=""width:480px; margin: auto;"">
                                <img src=""images/19_Happy_med_med_1_tab20c_ascend_lgsm_dot.png"" width=""480"" height=""420"" style=""object-fit:contain;"">
                            </div>
                        </div>","110","html-slider-response",20,182807,"0.0-16.0","fvnyq9c7tk",18,"","","","","","",0,"",NA,"","Happy","images/19_Happy_med_med_1_tab20c_ascend_lgsm_dot.png",NA,NA
NA,"<div style=""width:500px;"">
                            <p style=""font-size:50px; font-weight:bold;""
                            >Happy</p>
                            <div style=""width:480px; margin: auto;"">
                                <img src=""images/19_Happy_lo_lo_1_tab20b_decend_lgsm_dot.png"" width=""480"" height=""420"" style=""object-fit:contain;"">
                            </div>
                        </div>","-200","html-slider-response",21,187011,"0.0-17.0","fvnyq9c7tk",18,"","","","","","",0,"",NA,"","Happy","images/19_Happy_lo_lo_1_tab20b_decend_lgsm_dot.png",NA,NA
NA,"<div style=""width:500px;"">
                            <p style=""font-size:50px; font-weight:bold;""
                            >Happy</p>
                            <div style=""width:480px; margin: auto;"">
                                <img src=""images/19_Happy_hi_md_2_tab20_ascend_lgsm_dot.png"" width=""480"" height=""420"" style=""object-fit:contain;"">
                            </div>
                        </div>","108","html-slider-response",22,191753,"0.0-18.0","fvnyq9c7tk",18,"","","","","","",0,"",NA,"","Happy","images/19_Happy_hi_md_2_tab20_ascend_lgsm_dot.png",NA,NA
NA,"<div style=""width:500px;"">
                            <p style=""font-size:50px; font-weight:bold;""
                            >Happy</p>
                            <div style=""width:480px; margin: auto;"">
                                <img src=""images/19_Happy_hi_hi_1_Set1_decend_smlg_dot.png"" width=""480"" height=""420"" style=""object-fit:contain;"">
                            </div>
                        </div>","112","html-slider-response",23,195359,"0.0-19.0","fvnyq9c7tk",18,"","","","","","",0,"",NA,"","Happy","images/19_Happy_hi_hi_1_Set1_decend_smlg_dot.png",NA,NA
NA,"<div style=""width:500px;"">
                            <p style=""font-size:50px; font-weight:bold;""
                            >Happy</p>
                            <div style=""width:480px; margin: auto;"">
                                <img src=""images/19_Happy_med_med_2_tab20b_decend_smlg_dot.png"" width=""480"" height=""420"" style=""object-fit:contain;"">
                            </div>
                        </div>","109","html-slider-response",24,199624,"0.0-20.0","fvnyq9c7tk",18,"","","","","","",0,"",NA,"","Happy","images/19_Happy_med_med_2_tab20b_decend_smlg_dot.png",NA,NA
NA,"<div style=""width:500px;"">
                            <p style=""font-size:50px; font-weight:bold;""
                            >Happy</p>
                            <div style=""width:480px; margin: auto;"">
                                <img src=""images/19_Happy_hi_md_3_Set2_decend_smlg_dot.png"" width=""480"" height=""420"" style=""object-fit:contain;"">
                            </div>
                        </div>","106","html-slider-response",25,203801,"0.0-21.0","fvnyq9c7tk",18,"","","","","","",0,"",NA,"","Happy","images/19_Happy_hi_md_3_Set2_decend_smlg_dot.png",NA,NA
NA,"<div style=""width:500px;"">
                            <p style=""font-size:50px; font-weight:bold;""
                            >Happy</p>
                            <div style=""width:480px; margin: auto;"">
                                <img src=""images/19_Happy_hi_hi_2_tab20_decend_lgsm_dot.png"" width=""480"" height=""420"" style=""object-fit:contain;"">
                            </div>
                        </div>","107","html-slider-response",26,207916,"0.0-22.0","fvnyq9c7tk",18,"","","","","","",0,"",NA,"","Happy","images/19_Happy_hi_hi_2_tab20_decend_lgsm_dot.png",NA,NA
NA,"<div style=""width:500px;"">
                            <p style=""font-size:50px; font-weight:bold;""
                            >Happy</p>
                            <div style=""width:480px; margin: auto;"">
                                <img src=""images/19_Happy_hi_hi_2_tab20_decend_smlg_dot.png"" width=""480"" height=""420"" style=""object-fit:contain;"">
                            </div>
                        </div>","106","html-slider-response",27,212174,"0.0-23.0","fvnyq9c7tk",18,"","","","","","",0,"",NA,"","Happy","images/19_Happy_hi_hi_2_tab20_decend_smlg_dot.png",NA,NA
NA,"<div style=""width:500px;"">
                            <p style=""font-size:50px; font-weight:bold;""
                            >Happy</p>
                            <div style=""width:480px; margin: auto;"">
                                <img src=""images/19_Happy_med_lo_2_tab20_decend_smlg_dot.png"" width=""480"" height=""420"" style=""object-fit:contain;"">
                            </div>
                        </div>","-109","html-slider-response",28,215256,"0.0-24.0","fvnyq9c7tk",18,"","","","","","",0,"",NA,"","Happy","images/19_Happy_med_lo_2_tab20_decend_smlg_dot.png",NA,NA
NA,"<div style=""width:500px;"">
                            <p style=""font-size:50px; font-weight:bold;""
                            >Happy</p>
                            <div style=""width:480px; margin: auto;"">
                                <img src=""images/19_Happy_lo_lo_2_tab10new_ascend_lgsm_dot.png"" width=""480"" height=""420"" style=""object-fit:contain;"">
                            </div>
                        </div>","-109","html-slider-response",29,219044,"0.0-25.0","fvnyq9c7tk",18,"","","","","","",0,"",NA,"","Happy","images/19_Happy_lo_lo_2_tab10new_ascend_lgsm_dot.png",NA,NA
NA,"<div style=""width:500px;"">
                            <p style=""font-size:50px; font-weight:bold;""
                            >Happy</p>
                            <div style=""width:480px; margin: auto;"">
                                <img src=""images/19_Happy_hi_hi_1_Set1_decend_lgsm_dot.png"" width=""480"" height=""420"" style=""object-fit:contain;"">
                            </div>
                        </div>","200","html-slider-response",30,221309,"0.0-26.0","fvnyq9c7tk",18,"","","","","","",0,"",NA,"","Happy","images/19_Happy_hi_hi_1_Set1_decend_lgsm_dot.png",NA,NA
NA,"<div style=""width:500px;"">
                            <p style=""font-size:50px; font-weight:bold;""
                            >Happy</p>
                            <div style=""width:480px; margin: auto;"">
                                <img src=""images/19_Happy_hi_md_3_Set2_ascend_smlg_dot.png"" width=""480"" height=""420"" style=""object-fit:contain;"">
                            </div>
                        </div>","200","html-slider-response",31,224367,"0.0-27.0","fvnyq9c7tk",18,"","","","","","",0,"",NA,"","Happy","images/19_Happy_hi_md_3_Set2_ascend_smlg_dot.png",NA,NA
NA,"<div style=""width:500px;"">
                            <p style=""font-size:50px; font-weight:bold;""
                            >Happy</p>
                            <div style=""width:480px; margin: auto;"">
                                <img src=""images/19_Happy_med_med_1_tab20c_ascend_smlg_dot.png"" width=""480"" height=""420"" style=""object-fit:contain;"">
                            </div>
                        </div>","107","html-slider-response",32,228185,"0.0-28.0","fvnyq9c7tk",18,"","","","","","",0,"",NA,"","Happy","images/19_Happy_med_med_1_tab20c_ascend_smlg_dot.png",NA,NA
NA,"<div style=""width:500px;"">
                            <p style=""font-size:50px; font-weight:bold;""
                            >Happy</p>
                            <div style=""width:480px; margin: auto;"">
                                <img src=""images/19_Happy_hi_lo_2_Set1_decend_lgsm_dot.png"" width=""480"" height=""420"" style=""object-fit:contain;"">
                            </div>
                        </div>","-110","html-slider-response",33,231141,"0.0-29.0","fvnyq9c7tk",18,"","","","","","",0,"",NA,"","Happy","images/19_Happy_hi_lo_2_Set1_decend_lgsm_dot.png",NA,NA
NA,"<div style=""width:500px;"">
                            <p style=""font-size:50px; font-weight:bold;""
                            >Happy</p>
                            <div style=""width:480px; margin: auto;"">
                                <img src=""images/19_Happy_hi_md_1_Set1_decend_smlg_dot.png"" width=""480"" height=""420"" style=""object-fit:contain;"">
                            </div>
                        </div>","200","html-slider-response",34,233336,"0.0-30.0","fvnyq9c7tk",18,"","","","","","",0,"",NA,"","Happy","images/19_Happy_hi_md_1_Set1_decend_smlg_dot.png",NA,NA
NA,"<div style=""width:500px;"">
                            <p style=""font-size:50px; font-weight:bold;""
                            >Happy</p>
                            <div style=""width:480px; margin: auto;"">
                                <img src=""images/19_Happy_hi_md_3_Set2_decend_lgsm_dot.png"" width=""480"" height=""420"" style=""object-fit:contain;"">
                            </div>
                        </div>","200","html-slider-response",35,235874,"0.0-31.0","fvnyq9c7tk",18,"","","","","","",0,"",NA,"","Happy","images/19_Happy_hi_md_3_Set2_decend_lgsm_dot.png",NA,NA
NA,"<div style=""width:500px;"">
                            <p style=""font-size:50px; font-weight:bold;""
                            >Happy</p>
                            <div style=""width:480px; margin: auto;"">
                                <img src=""images/19_Happy_lo_lo_2_tab10new_decend_lgsm_dot.png"" width=""480"" height=""420"" style=""object-fit:contain;"">
                            </div>
                        </div>","-106","html-slider-response",36,239340,"0.0-32.0","fvnyq9c7tk",18,"","","","","","",0,"",NA,"","Happy","images/19_Happy_lo_lo_2_tab10new_decend_lgsm_dot.png",NA,NA
NA,"<div style=""width:500px;"">
                            <p style=""font-size:50px; font-weight:bold;""
                            >Happy</p>
                            <div style=""width:480px; margin: auto;"">
                                <img src=""images/19_Happy_med_med_2_tab20b_ascend_smlg_dot.png"" width=""480"" height=""420"" style=""object-fit:contain;"">
                            </div>
                        </div>","101","html-slider-response",37,243839,"0.0-33.0","fvnyq9c7tk",18,"","","","","","",0,"",NA,"","Happy","images/19_Happy_med_med_2_tab20b_ascend_smlg_dot.png",NA,NA
NA,"<div style=""width:500px;"">
                            <p style=""font-size:50px; font-weight:bold;""
                            >Happy</p>
                            <div style=""width:480px; margin: auto;"">
                                <img src=""images/19_Happy_hi_lo_1_tab20_decend_lgsm_dot.png"" width=""480"" height=""420"" style=""object-fit:contain;"">
                            </div>
                        </div>","-115","html-slider-response",38,246736,"0.0-34.0","fvnyq9c7tk",18,"","","","","","",0,"",NA,"","Happy","images/19_Happy_hi_lo_1_tab20_decend_lgsm_dot.png",NA,NA
NA,"<div style=""width:500px;"">
                            <p style=""font-size:50px; font-weight:bold;""
                            >Happy</p>
                            <div style=""width:480px; margin: auto;"">
                                <img src=""images/19_Happy_lo_lo_3_tab20_decend_lgsm_dot.png"" width=""480"" height=""420"" style=""object-fit:contain;"">
                            </div>
                        </div>","-200","html-slider-response",39,250039,"0.0-35.0","fvnyq9c7tk",18,"","","","","","",0,"",NA,"","Happy","images/19_Happy_lo_lo_3_tab20_decend_lgsm_dot.png",NA,NA
NA,"<div style=""width:500px;"">
                            <p style=""font-size:50px; font-weight:bold;""
                            >Happy</p>
                            <div style=""width:480px; margin: auto;"">
                                <img src=""images/19_Happy_med_lo_3_tab10new_ascend_smlg_dot.png"" width=""480"" height=""420"" style=""object-fit:contain;"">
                            </div>
                        </div>","-200","html-slider-response",40,252897,"0.0-36.0","fvnyq9c7tk",18,"","","","","","",0,"",NA,"","Happy","images/19_Happy_med_lo_3_tab10new_ascend_smlg_dot.png",NA,NA
NA,"<div style=""width:500px;"">
                            <p style=""font-size:50px; font-weight:bold;""
                            >Happy</p>
                            <div style=""width:480px; margin: auto;"">
                                <img src=""images/19_Happy_hi_hi_2_tab20_ascend_lgsm_dot.png"" width=""480"" height=""420"" style=""object-fit:contain;"">
                            </div>
                        </div>","200","html-slider-response",41,255860,"0.0-37.0","fvnyq9c7tk",18,"","","","","","",0,"",NA,"","Happy","images/19_Happy_hi_hi_2_tab20_ascend_lgsm_dot.png",NA,NA
NA,"<div style=""width:500px;"">
                            <p style=""font-size:50px; font-weight:bold;""
                            >Happy</p>
                            <div style=""width:480px; margin: auto;"">
                                <img src=""images/19_Happy_med_lo_2_tab20_ascend_lgsm_dot.png"" width=""480"" height=""420"" style=""object-fit:contain;"">
                            </div>
                        </div>","-109","html-slider-response",42,258854,"0.0-38.0","fvnyq9c7tk",18,"","","","","","",0,"",NA,"","Happy","images/19_Happy_med_lo_2_tab20_ascend_lgsm_dot.png",NA,NA
NA,"<div style=""width:500px;"">
                            <p style=""font-size:50px; font-weight:bold;""
                            >Happy</p>
                            <div style=""width:480px; margin: auto;"">
                                <img src=""images/19_Happy_lo_lo_2_tab10new_decend_smlg_dot.png"" width=""480"" height=""420"" style=""object-fit:contain;"">
                            </div>
                        </div>","-109","html-slider-response",43,262119,"0.0-39.0","fvnyq9c7tk",18,"","","","","","",0,"",NA,"","Happy","images/19_Happy_lo_lo_2_tab10new_decend_smlg_dot.png",NA,NA
NA,"<div style=""width:500px;"">
                            <p style=""font-size:50px; font-weight:bold;""
                            >Happy</p>
                            <div style=""width:480px; margin: auto;"">
                                <img src=""images/19_Happy_med_lo_1_tab20b_ascend_lgsm_dot.png"" width=""480"" height=""420"" style=""object-fit:contain;"">
                            </div>
                        </div>","-200","html-slider-response",44,264603,"0.0-40.0","fvnyq9c7tk",18,"","","","","","",0,"",NA,"","Happy","images/19_Happy_med_lo_1_tab20b_ascend_lgsm_dot.png",NA,NA
NA,"<div style=""width:500px;"">
                            <p style=""font-size:50px; font-weight:bold;""
                            >Happy</p>
                            <div style=""width:480px; margin: auto;"">
                                <img src=""images/19_Happy_lo_lo_1_tab20b_ascend_lgsm_dot.png"" width=""480"" height=""420"" style=""object-fit:contain;"">
                            </div>
                        </div>","-200","html-slider-response",45,267399,"0.0-41.0","fvnyq9c7tk",18,"","","","","","",0,"",NA,"","Happy","images/19_Happy_lo_lo_1_tab20b_ascend_lgsm_dot.png",NA,NA
NA,"<div style=""width:500px;"">
                            <p style=""font-size:50px; font-weight:bold;""
                            >Happy</p>
                            <div style=""width:480px; margin: auto;"">
                                <img src=""images/19_Happy_hi_md_1_Set1_ascend_lgsm_dot.png"" width=""480"" height=""420"" style=""object-fit:contain;"">
                            </div>
                        </div>","200","html-slider-response",46,269663,"0.0-42.0","fvnyq9c7tk",18,"","","","","","",0,"",NA,"","Happy","images/19_Happy_hi_md_1_Set1_ascend_lgsm_dot.png",NA,NA
NA,"<div style=""width:500px;"">
                            <p style=""font-size:50px; font-weight:bold;""
                            >Happy</p>
                            <div style=""width:480px; margin: auto;"">
                                <img src=""images/19_Happy_hi_lo_1_tab20_ascend_lgsm_dot.png"" width=""480"" height=""420"" style=""object-fit:contain;"">
                            </div>
                        </div>","-115","html-slider-response",47,275103,"0.0-43.0","fvnyq9c7tk",18,"","","","","","",0,"",NA,"","Happy","images/19_Happy_hi_lo_1_tab20_ascend_lgsm_dot.png",NA,NA
NA,"<div style=""width:500px;"">
                            <p style=""font-size:50px; font-weight:bold;""
                            >Happy</p>
                            <div style=""width:480px; margin: auto;"">
                                <img src=""images/19_Happy_hi_lo_2_Set1_decend_smlg_dot.png"" width=""480"" height=""420"" style=""object-fit:contain;"">
                            </div>
                        </div>","-200","html-slider-response",48,277383,"0.0-44.0","fvnyq9c7tk",18,"","","","","","",0,"",NA,"","Happy","images/19_Happy_hi_lo_2_Set1_decend_smlg_dot.png",NA,NA
NA,"<div style=""width:500px;"">
                            <p style=""font-size:50px; font-weight:bold;""
                            >Happy</p>
                            <div style=""width:480px; margin: auto;"">
                                <img src=""images/19_Happy_hi_hi_1_Set1_ascend_lgsm_dot.png"" width=""480"" height=""420"" style=""object-fit:contain;"">
                            </div>
                        </div>","200","html-slider-response",49,280207,"0.0-45.0","fvnyq9c7tk",18,"","","","","","",0,"",NA,"","Happy","images/19_Happy_hi_hi_1_Set1_ascend_lgsm_dot.png",NA,NA
NA,"<div style=""width:500px;"">
                            <p style=""font-size:50px; font-weight:bold;""
                            >Happy</p>
                            <div style=""width:480px; margin: auto;"">
                                <img src=""images/19_Happy_med_med_1_tab20c_decend_lgsm_dot.png"" width=""480"" height=""420"" style=""object-fit:contain;"">
                            </div>
                        </div>","103","html-slider-response",50,283327,"0.0-46.0","fvnyq9c7tk",18,"","","","","","",0,"",NA,"","Happy","images/19_Happy_med_med_1_tab20c_decend_lgsm_dot.png",NA,NA
NA,"<div style=""width:500px;"">
                            <p style=""font-size:50px; font-weight:bold;""
                            >Happy</p>
                            <div style=""width:480px; margin: auto;"">
                                <img src=""images/19_Happy_hi_md_3_Set2_ascend_lgsm_dot.png"" width=""480"" height=""420"" style=""object-fit:contain;"">
                            </div>
                        </div>","102","html-slider-response",51,286475,"0.0-47.0","fvnyq9c7tk",18,"","","","","","",0,"",NA,"","Happy","images/19_Happy_hi_md_3_Set2_ascend_lgsm_dot.png",NA,NA
NA,"<div style=""width:500px;"">
                            <p style=""font-size:50px; font-weight:bold;""
                            >Happy</p>
                            <div style=""width:480px; margin: auto;"">
                                <img src=""images/19_Happy_med_lo_2_tab20_ascend_smlg_dot.png"" width=""480"" height=""420"" style=""object-fit:contain;"">
                            </div>
                        </div>","-113","html-slider-response",52,292355,"0.0-48.0","fvnyq9c7tk",18,"","","","","","",0,"",NA,"","Happy","images/19_Happy_med_lo_2_tab20_ascend_smlg_dot.png",NA,NA
NA,"<div style=""width:500px;"">
                            <p style=""font-size:50px; font-weight:bold;""
                            >Happy</p>
                            <div style=""width:480px; margin: auto;"">
                                <img src=""images/19_Happy_lo_lo_1_tab20b_ascend_smlg_dot.png"" width=""480"" height=""420"" style=""object-fit:contain;"">
                            </div>
                        </div>","-200","html-slider-response",53,295340,"0.0-49.0","fvnyq9c7tk",18,"","","","","","",0,"",NA,"","Happy","images/19_Happy_lo_lo_1_tab20b_ascend_smlg_dot.png",NA,NA
NA,"<div style=""width:500px;"">
                            <p style=""font-size:50px; font-weight:bold;""
                            >Happy</p>
                            <div style=""width:480px; margin: auto;"">
                                <img src=""images/19_Happy_lo_lo_1_tab20b_decend_smlg_dot.png"" width=""480"" height=""420"" style=""object-fit:contain;"">
                            </div>
                        </div>","-200","html-slider-response",54,297411,"0.0-50.0","fvnyq9c7tk",18,"","","","","","",0,"",NA,"","Happy","images/19_Happy_lo_lo_1_tab20b_decend_smlg_dot.png",NA,NA
NA,"<div style=""width:500px;"">
                            <p style=""font-size:50px; font-weight:bold;""
                            >Happy</p>
                            <div style=""width:480px; margin: auto;"">
                                <img src=""images/19_Happy_med_lo_1_tab20b_ascend_smlg_dot.png"" width=""480"" height=""420"" style=""object-fit:contain;"">
                            </div>
                        </div>","-200","html-slider-response",55,299732,"0.0-51.0","fvnyq9c7tk",18,"","","","","","",0,"",NA,"","Happy","images/19_Happy_med_lo_1_tab20b_ascend_smlg_dot.png",NA,NA
NA,"<div style=""width:500px;"">
                            <p style=""font-size:50px; font-weight:bold;""
                            >Happy</p>
                            <div style=""width:480px; margin: auto;"">
                                <img src=""images/19_Happy_med_lo_1_tab20b_decend_smlg_dot.png"" width=""480"" height=""420"" style=""object-fit:contain;"">
                            </div>
                        </div>","-200","html-slider-response",56,301990,"0.0-52.0","fvnyq9c7tk",18,"","","","","","",0,"",NA,"","Happy","images/19_Happy_med_lo_1_tab20b_decend_smlg_dot.png",NA,NA
NA,"<div style=""width:500px;"">
                            <p style=""font-size:50px; font-weight:bold;""
                            >Happy</p>
                            <div style=""width:480px; margin: auto;"">
                                <img src=""images/19_Happy_med_lo_3_tab10new_decend_lgsm_dot.png"" width=""480"" height=""420"" style=""object-fit:contain;"">
                            </div>
                        </div>","-200","html-slider-response",57,307666,"0.0-53.0","fvnyq9c7tk",18,"","","","","","",0,"",NA,"","Happy","images/19_Happy_med_lo_3_tab10new_decend_lgsm_dot.png",NA,NA
NA,"<div style=""width:500px;"">
                            <p style=""font-size:50px; font-weight:bold;""
                            >Happy</p>
                            <div style=""width:480px; margin: auto;"">
                                <img src=""images/19_Happy_hi_hi_3_Paired_decend_smlg_dot.png"" width=""480"" height=""420"" style=""object-fit:contain;"">
                            </div>
                        </div>","109","html-slider-response",58,310663,"0.0-54.0","fvnyq9c7tk",18,"","","","","","",0,"",NA,"","Happy","images/19_Happy_hi_hi_3_Paired_decend_smlg_dot.png",NA,NA
NA,"<div style=""width:500px;"">
                            <p style=""font-size:50px; font-weight:bold;""
                            >Happy</p>
                            <div style=""width:480px; margin: auto;"">
                                <img src=""images/19_Happy_hi_md_1_Set1_ascend_smlg_dot.png"" width=""480"" height=""420"" style=""object-fit:contain;"">
                            </div>
                        </div>","200","html-slider-response",59,313669,"0.0-55.0","fvnyq9c7tk",18,"","","","","","",0,"",NA,"","Happy","images/19_Happy_hi_md_1_Set1_ascend_smlg_dot.png",NA,NA
NA,"<div style=""width:500px;"">
                            <p style=""font-size:50px; font-weight:bold;""
                            >Happy</p>
                            <div style=""width:480px; margin: auto;"">
                                <img src=""images/19_Happy_med_med_3_Set3_ascend_lgsm_dot.png"" width=""480"" height=""420"" style=""object-fit:contain;"">
                            </div>
                        </div>","104","html-slider-response",60,316449,"0.0-56.0","fvnyq9c7tk",18,"","","","","","",0,"",NA,"","Happy","images/19_Happy_med_med_3_Set3_ascend_lgsm_dot.png",NA,NA
NA,"<div style=""width:500px;"">
                            <p style=""font-size:50px; font-weight:bold;""
                            >Happy</p>
                            <div style=""width:480px; margin: auto;"">
                                <img src=""images/19_Happy_hi_hi_3_Paired_ascend_smlg_dot.png"" width=""480"" height=""420"" style=""object-fit:contain;"">
                            </div>
                        </div>","106","html-slider-response",61,319389,"0.0-57.0","fvnyq9c7tk",18,"","","","","","",0,"",NA,"","Happy","images/19_Happy_hi_hi_3_Paired_ascend_smlg_dot.png",NA,NA
NA,"<div style=""width:500px;"">
                            <p style=""font-size:50px; font-weight:bold;""
                            >Happy</p>
                            <div style=""width:480px; margin: auto;"">
                                <img src=""images/19_Happy_hi_hi_2_tab20_ascend_smlg_dot.png"" width=""480"" height=""420"" style=""object-fit:contain;"">
                            </div>
                        </div>","200","html-slider-response",62,322003,"0.0-58.0","fvnyq9c7tk",18,"","","","","","",0,"",NA,"","Happy","images/19_Happy_hi_hi_2_tab20_ascend_smlg_dot.png",NA,NA
NA,"<div style=""width:500px;"">
                            <p style=""font-size:50px; font-weight:bold;""
                            >Happy</p>
                            <div style=""width:480px; margin: auto;"">
                                <img src=""images/19_Happy_hi_md_1_Set1_decend_lgsm_dot.png"" width=""480"" height=""420"" style=""object-fit:contain;"">
                            </div>
                        </div>","200","html-slider-response",63,324540,"0.0-59.0","fvnyq9c7tk",18,"","","","","","",0,"",NA,"","Happy","images/19_Happy_hi_md_1_Set1_decend_lgsm_dot.png",NA,NA
NA,"<div style=""width:500px;"">
                            <p style=""font-size:50px; font-weight:bold;""
                            >Happy</p>
                            <div style=""width:480px; margin: auto;"">
                                <img src=""images/19_Happy_lo_lo_2_tab10new_ascend_smlg_dot.png"" width=""480"" height=""420"" style=""object-fit:contain;"">
                            </div>
                        </div>","-105","html-slider-response",64,329350,"0.0-60.0","fvnyq9c7tk",18,"","","","","","",0,"",NA,"","Happy","images/19_Happy_lo_lo_2_tab10new_ascend_smlg_dot.png",NA,NA
NA,"<div style=""width:500px;"">
                            <p style=""font-size:50px; font-weight:bold;""
                            >Happy</p>
                            <div style=""width:480px; margin: auto;"">
                                <img src=""images/19_Happy_med_med_3_Set3_decend_lgsm_dot.png"" width=""480"" height=""420"" style=""object-fit:contain;"">
                            </div>
                        </div>","38","html-slider-response",65,333727,"0.0-61.0","fvnyq9c7tk",18,"","","","","","",0,"",NA,"","Happy","images/19_Happy_med_med_3_Set3_decend_lgsm_dot.png",NA,NA
NA,"<div style=""width:500px;"">
                            <p style=""font-size:50px; font-weight:bold;""
                            >Happy</p>
                            <div style=""width:480px; margin: auto;"">
                                <img src=""images/19_Happy_med_med_2_tab20b_ascend_lgsm_dot.png"" width=""480"" height=""420"" style=""object-fit:contain;"">
                            </div>
                        </div>","102","html-slider-response",66,340653,"0.0-62.0","fvnyq9c7tk",18,"","","","","","",0,"",NA,"","Happy","images/19_Happy_med_med_2_tab20b_ascend_lgsm_dot.png",NA,NA
NA,"<div style=""width:500px;"">
                            <p style=""font-size:50px; font-weight:bold;""
                            >Happy</p>
                            <div style=""width:480px; margin: auto;"">
                                <img src=""images/19_Happy_hi_md_2_tab20_decend_smlg_dot.png"" width=""480"" height=""420"" style=""object-fit:contain;"">
                            </div>
                        </div>","200","html-slider-response",67,343244,"0.0-63.0","fvnyq9c7tk",18,"","","","","","",0,"",NA,"","Happy","images/19_Happy_hi_md_2_tab20_decend_smlg_dot.png",NA,NA
NA,"<div style=""width:500px;"">
                            <p style=""font-size:50px; font-weight:bold;""
                            >Happy</p>
                            <div style=""width:480px; margin: auto;"">
                                <img src=""images/19_Happy_hi_lo_2_Set1_ascend_smlg_dot.png"" width=""480"" height=""420"" style=""object-fit:contain;"">
                            </div>
                        </div>","-111","html-slider-response",68,346456,"0.0-64.0","fvnyq9c7tk",18,"","","","","","",0,"",NA,"","Happy","images/19_Happy_hi_lo_2_Set1_ascend_smlg_dot.png",NA,NA
NA,"<div style=""width:500px;"">
                            <p style=""font-size:50px; font-weight:bold;""
                            >Happy</p>
                            <div style=""width:480px; margin: auto;"">
                                <img src=""images/19_Happy_hi_md_2_tab20_decend_lgsm_dot.png"" width=""480"" height=""420"" style=""object-fit:contain;"">
                            </div>
                        </div>","106","html-slider-response",69,349875,"0.0-65.0","fvnyq9c7tk",18,"","","","","","",0,"",NA,"","Happy","images/19_Happy_hi_md_2_tab20_decend_lgsm_dot.png",NA,NA
NA,"<div style=""width:500px;"">
                            <p style=""font-size:50px; font-weight:bold;""
                            >Happy</p>
                            <div style=""width:480px; margin: auto;"">
                                <img src=""images/19_Happy_hi_hi_1_Set1_ascend_smlg_dot.png"" width=""480"" height=""420"" style=""object-fit:contain;"">
                            </div>
                        </div>","200","html-slider-response",70,352472,"0.0-66.0","fvnyq9c7tk",18,"","","","","","",0,"",NA,"","Happy","images/19_Happy_hi_hi_1_Set1_ascend_smlg_dot.png",NA,NA
NA,"<div style=""width:500px;"">
                            <p style=""font-size:50px; font-weight:bold;""
                            >Happy</p>
                            <div style=""width:480px; margin: auto;"">
                                <img src=""images/19_Happy_hi_lo_3_Dark2_ascend_smlg_dot.png"" width=""480"" height=""420"" style=""object-fit:contain;"">
                            </div>
                        </div>","-42","html-slider-response",71,356911,"0.0-67.0","fvnyq9c7tk",18,"","","","","","",0,"",NA,"","Happy","images/19_Happy_hi_lo_3_Dark2_ascend_smlg_dot.png",NA,NA
NA,"<div style=""width:500px;"">
                            <p style=""font-size:50px; font-weight:bold;""
                            >Happy</p>
                            <div style=""width:480px; margin: auto;"">
                                <img src=""images/19_Happy_med_lo_1_tab20b_decend_lgsm_dot.png"" width=""480"" height=""420"" style=""object-fit:contain;"">
                            </div>
                        </div>","-200","html-slider-response",72,360118,"0.0-68.0","fvnyq9c7tk",18,"","","","","","",0,"",NA,"","Happy","images/19_Happy_med_lo_1_tab20b_decend_lgsm_dot.png",NA,NA
NA,"<div style=""width:500px;"">
                            <p style=""font-size:50px; font-weight:bold;""
                            >Happy</p>
                            <div style=""width:480px; margin: auto;"">
                                <img src=""images/19_Happy_lo_lo_3_tab20_ascend_lgsm_dot.png"" width=""480"" height=""420"" style=""object-fit:contain;"">
                            </div>
                        </div>","-200","html-slider-response",73,362744,"0.0-69.0","fvnyq9c7tk",18,"","","","","","",0,"",NA,"","Happy","images/19_Happy_lo_lo_3_tab20_ascend_lgsm_dot.png",NA,NA
NA,"<div style=""width:500px;"">
                            <p style=""font-size:50px; font-weight:bold;""
                            >Happy</p>
                            <div style=""width:480px; margin: auto;"">
                                <img src=""images/19_Happy_hi_md_2_tab20_ascend_smlg_dot.png"" width=""480"" height=""420"" style=""object-fit:contain;"">
                            </div>
                        </div>","200","html-slider-response",74,365874,"0.0-70.0","fvnyq9c7tk",18,"","","","","","",0,"",NA,"","Happy","images/19_Happy_hi_md_2_tab20_ascend_smlg_dot.png",NA,NA
NA,"<div style=""width:500px;"">
                            <p style=""font-size:50px; font-weight:bold;""
                            >Happy</p>
                            <div style=""width:480px; margin: auto;"">
                                <img src=""images/19_Happy_hi_hi_3_Paired_ascend_lgsm_dot.png"" width=""480"" height=""420"" style=""object-fit:contain;"">
                            </div>
                        </div>","200","html-slider-response",75,368595,"0.0-71.0","fvnyq9c7tk",18,"","","","","","",0,"",NA,"","Happy","images/19_Happy_hi_hi_3_Paired_ascend_lgsm_dot.png",NA,NA
NA,"<div style=""width:500px;"">
                            <p style=""font-size:50px; font-weight:bold;""
                            >Happy</p>
                            <div style=""width:480px; margin: auto;"">
                                <img src=""images/19_Happy_med_med_1_tab20c_decend_smlg_dot.png"" width=""480"" height=""420"" style=""object-fit:contain;"">
                            </div>
                        </div>","48","html-slider-response",76,371097,"0.0-72.0","fvnyq9c7tk",18,"","","","","","",0,"",NA,"","Happy","images/19_Happy_med_med_1_tab20c_decend_smlg_dot.png",NA,NA
NA,"<div style=""width:500px;"">
                            <p style=""font-size:50px; font-weight:bold;""
                            >Happy</p>
                            <div style=""width:480px; margin: auto;"">
                                <img src=""images/19_Happy_hi_lo_1_tab20_decend_smlg_dot.png"" width=""480"" height=""420"" style=""object-fit:contain;"">
                            </div>
                        </div>","-66","html-slider-response",77,377725,"0.0-73.0","fvnyq9c7tk",18,"","","","","","",0,"",NA,"","Happy","images/19_Happy_hi_lo_1_tab20_decend_smlg_dot.png",NA,NA
NA,"<div style=""width:500px;"">
                            <p style=""font-size:50px; font-weight:bold;""
                            >Happy</p>
                            <div style=""width:480px; margin: auto;"">
                                <img src=""images/19_Happy_med_lo_3_tab10new_decend_smlg_dot.png"" width=""480"" height=""420"" style=""object-fit:contain;"">
                            </div>
                        </div>","-200","html-slider-response",78,380089,"0.0-74.0","fvnyq9c7tk",18,"","","","","","",0,"",NA,"","Happy","images/19_Happy_med_lo_3_tab10new_decend_smlg_dot.png",NA,NA
NA,"<div style=""width:500px;"">
                            <p style=""font-size:50px; font-weight:bold;""
                            >Happy</p>
                            <div style=""width:480px; margin: auto;"">
                                <img src=""images/19_Happy_hi_lo_3_Dark2_decend_smlg_dot.png"" width=""480"" height=""420"" style=""object-fit:contain;"">
                            </div>
                        </div>","-110","html-slider-response",79,382861,"0.0-75.0","fvnyq9c7tk",18,"","","","","","",0,"",NA,"","Happy","images/19_Happy_hi_lo_3_Dark2_decend_smlg_dot.png",NA,NA
NA,"<div style=""width:500px;"">
                            <p style=""font-size:50px; font-weight:bold;""
                            >Happy</p>
                            <div style=""width:480px; margin: auto;"">
                                <img src=""images/19_Happy_med_lo_3_tab10new_ascend_lgsm_dot.png"" width=""480"" height=""420"" style=""object-fit:contain;"">
                            </div>
                        </div>","-200","html-slider-response",80,385623,"0.0-76.0","fvnyq9c7tk",18,"","","","","","",0,"",NA,"","Happy","images/19_Happy_med_lo_3_tab10new_ascend_lgsm_dot.png",NA,NA
NA,"<div style=""width:500px;"">
                            <p style=""font-size:50px; font-weight:bold;""
                            >Happy</p>
                            <div style=""width:480px; margin: auto;"">
                                <img src=""images/19_Happy_med_med_3_Set3_ascend_smlg_dot.png"" width=""480"" height=""420"" style=""object-fit:contain;"">
                            </div>
                        </div>","40","html-slider-response",81,388072,"0.0-77.0","fvnyq9c7tk",18,"","","","","","",0,"",NA,"","Happy","images/19_Happy_med_med_3_Set3_ascend_smlg_dot.png",NA,NA
NA,"<div style=""width:500px;"">
                            <p style=""font-size:50px; font-weight:bold;""
                            >Happy</p>
                            <div style=""width:480px; margin: auto;"">
                                <img src=""images/19_Happy_hi_lo_1_tab20_ascend_smlg_dot.png"" width=""480"" height=""420"" style=""object-fit:contain;"">
                            </div>
                        </div>","-110","html-slider-response",82,391763,"0.0-78.0","fvnyq9c7tk",18,"","","","","","",0,"",NA,"","Happy","images/19_Happy_hi_lo_1_tab20_ascend_smlg_dot.png",NA,NA
NA,"<div style=""width:500px;"">
                            <p style=""font-size:50px; font-weight:bold;""
                            >Happy</p>
                            <div style=""width:480px; margin: auto;"">
                                <img src=""images/19_Happy_hi_lo_3_Dark2_decend_lgsm_dot.png"" width=""480"" height=""420"" style=""object-fit:contain;"">
                            </div>
                        </div>","-115","html-slider-response",83,394944,"0.0-79.0","fvnyq9c7tk",18,"","","","","","",0,"",NA,"","Happy","images/19_Happy_hi_lo_3_Dark2_decend_lgsm_dot.png",NA,NA
NA,"<div style=""width:500px;"">
                            <p style=""font-size:50px; font-weight:bold;""
                            >Happy</p>
                            <div style=""width:480px; margin: auto;"">
                                <img src=""images/19_Happy_lo_lo_3_tab20_ascend_smlg_dot.png"" width=""480"" height=""420"" style=""object-fit:contain;"">
                            </div>
                        </div>","-200","html-slider-response",84,409754,"0.0-80.0","fvnyq9c7tk",18,"","","","","","",0,"",NA,"","Happy","images/19_Happy_lo_lo_3_tab20_ascend_smlg_dot.png",NA,NA
NA,"<div style=""width:500px;"">
                            <p style=""font-size:50px; font-weight:bold;""
                            >Happy</p>
                            <div style=""width:480px; margin: auto;"">
                                <img src=""images/19_Happy_hi_lo_2_Set1_ascend_lgsm_dot.png"" width=""480"" height=""420"" style=""object-fit:contain;"">
                            </div>
                        </div>","-110","html-slider-response",85,414645,"0.0-81.0","fvnyq9c7tk",18,"","","","","","",0,"",NA,"","Happy","images/19_Happy_hi_lo_2_Set1_ascend_lgsm_dot.png",NA,NA
NA,"<div style=""width:500px;"">
                            <p style=""font-size:50px; font-weight:bold;""
                            >Happy</p>
                            <div style=""width:480px; margin: auto;"">
                                <img src=""images/19_Happy_lo_lo_3_tab20_decend_smlg_dot.png"" width=""480"" height=""420"" style=""object-fit:contain;"">
                            </div>
                        </div>","-200","html-slider-response",86,417176,"0.0-82.0","fvnyq9c7tk",18,"","","","","","",0,"",NA,"","Happy","images/19_Happy_lo_lo_3_tab20_decend_smlg_dot.png",NA,NA
NA,"<div style=""width:500px;"">
                            <p style=""font-size:50px; font-weight:bold;""
                            >Happy</p>
                            <div style=""width:480px; margin: auto;"">
                                <img src=""images/19_Happy_med_med_3_Set3_decend_smlg_dot.png"" width=""480"" height=""420"" style=""object-fit:contain;"">
                            </div>
                        </div>","26","html-slider-response",87,421460,"0.0-83.0","fvnyq9c7tk",18,"","","","","","",0,"",NA,"","Happy","images/19_Happy_med_med_3_Set3_decend_smlg_dot.png",NA,NA
NA,"<div style=""width:500px;"">
                            <p style=""font-size:50px; font-weight:bold;""
                            >Happy</p>
                            <div style=""width:480px; margin: auto;"">
                                <img src=""images/19_Happy_med_med_2_tab20b_decend_lgsm_dot.png"" width=""480"" height=""420"" style=""object-fit:contain;"">
                            </div>
                        </div>","65","html-slider-response",88,424113,"0.0-84.0","fvnyq9c7tk",18,"","","","","","",0,"",NA,"","Happy","images/19_Happy_med_med_2_tab20b_decend_lgsm_dot.png",NA,NA
NA,"<div style=""width:500px;"">
                            <p style=""font-size:50px; font-weight:bold;""
                            >Happy</p>
                            <div style=""width:480px; margin: auto;"">
                                <img src=""images/19_Happy_hi_lo_3_Dark2_ascend_lgsm_dot.png"" width=""480"" height=""420"" style=""object-fit:contain;"">
                            </div>
                        </div>","-114","html-slider-response",89,426841,"0.0-85.0","fvnyq9c7tk",18,"","","","","","",0,"",NA,"","Happy","images/19_Happy_hi_lo_3_Dark2_ascend_lgsm_dot.png",NA,NA
2253,"<p>Great Job! You've finished block 1.<br></br> You have 4 block(s) left to go.<br></br></p>","0","html-button-response",90,429598,"0.0-86.0","fvnyq9c7tk",18,"","","","","","",NA,"",NA,"","","",NA,NA
2490,"<p>In this block of trials, you will be asked to rate how much you associate each texture with the concept</p >
                        <p style = 'font-size:150%; font-weight: bold'>Disgust</p><br></br>","0","html-button-response",91,432090,"0.0-87.0","fvnyq9c7tk",18,"","","","","","",NA,"",NA,"","","",NA,NA
NA,"<div style=""width:500px;"">
                            <p style=""font-size:50px; font-weight:bold;""
                            >Disgust</p>
                            <div style=""width:480px; margin: auto;"">
                                <img src=""images/19_Disgust_lo_lo_3_tab20_decend_lgsm_dot.png"" width=""480"" height=""420"" style=""object-fit:contain;"">
                            </div>
                        </div>","-58","html-slider-response",92,445612,"0.0-88.0","fvnyq9c7tk",18,"","","","","","",0,"",NA,"","Disgust","images/19_Disgust_lo_lo_3_tab20_decend_lgsm_dot.png",NA,NA
NA,"<div style=""width:500px;"">
                            <p style=""font-size:50px; font-weight:bold;""
                            >Disgust</p>
                            <div style=""width:480px; margin: auto;"">
                                <img src=""images/19_Disgust_med_med_1_tab20b_decend_smlg_dot.png"" width=""480"" height=""420"" style=""object-fit:contain;"">
                            </div>
                        </div>","-54","html-slider-response",93,449779,"0.0-89.0","fvnyq9c7tk",18,"","","","","","",0,"",NA,"","Disgust","images/19_Disgust_med_med_1_tab20b_decend_smlg_dot.png",NA,NA
NA,"<div style=""width:500px;"">
                            <p style=""font-size:50px; font-weight:bold;""
                            >Disgust</p>
                            <div style=""width:480px; margin: auto;"">
                                <img src=""images/19_Disgust_med_med_2_tab20_decend_smlg_dot.png"" width=""480"" height=""420"" style=""object-fit:contain;"">
                            </div>
                        </div>","-98","html-slider-response",94,453220,"0.0-90.0","fvnyq9c7tk",18,"","","","","","",0,"",NA,"","Disgust","images/19_Disgust_med_med_2_tab20_decend_smlg_dot.png",NA,NA
NA,"<div style=""width:500px;"">
                            <p style=""font-size:50px; font-weight:bold;""
                            >Disgust</p>
                            <div style=""width:480px; margin: auto;"">
                                <img src=""images/19_Disgust_med_lo_3_Pastel2_decend_lgsm_dot.png"" width=""480"" height=""420"" style=""object-fit:contain;"">
                            </div>
                        </div>","-82","html-slider-response",95,459829,"0.0-91.0","fvnyq9c7tk",18,"","","","","","",0,"",NA,"","Disgust","images/19_Disgust_med_lo_3_Pastel2_decend_lgsm_dot.png",NA,NA
NA,"<div style=""width:500px;"">
                            <p style=""font-size:50px; font-weight:bold;""
                            >Disgust</p>
                            <div style=""width:480px; margin: auto;"">
                                <img src=""images/19_Disgust_hi_hi_1_tab20b_decend_lgsm_dot.png"" width=""480"" height=""420"" style=""object-fit:contain;"">
                            </div>
                        </div>","91","html-slider-response",96,464024,"0.0-92.0","fvnyq9c7tk",18,"","","","","","",0,"",NA,"","Disgust","images/19_Disgust_hi_hi_1_tab20b_decend_lgsm_dot.png",NA,NA
NA,"<div style=""width:500px;"">
                            <p style=""font-size:50px; font-weight:bold;""
                            >Disgust</p>
                            <div style=""width:480px; margin: auto;"">
                                <img src=""images/19_Disgust_hi_hi_2_tab20_decend_smlg_dot.png"" width=""480"" height=""420"" style=""object-fit:contain;"">
                            </div>
                        </div>","200","html-slider-response",97,466944,"0.0-93.0","fvnyq9c7tk",18,"","","","","","",0,"",NA,"","Disgust","images/19_Disgust_hi_hi_2_tab20_decend_smlg_dot.png",NA,NA
NA,"<div style=""width:500px;"">
                            <p style=""font-size:50px; font-weight:bold;""
                            >Disgust</p>
                            <div style=""width:480px; margin: auto;"">
                                <img src=""images/19_Disgust_hi_hi_1_tab20b_ascend_lgsm_dot.png"" width=""480"" height=""420"" style=""object-fit:contain;"">
                            </div>
                        </div>","200","html-slider-response",98,468840,"0.0-94.0","fvnyq9c7tk",18,"","","","","","",0,"",NA,"","Disgust","images/19_Disgust_hi_hi_1_tab20b_ascend_lgsm_dot.png",NA,NA
NA,"<div style=""width:500px;"">
                            <p style=""font-size:50px; font-weight:bold;""
                            >Disgust</p>
                            <div style=""width:480px; margin: auto;"">
                                <img src=""images/19_Disgust_med_med_1_tab20b_decend_lgsm_dot.png"" width=""480"" height=""420"" style=""object-fit:contain;"">
                            </div>
                        </div>","-200","html-slider-response",99,473011,"0.0-95.0","fvnyq9c7tk",18,"","","","","","",0,"",NA,"","Disgust","images/19_Disgust_med_med_1_tab20b_decend_lgsm_dot.png",NA,NA
NA,"<div style=""width:500px;"">
                            <p style=""font-size:50px; font-weight:bold;""
                            >Disgust</p>
                            <div style=""width:480px; margin: auto;"">
                                <img src=""images/19_Disgust_med_lo_1_tab20c_decend_lgsm_dot.png"" width=""480"" height=""420"" style=""object-fit:contain;"">
                            </div>
                        </div>","-200","html-slider-response",100,475846,"0.0-96.0","fvnyq9c7tk",18,"","","","","","",0,"",NA,"","Disgust","images/19_Disgust_med_lo_1_tab20c_decend_lgsm_dot.png",NA,NA
NA,"<div style=""width:500px;"">
                            <p style=""font-size:50px; font-weight:bold;""
                            >Disgust</p>
                            <div style=""width:480px; margin: auto;"">
                                <img src=""images/19_Disgust_hi_md_3_tab20_ascend_smlg_dot.png"" width=""480"" height=""420"" style=""object-fit:contain;"">
                            </div>
                        </div>","38","html-slider-response",101,479011,"0.0-97.0","fvnyq9c7tk",18,"","","","","","",0,"",NA,"","Disgust","images/19_Disgust_hi_md_3_tab20_ascend_smlg_dot.png",NA,NA
NA,"<div style=""width:500px;"">
                            <p style=""font-size:50px; font-weight:bold;""
                            >Disgust</p>
                            <div style=""width:480px; margin: auto;"">
                                <img src=""images/19_Disgust_med_lo_2_tab20_decend_lgsm_dot.png"" width=""480"" height=""420"" style=""object-fit:contain;"">
                            </div>
                        </div>","-200","html-slider-response",102,481529,"0.0-98.0","fvnyq9c7tk",18,"","","","","","",0,"",NA,"","Disgust","images/19_Disgust_med_lo_2_tab20_decend_lgsm_dot.png",NA,NA
NA,"<div style=""width:500px;"">
                            <p style=""font-size:50px; font-weight:bold;""
                            >Disgust</p>
                            <div style=""width:480px; margin: auto;"">
                                <img src=""images/19_Disgust_med_med_3_Paired_ascend_smlg_dot.png"" width=""480"" height=""420"" style=""object-fit:contain;"">
                            </div>
                        </div>","-62","html-slider-response",103,485798,"0.0-99.0","fvnyq9c7tk",18,"","","","","","",0,"",NA,"","Disgust","images/19_Disgust_med_med_3_Paired_ascend_smlg_dot.png",NA,NA
NA,"<div style=""width:500px;"">
                            <p style=""font-size:50px; font-weight:bold;""
                            >Disgust</p>
                            <div style=""width:480px; margin: auto;"">
                                <img src=""images/19_Disgust_hi_hi_3_Dark2_ascend_lgsm_dot.png"" width=""480"" height=""420"" style=""object-fit:contain;"">
                            </div>
                        </div>","51","html-slider-response",104,488888,"0.0-100.0","fvnyq9c7tk",18,"","","","","","",0,"",NA,"","Disgust","images/19_Disgust_hi_hi_3_Dark2_ascend_lgsm_dot.png",NA,NA
NA,"<div style=""width:500px;"">
                            <p style=""font-size:50px; font-weight:bold;""
                            >Disgust</p>
                            <div style=""width:480px; margin: auto;"">
                                <img src=""images/19_Disgust_med_med_1_tab20b_ascend_smlg_dot.png"" width=""480"" height=""420"" style=""object-fit:contain;"">
                            </div>
                        </div>","-200","html-slider-response",105,492179,"0.0-101.0","fvnyq9c7tk",18,"","","","","","",0,"",NA,"","Disgust","images/19_Disgust_med_med_1_tab20b_ascend_smlg_dot.png",NA,NA
NA,"<div style=""width:500px;"">
                            <p style=""font-size:50px; font-weight:bold;""
                            >Disgust</p>
                            <div style=""width:480px; margin: auto;"">
                                <img src=""images/19_Disgust_hi_md_3_tab20_ascend_lgsm_dot.png"" width=""480"" height=""420"" style=""object-fit:contain;"">
                            </div>
                        </div>","-39","html-slider-response",106,496188,"0.0-102.0","fvnyq9c7tk",18,"","","","","","",0,"",NA,"","Disgust","images/19_Disgust_hi_md_3_tab20_ascend_lgsm_dot.png",NA,NA
NA,"<div style=""width:500px;"">
                            <p style=""font-size:50px; font-weight:bold;""
                            >Disgust</p>
                            <div style=""width:480px; margin: auto;"">
                                <img src=""images/19_Disgust_hi_lo_2_tab20_ascend_lgsm_dot.png"" width=""480"" height=""420"" style=""object-fit:contain;"">
                            </div>
                        </div>","61","html-slider-response",107,498752,"0.0-103.0","fvnyq9c7tk",18,"","","","","","",0,"",NA,"","Disgust","images/19_Disgust_hi_lo_2_tab20_ascend_lgsm_dot.png",NA,NA
NA,"<div style=""width:500px;"">
                            <p style=""font-size:50px; font-weight:bold;""
                            >Disgust</p>
                            <div style=""width:480px; margin: auto;"">
                                <img src=""images/19_Disgust_med_lo_2_tab20_ascend_smlg_dot.png"" width=""480"" height=""420"" style=""object-fit:contain;"">
                            </div>
                        </div>","-154","html-slider-response",108,502989,"0.0-104.0","fvnyq9c7tk",18,"","","","","","",0,"",NA,"","Disgust","images/19_Disgust_med_lo_2_tab20_ascend_smlg_dot.png",NA,NA
NA,"<div style=""width:500px;"">
                            <p style=""font-size:50px; font-weight:bold;""
                            >Disgust</p>
                            <div style=""width:480px; margin: auto;"">
                                <img src=""images/19_Disgust_med_med_3_Paired_decend_smlg_dot.png"" width=""480"" height=""420"" style=""object-fit:contain;"">
                            </div>
                        </div>","41","html-slider-response",109,507736,"0.0-105.0","fvnyq9c7tk",18,"","","","","","",0,"",NA,"","Disgust","images/19_Disgust_med_med_3_Paired_decend_smlg_dot.png",NA,NA
NA,"<div style=""width:500px;"">
                            <p style=""font-size:50px; font-weight:bold;""
                            >Disgust</p>
                            <div style=""width:480px; margin: auto;"">
                                <img src=""images/19_Disgust_med_lo_1_tab20c_decend_smlg_dot.png"" width=""480"" height=""420"" style=""object-fit:contain;"">
                            </div>
                        </div>","-32","html-slider-response",110,510543,"0.0-106.0","fvnyq9c7tk",18,"","","","","","",0,"",NA,"","Disgust","images/19_Disgust_med_lo_1_tab20c_decend_smlg_dot.png",NA,NA
NA,"<div style=""width:500px;"">
                            <p style=""font-size:50px; font-weight:bold;""
                            >Disgust</p>
                            <div style=""width:480px; margin: auto;"">
                                <img src=""images/19_Disgust_med_lo_3_Pastel2_ascend_smlg_dot.png"" width=""480"" height=""420"" style=""object-fit:contain;"">
                            </div>
                        </div>","-200","html-slider-response",111,514929,"0.0-107.0","fvnyq9c7tk",18,"","","","","","",0,"",NA,"","Disgust","images/19_Disgust_med_lo_3_Pastel2_ascend_smlg_dot.png",NA,NA
NA,"<div style=""width:500px;"">
                            <p style=""font-size:50px; font-weight:bold;""
                            >Disgust</p>
                            <div style=""width:480px; margin: auto;"">
                                <img src=""images/19_Disgust_med_lo_1_tab20c_ascend_smlg_dot.png"" width=""480"" height=""420"" style=""object-fit:contain;"">
                            </div>
                        </div>","29","html-slider-response",112,518799,"0.0-108.0","fvnyq9c7tk",18,"","","","","","",0,"",NA,"","Disgust","images/19_Disgust_med_lo_1_tab20c_ascend_smlg_dot.png",NA,NA
NA,"<div style=""width:500px;"">
                            <p style=""font-size:50px; font-weight:bold;""
                            >Disgust</p>
                            <div style=""width:480px; margin: auto;"">
                                <img src=""images/19_Disgust_lo_lo_1_tab20c_decend_lgsm_dot.png"" width=""480"" height=""420"" style=""object-fit:contain;"">
                            </div>
                        </div>","-200","html-slider-response",113,524415,"0.0-109.0","fvnyq9c7tk",18,"","","","","","",0,"",NA,"","Disgust","images/19_Disgust_lo_lo_1_tab20c_decend_lgsm_dot.png",NA,NA
NA,"<div style=""width:500px;"">
                            <p style=""font-size:50px; font-weight:bold;""
                            >Disgust</p>
                            <div style=""width:480px; margin: auto;"">
                                <img src=""images/19_Disgust_hi_lo_1_tab20b_decend_smlg_dot.png"" width=""480"" height=""420"" style=""object-fit:contain;"">
                            </div>
                        </div>","108","html-slider-response",114,526979,"0.0-110.0","fvnyq9c7tk",18,"","","","","","",0,"",NA,"","Disgust","images/19_Disgust_hi_lo_1_tab20b_decend_smlg_dot.png",NA,NA
NA,"<div style=""width:500px;"">
                            <p style=""font-size:50px; font-weight:bold;""
                            >Disgust</p>
                            <div style=""width:480px; margin: auto;"">
                                <img src=""images/19_Disgust_hi_hi_3_Dark2_ascend_smlg_dot.png"" width=""480"" height=""420"" style=""object-fit:contain;"">
                            </div>
                        </div>","101","html-slider-response",115,529580,"0.0-111.0","fvnyq9c7tk",18,"","","","","","",0,"",NA,"","Disgust","images/19_Disgust_hi_hi_3_Dark2_ascend_smlg_dot.png",NA,NA
NA,"<div style=""width:500px;"">
                            <p style=""font-size:50px; font-weight:bold;""
                            >Disgust</p>
                            <div style=""width:480px; margin: auto;"">
                                <img src=""images/19_Disgust_hi_hi_1_tab20b_decend_smlg_dot.png"" width=""480"" height=""420"" style=""object-fit:contain;"">
                            </div>
                        </div>","200","html-slider-response",116,531607,"0.0-112.0","fvnyq9c7tk",18,"","","","","","",0,"",NA,"","Disgust","images/19_Disgust_hi_hi_1_tab20b_decend_smlg_dot.png",NA,NA
NA,"<div style=""width:500px;"">
                            <p style=""font-size:50px; font-weight:bold;""
                            >Disgust</p>
                            <div style=""width:480px; margin: auto;"">
                                <img src=""images/19_Disgust_med_med_1_tab20b_ascend_lgsm_dot.png"" width=""480"" height=""420"" style=""object-fit:contain;"">
                            </div>
                        </div>","-200","html-slider-response",117,534765,"0.0-113.0","fvnyq9c7tk",18,"","","","","","",0,"",NA,"","Disgust","images/19_Disgust_med_med_1_tab20b_ascend_lgsm_dot.png",NA,NA
NA,"<div style=""width:500px;"">
                            <p style=""font-size:50px; font-weight:bold;""
                            >Disgust</p>
                            <div style=""width:480px; margin: auto;"">
                                <img src=""images/19_Disgust_lo_lo_1_tab20c_ascend_lgsm_dot.png"" width=""480"" height=""420"" style=""object-fit:contain;"">
                            </div>
                        </div>","-39","html-slider-response",118,537208,"0.0-114.0","fvnyq9c7tk",18,"","","","","","",0,"",NA,"","Disgust","images/19_Disgust_lo_lo_1_tab20c_ascend_lgsm_dot.png",NA,NA
NA,"<div style=""width:500px;"">
                            <p style=""font-size:50px; font-weight:bold;""
                            >Disgust</p>
                            <div style=""width:480px; margin: auto;"">
                                <img src=""images/19_Disgust_hi_md_2_Dark2_decend_lgsm_dot.png"" width=""480"" height=""420"" style=""object-fit:contain;"">
                            </div>
                        </div>","102","html-slider-response",119,540443,"0.0-115.0","fvnyq9c7tk",18,"","","","","","",0,"",NA,"","Disgust","images/19_Disgust_hi_md_2_Dark2_decend_lgsm_dot.png",NA,NA
NA,"<div style=""width:500px;"">
                            <p style=""font-size:50px; font-weight:bold;""
                            >Disgust</p>
                            <div style=""width:480px; margin: auto;"">
                                <img src=""images/19_Disgust_hi_md_2_Dark2_decend_smlg_dot.png"" width=""480"" height=""420"" style=""object-fit:contain;"">
                            </div>
                        </div>","110","html-slider-response",120,543364,"0.0-116.0","fvnyq9c7tk",18,"","","","","","",0,"",NA,"","Disgust","images/19_Disgust_hi_md_2_Dark2_decend_smlg_dot.png",NA,NA
NA,"<div style=""width:500px;"">
                            <p style=""font-size:50px; font-weight:bold;""
                            >Disgust</p>
                            <div style=""width:480px; margin: auto;"">
                                <img src=""images/19_Disgust_lo_lo_3_tab20_ascend_lgsm_dot.png"" width=""480"" height=""420"" style=""object-fit:contain;"">
                            </div>
                        </div>","-154","html-slider-response",121,547715,"0.0-117.0","fvnyq9c7tk",18,"","","","","","",0,"",NA,"","Disgust","images/19_Disgust_lo_lo_3_tab20_ascend_lgsm_dot.png",NA,NA
NA,"<div style=""width:500px;"">
                            <p style=""font-size:50px; font-weight:bold;""
                            >Disgust</p>
                            <div style=""width:480px; margin: auto;"">
                                <img src=""images/19_Disgust_med_lo_3_Pastel2_ascend_lgsm_dot.png"" width=""480"" height=""420"" style=""object-fit:contain;"">
                            </div>
                        </div>","-60","html-slider-response",122,550898,"0.0-118.0","fvnyq9c7tk",18,"","","","","","",0,"",NA,"","Disgust","images/19_Disgust_med_lo_3_Pastel2_ascend_lgsm_dot.png",NA,NA
NA,"<div style=""width:500px;"">
                            <p style=""font-size:50px; font-weight:bold;""
                            >Disgust</p>
                            <div style=""width:480px; margin: auto;"">
                                <img src=""images/19_Disgust_lo_lo_2_Pastel1_decend_lgsm_dot.png"" width=""480"" height=""420"" style=""object-fit:contain;"">
                            </div>
                        </div>","-62","html-slider-response",123,553465,"0.0-119.0","fvnyq9c7tk",18,"","","","","","",0,"",NA,"","Disgust","images/19_Disgust_lo_lo_2_Pastel1_decend_lgsm_dot.png",NA,NA
NA,"<div style=""width:500px;"">
                            <p style=""font-size:50px; font-weight:bold;""
                            >Disgust</p>
                            <div style=""width:480px; margin: auto;"">
                                <img src=""images/19_Disgust_lo_lo_3_tab20_ascend_smlg_dot.png"" width=""480"" height=""420"" style=""object-fit:contain;"">
                            </div>
                        </div>","-99","html-slider-response",124,556198,"0.0-120.0","fvnyq9c7tk",18,"","","","","","",0,"",NA,"","Disgust","images/19_Disgust_lo_lo_3_tab20_ascend_smlg_dot.png",NA,NA
NA,"<div style=""width:500px;"">
                            <p style=""font-size:50px; font-weight:bold;""
                            >Disgust</p>
                            <div style=""width:480px; margin: auto;"">
                                <img src=""images/19_Disgust_hi_lo_2_tab20_decend_lgsm_dot.png"" width=""480"" height=""420"" style=""object-fit:contain;"">
                            </div>
                        </div>","102","html-slider-response",125,559616,"0.0-121.0","fvnyq9c7tk",18,"","","","","","",0,"",NA,"","Disgust","images/19_Disgust_hi_lo_2_tab20_decend_lgsm_dot.png",NA,NA
NA,"<div style=""width:500px;"">
                            <p style=""font-size:50px; font-weight:bold;""
                            >Disgust</p>
                            <div style=""width:480px; margin: auto;"">
                                <img src=""images/19_Disgust_hi_md_3_tab20_decend_smlg_dot.png"" width=""480"" height=""420"" style=""object-fit:contain;"">
                            </div>
                        </div>","112","html-slider-response",126,562433,"0.0-122.0","fvnyq9c7tk",18,"","","","","","",0,"",NA,"","Disgust","images/19_Disgust_hi_md_3_tab20_decend_smlg_dot.png",NA,NA
NA,"<div style=""width:500px;"">
                            <p style=""font-size:50px; font-weight:bold;""
                            >Disgust</p>
                            <div style=""width:480px; margin: auto;"">
                                <img src=""images/19_Disgust_hi_md_1_tab20b_ascend_smlg_dot.png"" width=""480"" height=""420"" style=""object-fit:contain;"">
                            </div>
                        </div>","106","html-slider-response",127,565132,"0.0-123.0","fvnyq9c7tk",18,"","","","","","",0,"",NA,"","Disgust","images/19_Disgust_hi_md_1_tab20b_ascend_smlg_dot.png",NA,NA
NA,"<div style=""width:500px;"">
                            <p style=""font-size:50px; font-weight:bold;""
                            >Disgust</p>
                            <div style=""width:480px; margin: auto;"">
                                <img src=""images/19_Disgust_hi_md_2_Dark2_ascend_lgsm_dot.png"" width=""480"" height=""420"" style=""object-fit:contain;"">
                            </div>
                        </div>","101","html-slider-response",128,567696,"0.0-124.0","fvnyq9c7tk",18,"","","","","","",0,"",NA,"","Disgust","images/19_Disgust_hi_md_2_Dark2_ascend_lgsm_dot.png",NA,NA
NA,"<div style=""width:500px;"">
                            <p style=""font-size:50px; font-weight:bold;""
                            >Disgust</p>
                            <div style=""width:480px; margin: auto;"">
                                <img src=""images/19_Disgust_med_lo_2_tab20_ascend_lgsm_dot.png"" width=""480"" height=""420"" style=""object-fit:contain;"">
                            </div>
                        </div>","-76","html-slider-response",129,572170,"0.0-125.0","fvnyq9c7tk",18,"","","","","","",0,"",NA,"","Disgust","images/19_Disgust_med_lo_2_tab20_ascend_lgsm_dot.png",NA,NA
NA,"<div style=""width:500px;"">
                            <p style=""font-size:50px; font-weight:bold;""
                            >Disgust</p>
                            <div style=""width:480px; margin: auto;"">
                                <img src=""images/19_Disgust_med_med_2_tab20_ascend_lgsm_dot.png"" width=""480"" height=""420"" style=""object-fit:contain;"">
                            </div>
                        </div>","22","html-slider-response",130,576960,"0.0-126.0","fvnyq9c7tk",18,"","","","","","",0,"",NA,"","Disgust","images/19_Disgust_med_med_2_tab20_ascend_lgsm_dot.png",NA,NA
NA,"<div style=""width:500px;"">
                            <p style=""font-size:50px; font-weight:bold;""
                            >Disgust</p>
                            <div style=""width:480px; margin: auto;"">
                                <img src=""images/19_Disgust_lo_lo_1_tab20c_decend_smlg_dot.png"" width=""480"" height=""420"" style=""object-fit:contain;"">
                            </div>
                        </div>","-200","html-slider-response",131,579247,"0.0-127.0","fvnyq9c7tk",18,"","","","","","",0,"",NA,"","Disgust","images/19_Disgust_lo_lo_1_tab20c_decend_smlg_dot.png",NA,NA
NA,"<div style=""width:500px;"">
                            <p style=""font-size:50px; font-weight:bold;""
                            >Disgust</p>
                            <div style=""width:480px; margin: auto;"">
                                <img src=""images/19_Disgust_hi_lo_2_tab20_ascend_smlg_dot.png"" width=""480"" height=""420"" style=""object-fit:contain;"">
                            </div>
                        </div>","112","html-slider-response",132,583414,"0.0-128.0","fvnyq9c7tk",18,"","","","","","",0,"",NA,"","Disgust","images/19_Disgust_hi_lo_2_tab20_ascend_smlg_dot.png",NA,NA
NA,"<div style=""width:500px;"">
                            <p style=""font-size:50px; font-weight:bold;""
                            >Disgust</p>
                            <div style=""width:480px; margin: auto;"">
                                <img src=""images/19_Disgust_lo_lo_1_tab20c_ascend_smlg_dot.png"" width=""480"" height=""420"" style=""object-fit:contain;"">
                            </div>
                        </div>","-200","html-slider-response",133,585778,"0.0-129.0","fvnyq9c7tk",18,"","","","","","",0,"",NA,"","Disgust","images/19_Disgust_lo_lo_1_tab20c_ascend_smlg_dot.png",NA,NA
NA,"<div style=""width:500px;"">
                            <p style=""font-size:50px; font-weight:bold;""
                            >Disgust</p>
                            <div style=""width:480px; margin: auto;"">
                                <img src=""images/19_Disgust_med_med_2_tab20_ascend_smlg_dot.png"" width=""480"" height=""420"" style=""object-fit:contain;"">
                            </div>
                        </div>","43","html-slider-response",134,588112,"0.0-130.0","fvnyq9c7tk",18,"","","","","","",0,"",NA,"","Disgust","images/19_Disgust_med_med_2_tab20_ascend_smlg_dot.png",NA,NA
NA,"<div style=""width:500px;"">
                            <p style=""font-size:50px; font-weight:bold;""
                            >Disgust</p>
                            <div style=""width:480px; margin: auto;"">
                                <img src=""images/19_Disgust_hi_lo_3_Paired_ascend_lgsm_dot.png"" width=""480"" height=""420"" style=""object-fit:contain;"">
                            </div>
                        </div>","106","html-slider-response",135,591319,"0.0-131.0","fvnyq9c7tk",18,"","","","","","",0,"",NA,"","Disgust","images/19_Disgust_hi_lo_3_Paired_ascend_lgsm_dot.png",NA,NA
NA,"<div style=""width:500px;"">
                            <p style=""font-size:50px; font-weight:bold;""
                            >Disgust</p>
                            <div style=""width:480px; margin: auto;"">
                                <img src=""images/19_Disgust_lo_lo_2_Pastel1_ascend_smlg_dot.png"" width=""480"" height=""420"" style=""object-fit:contain;"">
                            </div>
                        </div>","-200","html-slider-response",136,593499,"0.0-132.0","fvnyq9c7tk",18,"","","","","","",0,"",NA,"","Disgust","images/19_Disgust_lo_lo_2_Pastel1_ascend_smlg_dot.png",NA,NA
NA,"<div style=""width:500px;"">
                            <p style=""font-size:50px; font-weight:bold;""
                            >Disgust</p>
                            <div style=""width:480px; margin: auto;"">
                                <img src=""images/19_Disgust_lo_lo_3_tab20_decend_smlg_dot.png"" width=""480"" height=""420"" style=""object-fit:contain;"">
                            </div>
                        </div>","-200","html-slider-response",137,595636,"0.0-133.0","fvnyq9c7tk",18,"","","","","","",0,"",NA,"","Disgust","images/19_Disgust_lo_lo_3_tab20_decend_smlg_dot.png",NA,NA
NA,"<div style=""width:500px;"">
                            <p style=""font-size:50px; font-weight:bold;""
                            >Disgust</p>
                            <div style=""width:480px; margin: auto;"">
                                <img src=""images/19_Disgust_hi_md_3_tab20_decend_lgsm_dot.png"" width=""480"" height=""420"" style=""object-fit:contain;"">
                            </div>
                        </div>","105","html-slider-response",138,598573,"0.0-134.0","fvnyq9c7tk",18,"","","","","","",0,"",NA,"","Disgust","images/19_Disgust_hi_md_3_tab20_decend_lgsm_dot.png",NA,NA
NA,"<div style=""width:500px;"">
                            <p style=""font-size:50px; font-weight:bold;""
                            >Disgust</p>
                            <div style=""width:480px; margin: auto;"">
                                <img src=""images/19_Disgust_hi_md_1_tab20b_decend_smlg_dot.png"" width=""480"" height=""420"" style=""object-fit:contain;"">
                            </div>
                        </div>","98","html-slider-response",139,600916,"0.0-135.0","fvnyq9c7tk",18,"","","","","","",0,"",NA,"","Disgust","images/19_Disgust_hi_md_1_tab20b_decend_smlg_dot.png",NA,NA
NA,"<div style=""width:500px;"">
                            <p style=""font-size:50px; font-weight:bold;""
                            >Disgust</p>
                            <div style=""width:480px; margin: auto;"">
                                <img src=""images/19_Disgust_hi_lo_1_tab20b_ascend_lgsm_dot.png"" width=""480"" height=""420"" style=""object-fit:contain;"">
                            </div>
                        </div>","109","html-slider-response",140,603149,"0.0-136.0","fvnyq9c7tk",18,"","","","","","",0,"",NA,"","Disgust","images/19_Disgust_hi_lo_1_tab20b_ascend_lgsm_dot.png",NA,NA
NA,"<div style=""width:500px;"">
                            <p style=""font-size:50px; font-weight:bold;""
                            >Disgust</p>
                            <div style=""width:480px; margin: auto;"">
                                <img src=""images/19_Disgust_med_lo_1_tab20c_ascend_lgsm_dot.png"" width=""480"" height=""420"" style=""object-fit:contain;"">
                            </div>
                        </div>","35","html-slider-response",141,606275,"0.0-137.0","fvnyq9c7tk",18,"","","","","","",0,"",NA,"","Disgust","images/19_Disgust_med_lo_1_tab20c_ascend_lgsm_dot.png",NA,NA
NA,"<div style=""width:500px;"">
                            <p style=""font-size:50px; font-weight:bold;""
                            >Disgust</p>
                            <div style=""width:480px; margin: auto;"">
                                <img src=""images/19_Disgust_hi_lo_1_tab20b_decend_lgsm_dot.png"" width=""480"" height=""420"" style=""object-fit:contain;"">
                            </div>
                        </div>","106","html-slider-response",142,608649,"0.0-138.0","fvnyq9c7tk",18,"","","","","","",0,"",NA,"","Disgust","images/19_Disgust_hi_lo_1_tab20b_decend_lgsm_dot.png",NA,NA
NA,"<div style=""width:500px;"">
                            <p style=""font-size:50px; font-weight:bold;""
                            >Disgust</p>
                            <div style=""width:480px; margin: auto;"">
                                <img src=""images/19_Disgust_med_med_2_tab20_decend_lgsm_dot.png"" width=""480"" height=""420"" style=""object-fit:contain;"">
                            </div>
                        </div>","26","html-slider-response",143,612909,"0.0-139.0","fvnyq9c7tk",18,"","","","","","",0,"",NA,"","Disgust","images/19_Disgust_med_med_2_tab20_decend_lgsm_dot.png",NA,NA
NA,"<div style=""width:500px;"">
                            <p style=""font-size:50px; font-weight:bold;""
                            >Disgust</p>
                            <div style=""width:480px; margin: auto;"">
                                <img src=""images/19_Disgust_hi_lo_3_Paired_ascend_smlg_dot.png"" width=""480"" height=""420"" style=""object-fit:contain;"">
                            </div>
                        </div>","106","html-slider-response",144,615372,"0.0-140.0","fvnyq9c7tk",18,"","","","","","",0,"",NA,"","Disgust","images/19_Disgust_hi_lo_3_Paired_ascend_smlg_dot.png",NA,NA
NA,"<div style=""width:500px;"">
                            <p style=""font-size:50px; font-weight:bold;""
                            >Disgust</p>
                            <div style=""width:480px; margin: auto;"">
                                <img src=""images/19_Disgust_hi_lo_2_tab20_decend_smlg_dot.png"" width=""480"" height=""420"" style=""object-fit:contain;"">
                            </div>
                        </div>","105","html-slider-response",145,617948,"0.0-141.0","fvnyq9c7tk",18,"","","","","","",0,"",NA,"","Disgust","images/19_Disgust_hi_lo_2_tab20_decend_smlg_dot.png",NA,NA
NA,"<div style=""width:500px;"">
                            <p style=""font-size:50px; font-weight:bold;""
                            >Disgust</p>
                            <div style=""width:480px; margin: auto;"">
                                <img src=""images/19_Disgust_med_med_3_Paired_decend_lgsm_dot.png"" width=""480"" height=""420"" style=""object-fit:contain;"">
                            </div>
                        </div>","29","html-slider-response",146,620603,"0.0-142.0","fvnyq9c7tk",18,"","","","","","",0,"",NA,"","Disgust","images/19_Disgust_med_med_3_Paired_decend_lgsm_dot.png",NA,NA
NA,"<div style=""width:500px;"">
                            <p style=""font-size:50px; font-weight:bold;""
                            >Disgust</p>
                            <div style=""width:480px; margin: auto;"">
                                <img src=""images/19_Disgust_hi_md_1_tab20b_decend_lgsm_dot.png"" width=""480"" height=""420"" style=""object-fit:contain;"">
                            </div>
                        </div>","109","html-slider-response",147,623167,"0.0-143.0","fvnyq9c7tk",18,"","","","","","",0,"",NA,"","Disgust","images/19_Disgust_hi_md_1_tab20b_decend_lgsm_dot.png",NA,NA
NA,"<div style=""width:500px;"">
                            <p style=""font-size:50px; font-weight:bold;""
                            >Disgust</p>
                            <div style=""width:480px; margin: auto;"">
                                <img src=""images/19_Disgust_lo_lo_2_Pastel1_ascend_lgsm_dot.png"" width=""480"" height=""420"" style=""object-fit:contain;"">
                            </div>
                        </div>","-200","html-slider-response",148,625464,"0.0-144.0","fvnyq9c7tk",18,"","","","","","",0,"",NA,"","Disgust","images/19_Disgust_lo_lo_2_Pastel1_ascend_lgsm_dot.png",NA,NA
NA,"<div style=""width:500px;"">
                            <p style=""font-size:50px; font-weight:bold;""
                            >Disgust</p>
                            <div style=""width:480px; margin: auto;"">
                                <img src=""images/19_Disgust_med_lo_3_Pastel2_decend_smlg_dot.png"" width=""480"" height=""420"" style=""object-fit:contain;"">
                            </div>
                        </div>","-37","html-slider-response",149,628346,"0.0-145.0","fvnyq9c7tk",18,"","","","","","",0,"",NA,"","Disgust","images/19_Disgust_med_lo_3_Pastel2_decend_smlg_dot.png",NA,NA
NA,"<div style=""width:500px;"">
                            <p style=""font-size:50px; font-weight:bold;""
                            >Disgust</p>
                            <div style=""width:480px; margin: auto;"">
                                <img src=""images/19_Disgust_hi_lo_3_Paired_decend_lgsm_dot.png"" width=""480"" height=""420"" style=""object-fit:contain;"">
                            </div>
                        </div>","93","html-slider-response",150,632826,"0.0-146.0","fvnyq9c7tk",18,"","","","","","",0,"",NA,"","Disgust","images/19_Disgust_hi_lo_3_Paired_decend_lgsm_dot.png",NA,NA
NA,"<div style=""width:500px;"">
                            <p style=""font-size:50px; font-weight:bold;""
                            >Disgust</p>
                            <div style=""width:480px; margin: auto;"">
                                <img src=""images/19_Disgust_med_med_3_Paired_ascend_lgsm_dot.png"" width=""480"" height=""420"" style=""object-fit:contain;"">
                            </div>
                        </div>","36","html-slider-response",151,636667,"0.0-147.0","fvnyq9c7tk",18,"","","","","","",0,"",NA,"","Disgust","images/19_Disgust_med_med_3_Paired_ascend_lgsm_dot.png",NA,NA
NA,"<div style=""width:500px;"">
                            <p style=""font-size:50px; font-weight:bold;""
                            >Disgust</p>
                            <div style=""width:480px; margin: auto;"">
                                <img src=""images/19_Disgust_hi_hi_2_tab20_ascend_lgsm_dot.png"" width=""480"" height=""420"" style=""object-fit:contain;"">
                            </div>
                        </div>","200","html-slider-response",152,638841,"0.0-148.0","fvnyq9c7tk",18,"","","","","","",0,"",NA,"","Disgust","images/19_Disgust_hi_hi_2_tab20_ascend_lgsm_dot.png",NA,NA
NA,"<div style=""width:500px;"">
                            <p style=""font-size:50px; font-weight:bold;""
                            >Disgust</p>
                            <div style=""width:480px; margin: auto;"">
                                <img src=""images/19_Disgust_hi_md_1_tab20b_ascend_lgsm_dot.png"" width=""480"" height=""420"" style=""object-fit:contain;"">
                            </div>
                        </div>","105","html-slider-response",153,641950,"0.0-149.0","fvnyq9c7tk",18,"","","","","","",0,"",NA,"","Disgust","images/19_Disgust_hi_md_1_tab20b_ascend_lgsm_dot.png",NA,NA
NA,"<div style=""width:500px;"">
                            <p style=""font-size:50px; font-weight:bold;""
                            >Disgust</p>
                            <div style=""width:480px; margin: auto;"">
                                <img src=""images/19_Disgust_hi_hi_2_tab20_ascend_smlg_dot.png"" width=""480"" height=""420"" style=""object-fit:contain;"">
                            </div>
                        </div>","200","html-slider-response",154,643863,"0.0-150.0","fvnyq9c7tk",18,"","","","","","",0,"",NA,"","Disgust","images/19_Disgust_hi_hi_2_tab20_ascend_smlg_dot.png",NA,NA
NA,"<div style=""width:500px;"">
                            <p style=""font-size:50px; font-weight:bold;""
                            >Disgust</p>
                            <div style=""width:480px; margin: auto;"">
                                <img src=""images/19_Disgust_lo_lo_2_Pastel1_decend_smlg_dot.png"" width=""480"" height=""420"" style=""object-fit:contain;"">
                            </div>
                        </div>","-200","html-slider-response",155,646381,"0.0-151.0","fvnyq9c7tk",18,"","","","","","",0,"",NA,"","Disgust","images/19_Disgust_lo_lo_2_Pastel1_decend_smlg_dot.png",NA,NA
NA,"<div style=""width:500px;"">
                            <p style=""font-size:50px; font-weight:bold;""
                            >Disgust</p>
                            <div style=""width:480px; margin: auto;"">
                                <img src=""images/19_Disgust_hi_lo_1_tab20b_ascend_smlg_dot.png"" width=""480"" height=""420"" style=""object-fit:contain;"">
                            </div>
                        </div>","106","html-slider-response",156,649145,"0.0-152.0","fvnyq9c7tk",18,"","","","","","",0,"",NA,"","Disgust","images/19_Disgust_hi_lo_1_tab20b_ascend_smlg_dot.png",NA,NA
NA,"<div style=""width:500px;"">
                            <p style=""font-size:50px; font-weight:bold;""
                            >Disgust</p>
                            <div style=""width:480px; margin: auto;"">
                                <img src=""images/19_Disgust_hi_hi_3_Dark2_decend_lgsm_dot.png"" width=""480"" height=""420"" style=""object-fit:contain;"">
                            </div>
                        </div>","170","html-slider-response",157,653328,"0.0-153.0","fvnyq9c7tk",18,"","","","","","",0,"",NA,"","Disgust","images/19_Disgust_hi_hi_3_Dark2_decend_lgsm_dot.png",NA,NA
NA,"<div style=""width:500px;"">
                            <p style=""font-size:50px; font-weight:bold;""
                            >Disgust</p>
                            <div style=""width:480px; margin: auto;"">
                                <img src=""images/19_Disgust_hi_lo_3_Paired_decend_smlg_dot.png"" width=""480"" height=""420"" style=""object-fit:contain;"">
                            </div>
                        </div>","106","html-slider-response",158,658411,"0.0-154.0","fvnyq9c7tk",18,"","","","","","",0,"",NA,"","Disgust","images/19_Disgust_hi_lo_3_Paired_decend_smlg_dot.png",NA,NA
NA,"<div style=""width:500px;"">
                            <p style=""font-size:50px; font-weight:bold;""
                            >Disgust</p>
                            <div style=""width:480px; margin: auto;"">
                                <img src=""images/19_Disgust_hi_hi_3_Dark2_decend_smlg_dot.png"" width=""480"" height=""420"" style=""object-fit:contain;"">
                            </div>
                        </div>","200","html-slider-response",159,660948,"0.0-155.0","fvnyq9c7tk",18,"","","","","","",0,"",NA,"","Disgust","images/19_Disgust_hi_hi_3_Dark2_decend_smlg_dot.png",NA,NA
NA,"<div style=""width:500px;"">
                            <p style=""font-size:50px; font-weight:bold;""
                            >Disgust</p>
                            <div style=""width:480px; margin: auto;"">
                                <img src=""images/19_Disgust_hi_hi_1_tab20b_ascend_smlg_dot.png"" width=""480"" height=""420"" style=""object-fit:contain;"">
                            </div>
                        </div>","200","html-slider-response",160,662642,"0.0-156.0","fvnyq9c7tk",18,"","","","","","",0,"",NA,"","Disgust","images/19_Disgust_hi_hi_1_tab20b_ascend_smlg_dot.png",NA,NA
NA,"<div style=""width:500px;"">
                            <p style=""font-size:50px; font-weight:bold;""
                            >Disgust</p>
                            <div style=""width:480px; margin: auto;"">
                                <img src=""images/19_Disgust_hi_hi_2_tab20_decend_lgsm_dot.png"" width=""480"" height=""420"" style=""object-fit:contain;"">
                            </div>
                        </div>","200","html-slider-response",161,664600,"0.0-157.0","fvnyq9c7tk",18,"","","","","","",0,"",NA,"","Disgust","images/19_Disgust_hi_hi_2_tab20_decend_lgsm_dot.png",NA,NA
NA,"<div style=""width:500px;"">
                            <p style=""font-size:50px; font-weight:bold;""
                            >Disgust</p>
                            <div style=""width:480px; margin: auto;"">
                                <img src=""images/19_Disgust_hi_md_2_Dark2_ascend_smlg_dot.png"" width=""480"" height=""420"" style=""object-fit:contain;"">
                            </div>
                        </div>","111","html-slider-response",162,666968,"0.0-158.0","fvnyq9c7tk",18,"","","","","","",0,"",NA,"","Disgust","images/19_Disgust_hi_md_2_Dark2_ascend_smlg_dot.png",NA,NA
NA,"<div style=""width:500px;"">
                            <p style=""font-size:50px; font-weight:bold;""
                            >Disgust</p>
                            <div style=""width:480px; margin: auto;"">
                                <img src=""images/19_Disgust_med_lo_2_tab20_decend_smlg_dot.png"" width=""480"" height=""420"" style=""object-fit:contain;"">
                            </div>
                        </div>","-161","html-slider-response",163,672683,"0.0-159.0","fvnyq9c7tk",18,"","","","","","",0,"",NA,"","Disgust","images/19_Disgust_med_lo_2_tab20_decend_smlg_dot.png",NA,NA
1341,"<p>Great Job! You've finished block 2.<br></br> You have 3 block(s) left to go.<br></br></p>","0","html-button-response",164,674527,"0.0-160.0","fvnyq9c7tk",18,"","","","","","",NA,"",NA,"","","",NA,NA
1687,"<p>In this block of trials, you will be asked to rate how much you associate each texture with the concept</p >
                        <p style = 'font-size:150%; font-weight: bold'>Sad</p><br></br>","0","html-button-response",165,676215,"0.0-161.0","fvnyq9c7tk",18,"","","","","","",NA,"",NA,"","","",NA,NA
NA,"<div style=""width:500px;"">
                            <p style=""font-size:50px; font-weight:bold;""
                            >Sad</p>
                            <div style=""width:480px; margin: auto;"">
                                <img src=""images/19_Sad_hi_md_3_Accent_decend_lgsm_dot.png"" width=""480"" height=""420"" style=""object-fit:contain;"">
                            </div>
                        </div>","108","html-slider-response",166,678824,"0.0-162.0","fvnyq9c7tk",18,"","","","","","",0,"",NA,"","Sad","images/19_Sad_hi_md_3_Accent_decend_lgsm_dot.png",NA,NA
NA,"<div style=""width:500px;"">
                            <p style=""font-size:50px; font-weight:bold;""
                            >Sad</p>
                            <div style=""width:480px; margin: auto;"">
                                <img src=""images/19_Sad_med_lo_1_Set1_ascend_lgsm_dot.png"" width=""480"" height=""420"" style=""object-fit:contain;"">
                            </div>
                        </div>","-61","html-slider-response",167,684174,"0.0-163.0","fvnyq9c7tk",18,"","","","","","",0,"",NA,"","Sad","images/19_Sad_med_lo_1_Set1_ascend_lgsm_dot.png",NA,NA
NA,"<div style=""width:500px;"">
                            <p style=""font-size:50px; font-weight:bold;""
                            >Sad</p>
                            <div style=""width:480px; margin: auto;"">
