"rt","stimulus","response","trial_type","trial_index","time_elapsed","internal_node_id","subject_id","condition_num","success","timeout","failed_images","failed_audio","failed_video","question_order","slider_start","practiceTrial","practiceTrialNum","correct","concept","texture_id","ishihara_plate","correct_response"
1080,"Welcome to our experiment!<p>At the bottom of this screen, you will see a button that says ""Begin Experiment"".<br>Please only click that button when you are ready to complete the 30 minute experiment in one sitting.</p><p> Once you click that button, it will not be possible to restart the experiment.","0","html-button-response",0,1085,"0.0-0.0","kzz4ajz5ma",8,"","","","","","",NA,"",NA,"","","",NA,NA
NA,"","","preload",1,3554,"0.0-1.0","kzz4ajz5ma",8,"true","false","[]","[]","[]","",NA,"",NA,"","","",NA,NA
976,"","","fullscreen",2,5534,"0.0-2.0","kzz4ajz5ma",8,"true","","","","","",NA,"",NA,"","","",NA,NA
4147,"","{""Consent"":[""<strong>I consent</strong>""]}","survey-multi-select",3,9686,"0.0-3.0","kzz4ajz5ma",8,"","","","","","[0]",NA,"",NA,"","","",NA,NA
1161,"Welcome! <p> This experiment involves two parts: demographic information, followed by the experimental task.<p> It will take about 30 minutes to complete both parts.","0","html-button-response",4,10848,"0.0-4.0","kzz4ajz5ma",8,"","","","","","",NA,"",NA,"","","",NA,NA
14688,"","{""Age"":""19"",""Gender"":""female"",""Race/ethnicity"":""white"",""Languages"":""english, spanish""}","survey-text",5,25549,"0.0-5.0","kzz4ajz5ma",8,"","","","","","",NA,"",NA,"","","",NA,NA
15480,"
                        <div>
                            <div style='text-align:left; font-size:18px; line-height:25px; width: 1300px;'>
                                During this experiment you will be asked to rate how much you associate charts with                                different concepts. Below, you can see some examples of the charts you will be asked to rate. Above the charts
                                is the list of concepts. You will be asked
                                to rate how much you associate each chart with each concept on a scale from 'not at all' to 'very much' like the
                                one below. <br>

                        <div style=""text-align: left; width: 1300px;"">
                            <p style=""font-size:18px; line-height:20px; text-align:center; font-weight:bold"">
                                Sad, Disgust, Fearful, Angry, Happy
                            </p>
                        </div>

                        <div style=""display: flex; justify-content: center; width: 100%;"">
                            <div style=""
                                display: grid;
                                grid-template-columns: repeat(5, 1fr);
                                gap: 8px;
                                padding: 10px;
                                width: 900px;  
                                margin: 0 auto;
                            "">
                                
                                    <div style=""width: 100%;"">
                                        <img src=""images/9_Sad_lo_lo_1_Set1_ascend_lgsm_dot.png"" style=""width: 100%; height: auto; object-fit: contain;"">
                                    </div>
                                
                                    <div style=""width: 100%;"">
                                        <img src=""images/9_Fearful_lo_lo_1_Pastel1_ascend_lgsm_dot.png"" style=""width: 100%; height: auto; object-fit: contain;"">
                                    </div>
                                
                                    <div style=""width: 100%;"">
                                        <img src=""images/9_Angry_lo_lo_1_tab20c_decend_lgsm_dot.png"" style=""width: 100%; height: auto; object-fit: contain;"">
                                    </div>
                                
                                    <div style=""width: 100%;"">
                                        <img src=""images/9_Disgust_lo_lo_1_tab20c_ascend_lgsm_dot.png"" style=""width: 100%; height: auto; object-fit: contain;"">
                                    </div>
                                
                                    <div style=""width: 100%;"">
                                        <img src=""images/9_Happy_hi_hi_1_Set1_ascend_smlg_dot.png"" style=""width: 100%; height: auto; object-fit: contain;"">
                                    </div>
                                
                                    <div style=""width: 100%;"">
                                        <img src=""images/9_Disgust_hi_hi_1_tab20b_ascend_lgsm_dot.png"" style=""width: 100%; height: auto; object-fit: contain;"">
                                    </div>
                                
                                    <div style=""width: 100%;"">
                                        <img src=""images/9_Sad_hi_hi_1_tab20_decend_smlg_dot.png"" style=""width: 100%; height: auto; object-fit: contain;"">
                                    </div>
                                
                                    <div style=""width: 100%;"">
                                        <img src=""images/9_Happy_lo_lo_1_tab20b_ascend_smlg_dot.png"" style=""width: 100%; height: auto; object-fit: contain;"">
                                    </div>
                                
                                    <div style=""width: 100%;"">
                                        <img src=""images/9_Angry_hi_hi_1_tab20_ascend_smlg_dot.png"" style=""width: 100%; height: auto; object-fit: contain;"">
                                    </div>
                                
                                    <div style=""width: 100%;"">
                                        <img src=""images/9_Fearful_hi_hi_1_tab20b_ascend_smlg_dot.png"" style=""width: 100%; height: auto; object-fit: contain;"">
                                    </div>
                                
                            </div>
                        </div>
                    </div>
                </div>
                    ","-8","html-slider-response",6,41032,"0.0-6.0","kzz4ajz5ma",8,"","","","","","",0,"true",NA,"","","",NA,NA
1848,"<div style=""width:1300px;""><p style=""text-align:left"">To move the slider, click and drag your cursor to the location of the scale where you would like to make your rating and then let go. When you let go of the slider, your response will be recorded and the next trial will begin. <br>
                    We are interested in your initial impressions of each chart for a given concept, so please go with your first intuition. 
                    Before you begin the experiment, there will be four training trials for you to practice using the slider. 
                     When you are ready to start the training trials, please click ""Continue"".</p><br></div>","0","html-button-response",7,42882,"0.0-7.0","kzz4ajz5ma",8,"","","","","","",NA,"",NA,"","","",NA,NA
NA,"<div style=""width:500px;"">
                                    <p style=""font-size:25px;"">Please move the slider all the way to the <br> right endpoint of the scale</p>

                                    </div>
                                </div>","200","html-slider-response",8,45443,"0.0-8.0-0.0","kzz4ajz5ma",8,"","","","","","",0,"true",0,"true","","",NA,NA
1085,"<p align='center'><b>Good job!</b> Click on 'Continue' to proceed.</p>","0","html-button-response",9,47032,"0.0-8.0-1.0","kzz4ajz5ma",8,"","","","","","",NA,"",NA,"","","",NA,NA
NA,"<div style=""width:500px;"">
                                    <p style=""font-size:25px;"">Please move the slider all the way to the <br> left endpoint of the scale</p>

                                    </div>
                                </div>","-200","html-slider-response",10,48560,"0.0-9.0-0.0","kzz4ajz5ma",8,"","","","","","",0,"true",1,"true","","",NA,NA
853,"<p align='center'><b>Good job!</b> Click on 'Continue' to proceed.</p>","0","html-button-response",11,49915,"0.0-9.0-1.0","kzz4ajz5ma",8,"","","","","","",NA,"",NA,"","","",NA,NA
NA,"<div style=""width:500px;"">
                                    <p style=""font-size:25px;"">Please move the slider halfway between the center and right endpoint of the scale</p>

                                    </div>
                                </div>","107","html-slider-response",12,56093,"0.0-10.0-0.0","kzz4ajz5ma",8,"","","","","","",0,"true",2,"true","","",NA,NA
620,"<p align='center'><b>Good job!</b> Click on 'Continue' to proceed.</p>","0","html-button-response",13,57215,"0.0-10.0-1.0","kzz4ajz5ma",8,"","","","","","",NA,"",NA,"","","",NA,NA
NA,"<div style=""width:500px;"">
                                    <p style=""font-size:25px;"">Please move the slider halfway between the center and left endpoint of the scale</p>

                                    </div>
                                </div>","-104","html-slider-response",14,58877,"0.0-11.0-0.0","kzz4ajz5ma",8,"","","","","","",0,"true",3,"true","","",NA,NA
686,"<p align='center'><b>Good job!</b> Click on 'Continue' to proceed.</p>","0","html-button-response",15,60065,"0.0-11.0-1.0","kzz4ajz5ma",8,"","","","","","",NA,"",NA,"","","",NA,NA
1131,"<p>Great job! You've completed the practice trials. Now you will begin the main task.</p>","0","html-button-response",16,61198,"0.0-12.0","kzz4ajz5ma",8,"","","","","","",NA,"",NA,"","","",NA,NA
4466,"<p>In this block of trials, you will be asked to rate how much you associate each texture with the concept</p >
                        <p style = 'font-size:150%; font-weight: bold'>Sad</p><br></br>","0","html-button-response",17,65665,"0.0-13.0","kzz4ajz5ma",8,"","","","","","",NA,"",NA,"","","",NA,NA
NA,"<div style=""width:500px;"">
                            <p style=""font-size:50px; font-weight:bold;""
                            >Sad</p>
                            <div style=""width:480px; margin: auto;"">
                                <img src=""images/9_Sad_med_med_1_tab20_ascend_smlg_dot.png"" width=""480"" height=""420"" style=""object-fit:contain;"">
                            </div>
                        </div>","98","html-slider-response",18,71043,"0.0-14.0","kzz4ajz5ma",8,"","","","","","",0,"",NA,"","Sad","images/9_Sad_med_med_1_tab20_ascend_smlg_dot.png",NA,NA
NA,"<div style=""width:500px;"">
                            <p style=""font-size:50px; font-weight:bold;""
                            >Sad</p>
                            <div style=""width:480px; margin: auto;"">
                                <img src=""images/9_Sad_med_lo_3_tab20_decend_smlg_dot.png"" width=""480"" height=""420"" style=""object-fit:contain;"">
                            </div>
                        </div>","49","html-slider-response",19,73976,"0.0-15.0","kzz4ajz5ma",8,"","","","","","",0,"",NA,"","Sad","images/9_Sad_med_lo_3_tab20_decend_smlg_dot.png",NA,NA
NA,"<div style=""width:500px;"">
                            <p style=""font-size:50px; font-weight:bold;""
                            >Sad</p>
                            <div style=""width:480px; margin: auto;"">
                                <img src=""images/9_Sad_hi_hi_3_Set3_ascend_lgsm_dot.png"" width=""480"" height=""420"" style=""object-fit:contain;"">
                            </div>
                        </div>","162","html-slider-response",20,76609,"0.0-16.0","kzz4ajz5ma",8,"","","","","","",0,"",NA,"","Sad","images/9_Sad_hi_hi_3_Set3_ascend_lgsm_dot.png",NA,NA
NA,"<div style=""width:500px;"">
                            <p style=""font-size:50px; font-weight:bold;""
                            >Sad</p>
                            <div style=""width:480px; margin: auto;"">
                                <img src=""images/9_Sad_med_med_2_tab10new_ascend_smlg_dot.png"" width=""480"" height=""420"" style=""object-fit:contain;"">
                            </div>
                        </div>","-130","html-slider-response",21,79993,"0.0-17.0","kzz4ajz5ma",8,"","","","","","",0,"",NA,"","Sad","images/9_Sad_med_med_2_tab10new_ascend_smlg_dot.png",NA,NA
NA,"<div style=""width:500px;"">
                            <p style=""font-size:50px; font-weight:bold;""
                            >Sad</p>
                            <div style=""width:480px; margin: auto;"">
                                <img src=""images/9_Sad_hi_hi_1_tab20_decend_smlg_dot.png"" width=""480"" height=""420"" style=""object-fit:contain;"">
                            </div>
                        </div>","20","html-slider-response",22,82093,"0.0-18.0","kzz4ajz5ma",8,"","","","","","",0,"",NA,"","Sad","images/9_Sad_hi_hi_1_tab20_decend_smlg_dot.png",NA,NA
NA,"<div style=""width:500px;"">
                            <p style=""font-size:50px; font-weight:bold;""
                            >Sad</p>
                            <div style=""width:480px; margin: auto;"">
                                <img src=""images/9_Sad_med_lo_1_Set1_ascend_lgsm_dot.png"" width=""480"" height=""420"" style=""object-fit:contain;"">
                            </div>
                        </div>","-54","html-slider-response",23,84593,"0.0-19.0","kzz4ajz5ma",8,"","","","","","",0,"",NA,"","Sad","images/9_Sad_med_lo_1_Set1_ascend_lgsm_dot.png",NA,NA
NA,"<div style=""width:500px;"">
                            <p style=""font-size:50px; font-weight:bold;""
                            >Sad</p>
                            <div style=""width:480px; margin: auto;"">
                                <img src=""images/9_Sad_hi_lo_2_Set1_decend_lgsm_dot.png"" width=""480"" height=""420"" style=""object-fit:contain;"">
                            </div>
                        </div>","-6","html-slider-response",24,86459,"0.0-20.0","kzz4ajz5ma",8,"","","","","","",0,"",NA,"","Sad","images/9_Sad_hi_lo_2_Set1_decend_lgsm_dot.png",NA,NA
NA,"<div style=""width:500px;"">
                            <p style=""font-size:50px; font-weight:bold;""
                            >Sad</p>
                            <div style=""width:480px; margin: auto;"">
                                <img src=""images/9_Sad_lo_lo_3_tab20_ascend_lgsm_dot.png"" width=""480"" height=""420"" style=""object-fit:contain;"">
                            </div>
                        </div>","-30","html-slider-response",25,88660,"0.0-21.0","kzz4ajz5ma",8,"","","","","","",0,"",NA,"","Sad","images/9_Sad_lo_lo_3_tab20_ascend_lgsm_dot.png",NA,NA
NA,"<div style=""width:500px;"">
                            <p style=""font-size:50px; font-weight:bold;""
                            >Sad</p>
                            <div style=""width:480px; margin: auto;"">
                                <img src=""images/9_Sad_hi_md_2_Set1_ascend_smlg_dot.png"" width=""480"" height=""420"" style=""object-fit:contain;"">
                            </div>
                        </div>","23","html-slider-response",26,90743,"0.0-22.0","kzz4ajz5ma",8,"","","","","","",0,"",NA,"","Sad","images/9_Sad_hi_md_2_Set1_ascend_smlg_dot.png",NA,NA
NA,"<div style=""width:500px;"">
                            <p style=""font-size:50px; font-weight:bold;""
                            >Sad</p>
                            <div style=""width:480px; margin: auto;"">
                                <img src=""images/9_Sad_hi_md_1_tab20_decend_lgsm_dot.png"" width=""480"" height=""420"" style=""object-fit:contain;"">
                            </div>
                        </div>","-43","html-slider-response",27,92810,"0.0-23.0","kzz4ajz5ma",8,"","","","","","",0,"",NA,"","Sad","images/9_Sad_hi_md_1_tab20_decend_lgsm_dot.png",NA,NA
NA,"<div style=""width:500px;"">
                            <p style=""font-size:50px; font-weight:bold;""
                            >Sad</p>
                            <div style=""width:480px; margin: auto;"">
                                <img src=""images/9_Sad_hi_lo_1_tab20c_decend_smlg_dot.png"" width=""480"" height=""420"" style=""object-fit:contain;"">
                            </div>
                        </div>","-42","html-slider-response",28,94875,"0.0-24.0","kzz4ajz5ma",8,"","","","","","",0,"",NA,"","Sad","images/9_Sad_hi_lo_1_tab20c_decend_smlg_dot.png",NA,NA
NA,"<div style=""width:500px;"">
                            <p style=""font-size:50px; font-weight:bold;""
                            >Sad</p>
                            <div style=""width:480px; margin: auto;"">
                                <img src=""images/9_Sad_lo_lo_2_Paired_decend_lgsm_dot.png"" width=""480"" height=""420"" style=""object-fit:contain;"">
                            </div>
                        </div>","26","html-slider-response",29,97360,"0.0-25.0","kzz4ajz5ma",8,"","","","","","",0,"",NA,"","Sad","images/9_Sad_lo_lo_2_Paired_decend_lgsm_dot.png",NA,NA
NA,"<div style=""width:500px;"">
                            <p style=""font-size:50px; font-weight:bold;""
                            >Sad</p>
                            <div style=""width:480px; margin: auto;"">
                                <img src=""images/9_Sad_hi_md_2_Set1_ascend_lgsm_dot.png"" width=""480"" height=""420"" style=""object-fit:contain;"">
                            </div>
                        </div>","35","html-slider-response",30,99210,"0.0-26.0","kzz4ajz5ma",8,"","","","","","",0,"",NA,"","Sad","images/9_Sad_hi_md_2_Set1_ascend_lgsm_dot.png",NA,NA
NA,"<div style=""width:500px;"">
                            <p style=""font-size:50px; font-weight:bold;""
                            >Sad</p>
                            <div style=""width:480px; margin: auto;"">
                                <img src=""images/9_Sad_hi_hi_1_tab20_ascend_lgsm_dot.png"" width=""480"" height=""420"" style=""object-fit:contain;"">
                            </div>
                        </div>","151","html-slider-response",31,101593,"0.0-27.0","kzz4ajz5ma",8,"","","","","","",0,"",NA,"","Sad","images/9_Sad_hi_hi_1_tab20_ascend_lgsm_dot.png",NA,NA
NA,"<div style=""width:500px;"">
                            <p style=""font-size:50px; font-weight:bold;""
                            >Sad</p>
                            <div style=""width:480px; margin: auto;"">
                                <img src=""images/9_Sad_lo_lo_2_Paired_ascend_smlg_dot.png"" width=""480"" height=""420"" style=""object-fit:contain;"">
                            </div>
                        </div>","-50","html-slider-response",32,103925,"0.0-28.0","kzz4ajz5ma",8,"","","","","","",0,"",NA,"","Sad","images/9_Sad_lo_lo_2_Paired_ascend_smlg_dot.png",NA,NA
NA,"<div style=""width:500px;"">
                            <p style=""font-size:50px; font-weight:bold;""
                            >Sad</p>
                            <div style=""width:480px; margin: auto;"">
                                <img src=""images/9_Sad_hi_hi_2_Paired_ascend_smlg_dot.png"" width=""480"" height=""420"" style=""object-fit:contain;"">
                            </div>
                        </div>","39","html-slider-response",33,109194,"0.0-29.0","kzz4ajz5ma",8,"","","","","","",0,"",NA,"","Sad","images/9_Sad_hi_hi_2_Paired_ascend_smlg_dot.png",NA,NA
NA,"<div style=""width:500px;"">
                            <p style=""font-size:50px; font-weight:bold;""
                            >Sad</p>
                            <div style=""width:480px; margin: auto;"">
                                <img src=""images/9_Sad_med_lo_1_Set1_decend_smlg_dot.png"" width=""480"" height=""420"" style=""object-fit:contain;"">
                            </div>
                        </div>","-137","html-slider-response",34,111909,"0.0-30.0","kzz4ajz5ma",8,"","","","","","",0,"",NA,"","Sad","images/9_Sad_med_lo_1_Set1_decend_smlg_dot.png",NA,NA
NA,"<div style=""width:500px;"">
                            <p style=""font-size:50px; font-weight:bold;""
                            >Sad</p>
                            <div style=""width:480px; margin: auto;"">
                                <img src=""images/9_Sad_lo_lo_2_Paired_ascend_lgsm_dot.png"" width=""480"" height=""420"" style=""object-fit:contain;"">
                            </div>
                        </div>","61","html-slider-response",35,114626,"0.0-31.0","kzz4ajz5ma",8,"","","","","","",0,"",NA,"","Sad","images/9_Sad_lo_lo_2_Paired_ascend_lgsm_dot.png",NA,NA
NA,"<div style=""width:500px;"">
                            <p style=""font-size:50px; font-weight:bold;""
                            >Sad</p>
                            <div style=""width:480px; margin: auto;"">
                                <img src=""images/9_Sad_lo_lo_3_tab20_ascend_smlg_dot.png"" width=""480"" height=""420"" style=""object-fit:contain;"">
                            </div>
                        </div>","-112","html-slider-response",36,116992,"0.0-32.0","kzz4ajz5ma",8,"","","","","","",0,"",NA,"","Sad","images/9_Sad_lo_lo_3_tab20_ascend_smlg_dot.png",NA,NA
NA,"<div style=""width:500px;"">
                            <p style=""font-size:50px; font-weight:bold;""
                            >Sad</p>
                            <div style=""width:480px; margin: auto;"">
                                <img src=""images/9_Sad_hi_md_3_Accent_decend_smlg_dot.png"" width=""480"" height=""420"" style=""object-fit:contain;"">
                            </div>
                        </div>","33","html-slider-response",37,119026,"0.0-33.0","kzz4ajz5ma",8,"","","","","","",0,"",NA,"","Sad","images/9_Sad_hi_md_3_Accent_decend_smlg_dot.png",NA,NA
NA,"<div style=""width:500px;"">
                            <p style=""font-size:50px; font-weight:bold;""
                            >Sad</p>
                            <div style=""width:480px; margin: auto;"">
                                <img src=""images/9_Sad_med_med_3_tab20b_decend_smlg_dot.png"" width=""480"" height=""420"" style=""object-fit:contain;"">
                            </div>
                        </div>","-144","html-slider-response",38,120978,"0.0-34.0","kzz4ajz5ma",8,"","","","","","",0,"",NA,"","Sad","images/9_Sad_med_med_3_tab20b_decend_smlg_dot.png",NA,NA
NA,"<div style=""width:500px;"">
                            <p style=""font-size:50px; font-weight:bold;""
                            >Sad</p>
                            <div style=""width:480px; margin: auto;"">
                                <img src=""images/9_Sad_lo_lo_1_Set1_ascend_smlg_dot.png"" width=""480"" height=""420"" style=""object-fit:contain;"">
                            </div>
                        </div>","-171","html-slider-response",39,123426,"0.0-35.0","kzz4ajz5ma",8,"","","","","","",0,"",NA,"","Sad","images/9_Sad_lo_lo_1_Set1_ascend_smlg_dot.png",NA,NA
NA,"<div style=""width:500px;"">
                            <p style=""font-size:50px; font-weight:bold;""
                            >Sad</p>
                            <div style=""width:480px; margin: auto;"">
                                <img src=""images/9_Sad_hi_hi_1_tab20_ascend_smlg_dot.png"" width=""480"" height=""420"" style=""object-fit:contain;"">
                            </div>
                        </div>","7","html-slider-response",40,125260,"0.0-36.0","kzz4ajz5ma",8,"","","","","","",0,"",NA,"","Sad","images/9_Sad_hi_hi_1_tab20_ascend_smlg_dot.png",NA,NA
NA,"<div style=""width:500px;"">
                            <p style=""font-size:50px; font-weight:bold;""
                            >Sad</p>
                            <div style=""width:480px; margin: auto;"">
                                <img src=""images/9_Sad_med_med_2_tab10new_decend_lgsm_dot.png"" width=""480"" height=""420"" style=""object-fit:contain;"">
                            </div>
                        </div>","90","html-slider-response",41,127943,"0.0-37.0","kzz4ajz5ma",8,"","","","","","",0,"",NA,"","Sad","images/9_Sad_med_med_2_tab10new_decend_lgsm_dot.png",NA,NA
NA,"<div style=""width:500px;"">
                            <p style=""font-size:50px; font-weight:bold;""
                            >Sad</p>
                            <div style=""width:480px; margin: auto;"">
                                <img src=""images/9_Sad_hi_hi_3_Set3_decend_lgsm_dot.png"" width=""480"" height=""420"" style=""object-fit:contain;"">
                            </div>
                        </div>","127","html-slider-response",42,130242,"0.0-38.0","kzz4ajz5ma",8,"","","","","","",0,"",NA,"","Sad","images/9_Sad_hi_hi_3_Set3_decend_lgsm_dot.png",NA,NA
NA,"<div style=""width:500px;"">
                            <p style=""font-size:50px; font-weight:bold;""
                            >Sad</p>
                            <div style=""width:480px; margin: auto;"">
                                <img src=""images/9_Sad_hi_lo_3_Accent_decend_lgsm_dot.png"" width=""480"" height=""420"" style=""object-fit:contain;"">
                            </div>
                        </div>","-148","html-slider-response",43,133493,"0.0-39.0","kzz4ajz5ma",8,"","","","","","",0,"",NA,"","Sad","images/9_Sad_hi_lo_3_Accent_decend_lgsm_dot.png",NA,NA
NA,"<div style=""width:500px;"">
                            <p style=""font-size:50px; font-weight:bold;""
                            >Sad</p>
                            <div style=""width:480px; margin: auto;"">
                                <img src=""images/9_Sad_hi_md_3_Accent_ascend_smlg_dot.png"" width=""480"" height=""420"" style=""object-fit:contain;"">
                            </div>
                        </div>","56","html-slider-response",44,135777,"0.0-40.0","kzz4ajz5ma",8,"","","","","","",0,"",NA,"","Sad","images/9_Sad_hi_md_3_Accent_ascend_smlg_dot.png",NA,NA
NA,"<div style=""width:500px;"">
                            <p style=""font-size:50px; font-weight:bold;""
                            >Sad</p>
                            <div style=""width:480px; margin: auto;"">
                                <img src=""images/9_Sad_lo_lo_1_Set1_decend_smlg_dot.png"" width=""480"" height=""420"" style=""object-fit:contain;"">
                            </div>
                        </div>","-51","html-slider-response",45,137693,"0.0-41.0","kzz4ajz5ma",8,"","","","","","",0,"",NA,"","Sad","images/9_Sad_lo_lo_1_Set1_decend_smlg_dot.png",NA,NA
NA,"<div style=""width:500px;"">
                            <p style=""font-size:50px; font-weight:bold;""
                            >Sad</p>
                            <div style=""width:480px; margin: auto;"">
                                <img src=""images/9_Sad_med_lo_2_Paired_decend_smlg_dot.png"" width=""480"" height=""420"" style=""object-fit:contain;"">
                            </div>
                        </div>","-88","html-slider-response",46,140225,"0.0-42.0","kzz4ajz5ma",8,"","","","","","",0,"",NA,"","Sad","images/9_Sad_med_lo_2_Paired_decend_smlg_dot.png",NA,NA
NA,"<div style=""width:500px;"">
                            <p style=""font-size:50px; font-weight:bold;""
                            >Sad</p>
                            <div style=""width:480px; margin: auto;"">
                                <img src=""images/9_Sad_lo_lo_1_Set1_decend_lgsm_dot.png"" width=""480"" height=""420"" style=""object-fit:contain;"">
                            </div>
                        </div>","-131","html-slider-response",47,142144,"0.0-43.0","kzz4ajz5ma",8,"","","","","","",0,"",NA,"","Sad","images/9_Sad_lo_lo_1_Set1_decend_lgsm_dot.png",NA,NA
NA,"<div style=""width:500px;"">
                            <p style=""font-size:50px; font-weight:bold;""
                            >Sad</p>
                            <div style=""width:480px; margin: auto;"">
                                <img src=""images/9_Sad_hi_hi_3_Set3_decend_smlg_dot.png"" width=""480"" height=""420"" style=""object-fit:contain;"">
                            </div>
                        </div>","54","html-slider-response",48,143844,"0.0-44.0","kzz4ajz5ma",8,"","","","","","",0,"",NA,"","Sad","images/9_Sad_hi_hi_3_Set3_decend_smlg_dot.png",NA,NA
NA,"<div style=""width:500px;"">
                            <p style=""font-size:50px; font-weight:bold;""
                            >Sad</p>
                            <div style=""width:480px; margin: auto;"">
                                <img src=""images/9_Sad_hi_md_1_tab20_ascend_smlg_dot.png"" width=""480"" height=""420"" style=""object-fit:contain;"">
                            </div>
                        </div>","82","html-slider-response",49,145526,"0.0-45.0","kzz4ajz5ma",8,"","","","","","",0,"",NA,"","Sad","images/9_Sad_hi_md_1_tab20_ascend_smlg_dot.png",NA,NA
NA,"<div style=""width:500px;"">
                            <p style=""font-size:50px; font-weight:bold;""
                            >Sad</p>
                            <div style=""width:480px; margin: auto;"">
                                <img src=""images/9_Sad_hi_md_3_Accent_ascend_lgsm_dot.png"" width=""480"" height=""420"" style=""object-fit:contain;"">
                            </div>
                        </div>","-69","html-slider-response",50,147477,"0.0-46.0","kzz4ajz5ma",8,"","","","","","",0,"",NA,"","Sad","images/9_Sad_hi_md_3_Accent_ascend_lgsm_dot.png",NA,NA
NA,"<div style=""width:500px;"">
                            <p style=""font-size:50px; font-weight:bold;""
                            >Sad</p>
                            <div style=""width:480px; margin: auto;"">
                                <img src=""images/9_Sad_med_lo_1_Set1_decend_lgsm_dot.png"" width=""480"" height=""420"" style=""object-fit:contain;"">
                            </div>
                        </div>","-200","html-slider-response",51,149560,"0.0-47.0","kzz4ajz5ma",8,"","","","","","",0,"",NA,"","Sad","images/9_Sad_med_lo_1_Set1_decend_lgsm_dot.png",NA,NA
NA,"<div style=""width:500px;"">
                            <p style=""font-size:50px; font-weight:bold;""
                            >Sad</p>
                            <div style=""width:480px; margin: auto;"">
                                <img src=""images/9_Sad_med_lo_3_tab20_ascend_smlg_dot.png"" width=""480"" height=""420"" style=""object-fit:contain;"">
                            </div>
                        </div>","-200","html-slider-response",52,151643,"0.0-48.0","kzz4ajz5ma",8,"","","","","","",0,"",NA,"","Sad","images/9_Sad_med_lo_3_tab20_ascend_smlg_dot.png",NA,NA
NA,"<div style=""width:500px;"">
                            <p style=""font-size:50px; font-weight:bold;""
                            >Sad</p>
                            <div style=""width:480px; margin: auto;"">
                                <img src=""images/9_Sad_hi_hi_2_Paired_ascend_lgsm_dot.png"" width=""480"" height=""420"" style=""object-fit:contain;"">
                            </div>
                        </div>","38","html-slider-response",53,153560,"0.0-49.0","kzz4ajz5ma",8,"","","","","","",0,"",NA,"","Sad","images/9_Sad_hi_hi_2_Paired_ascend_lgsm_dot.png",NA,NA
NA,"<div style=""width:500px;"">
                            <p style=""font-size:50px; font-weight:bold;""
                            >Sad</p>
                            <div style=""width:480px; margin: auto;"">
                                <img src=""images/9_Sad_med_lo_2_Paired_ascend_lgsm_dot.png"" width=""480"" height=""420"" style=""object-fit:contain;"">
                            </div>
                        </div>","0","html-slider-response",54,156327,"0.0-50.0","kzz4ajz5ma",8,"","","","","","",0,"",NA,"","Sad","images/9_Sad_med_lo_2_Paired_ascend_lgsm_dot.png",NA,NA
NA,"<div style=""width:500px;"">
                            <p style=""font-size:50px; font-weight:bold;""
                            >Sad</p>
                            <div style=""width:480px; margin: auto;"">
                                <img src=""images/9_Sad_hi_hi_2_Paired_decend_lgsm_dot.png"" width=""480"" height=""420"" style=""object-fit:contain;"">
                            </div>
                        </div>","110","html-slider-response",55,158709,"0.0-51.0","kzz4ajz5ma",8,"","","","","","",0,"",NA,"","Sad","images/9_Sad_hi_hi_2_Paired_decend_lgsm_dot.png",NA,NA
NA,"<div style=""width:500px;"">
                            <p style=""font-size:50px; font-weight:bold;""
                            >Sad</p>
                            <div style=""width:480px; margin: auto;"">
                                <img src=""images/9_Sad_hi_hi_1_tab20_decend_lgsm_dot.png"" width=""480"" height=""420"" style=""object-fit:contain;"">
                            </div>
                        </div>","200","html-slider-response",56,160643,"0.0-52.0","kzz4ajz5ma",8,"","","","","","",0,"",NA,"","Sad","images/9_Sad_hi_hi_1_tab20_decend_lgsm_dot.png",NA,NA
NA,"<div style=""width:500px;"">
                            <p style=""font-size:50px; font-weight:bold;""
                            >Sad</p>
                            <div style=""width:480px; margin: auto;"">
                                <img src=""images/9_Sad_hi_md_2_Set1_decend_lgsm_dot.png"" width=""480"" height=""420"" style=""object-fit:contain;"">
                            </div>
                        </div>","-77","html-slider-response",57,162759,"0.0-53.0","kzz4ajz5ma",8,"","","","","","",0,"",NA,"","Sad","images/9_Sad_hi_md_2_Set1_decend_lgsm_dot.png",NA,NA
NA,"<div style=""width:500px;"">
                            <p style=""font-size:50px; font-weight:bold;""
                            >Sad</p>
                            <div style=""width:480px; margin: auto;"">
                                <img src=""images/9_Sad_lo_lo_3_tab20_decend_smlg_dot.png"" width=""480"" height=""420"" style=""object-fit:contain;"">
                            </div>
                        </div>","-200","html-slider-response",58,164842,"0.0-54.0","kzz4ajz5ma",8,"","","","","","",0,"",NA,"","Sad","images/9_Sad_lo_lo_3_tab20_decend_smlg_dot.png",NA,NA
NA,"<div style=""width:500px;"">
                            <p style=""font-size:50px; font-weight:bold;""
                            >Sad</p>
                            <div style=""width:480px; margin: auto;"">
                                <img src=""images/9_Sad_hi_lo_3_Accent_ascend_lgsm_dot.png"" width=""480"" height=""420"" style=""object-fit:contain;"">
                            </div>
                        </div>","-86","html-slider-response",59,166676,"0.0-55.0","kzz4ajz5ma",8,"","","","","","",0,"",NA,"","Sad","images/9_Sad_hi_lo_3_Accent_ascend_lgsm_dot.png",NA,NA
NA,"<div style=""width:500px;"">
                            <p style=""font-size:50px; font-weight:bold;""
                            >Sad</p>
                            <div style=""width:480px; margin: auto;"">
                                <img src=""images/9_Sad_med_lo_2_Paired_ascend_smlg_dot.png"" width=""480"" height=""420"" style=""object-fit:contain;"">
                            </div>
                        </div>","-169","html-slider-response",60,168692,"0.0-56.0","kzz4ajz5ma",8,"","","","","","",0,"",NA,"","Sad","images/9_Sad_med_lo_2_Paired_ascend_smlg_dot.png",NA,NA
NA,"<div style=""width:500px;"">
                            <p style=""font-size:50px; font-weight:bold;""
                            >Sad</p>
                            <div style=""width:480px; margin: auto;"">
                                <img src=""images/9_Sad_med_med_1_tab20_ascend_lgsm_dot.png"" width=""480"" height=""420"" style=""object-fit:contain;"">
                            </div>
                        </div>","46","html-slider-response",61,170577,"0.0-57.0","kzz4ajz5ma",8,"","","","","","",0,"",NA,"","Sad","images/9_Sad_med_med_1_tab20_ascend_lgsm_dot.png",NA,NA
NA,"<div style=""width:500px;"">
                            <p style=""font-size:50px; font-weight:bold;""
                            >Sad</p>
                            <div style=""width:480px; margin: auto;"">
                                <img src=""images/9_Sad_med_lo_3_tab20_ascend_lgsm_dot.png"" width=""480"" height=""420"" style=""object-fit:contain;"">
                            </div>
                        </div>","-160","html-slider-response",62,172244,"0.0-58.0","kzz4ajz5ma",8,"","","","","","",0,"",NA,"","Sad","images/9_Sad_med_lo_3_tab20_ascend_lgsm_dot.png",NA,NA
NA,"<div style=""width:500px;"">
                            <p style=""font-size:50px; font-weight:bold;""
                            >Sad</p>
                            <div style=""width:480px; margin: auto;"">
                                <img src=""images/9_Sad_med_med_3_tab20b_ascend_lgsm_dot.png"" width=""480"" height=""420"" style=""object-fit:contain;"">
                            </div>
                        </div>","-200","html-slider-response",63,174310,"0.0-59.0","kzz4ajz5ma",8,"","","","","","",0,"",NA,"","Sad","images/9_Sad_med_med_3_tab20b_ascend_lgsm_dot.png",NA,NA
NA,"<div style=""width:500px;"">
                            <p style=""font-size:50px; font-weight:bold;""
                            >Sad</p>
                            <div style=""width:480px; margin: auto;"">
                                <img src=""images/9_Sad_hi_lo_1_tab20c_ascend_smlg_dot.png"" width=""480"" height=""420"" style=""object-fit:contain;"">
                            </div>
                        </div>","-200","html-slider-response",64,176293,"0.0-60.0","kzz4ajz5ma",8,"","","","","","",0,"",NA,"","Sad","images/9_Sad_hi_lo_1_tab20c_ascend_smlg_dot.png",NA,NA
NA,"<div style=""width:500px;"">
                            <p style=""font-size:50px; font-weight:bold;""
                            >Sad</p>
                            <div style=""width:480px; margin: auto;"">
                                <img src=""images/9_Sad_hi_md_1_tab20_ascend_lgsm_dot.png"" width=""480"" height=""420"" style=""object-fit:contain;"">
                            </div>
                        </div>","116","html-slider-response",65,178310,"0.0-61.0","kzz4ajz5ma",8,"","","","","","",0,"",NA,"","Sad","images/9_Sad_hi_md_1_tab20_ascend_lgsm_dot.png",NA,NA
NA,"<div style=""width:500px;"">
                            <p style=""font-size:50px; font-weight:bold;""
                            >Sad</p>
                            <div style=""width:480px; margin: auto;"">
                                <img src=""images/9_Sad_hi_lo_2_Set1_ascend_lgsm_dot.png"" width=""480"" height=""420"" style=""object-fit:contain;"">
                            </div>
                        </div>","-56","html-slider-response",66,180259,"0.0-62.0","kzz4ajz5ma",8,"","","","","","",0,"",NA,"","Sad","images/9_Sad_hi_lo_2_Set1_ascend_lgsm_dot.png",NA,NA
NA,"<div style=""width:500px;"">
                            <p style=""font-size:50px; font-weight:bold;""
                            >Sad</p>
                            <div style=""width:480px; margin: auto;"">
                                <img src=""images/9_Sad_hi_hi_2_Paired_decend_smlg_dot.png"" width=""480"" height=""420"" style=""object-fit:contain;"">
                            </div>
                        </div>","111","html-slider-response",67,182110,"0.0-63.0","kzz4ajz5ma",8,"","","","","","",0,"",NA,"","Sad","images/9_Sad_hi_hi_2_Paired_decend_smlg_dot.png",NA,NA
NA,"<div style=""width:500px;"">
                            <p style=""font-size:50px; font-weight:bold;""
                            >Sad</p>
                            <div style=""width:480px; margin: auto;"">
                                <img src=""images/9_Sad_hi_lo_3_Accent_decend_smlg_dot.png"" width=""480"" height=""420"" style=""object-fit:contain;"">
                            </div>
                        </div>","-86","html-slider-response",68,183842,"0.0-64.0","kzz4ajz5ma",8,"","","","","","",0,"",NA,"","Sad","images/9_Sad_hi_lo_3_Accent_decend_smlg_dot.png",NA,NA
NA,"<div style=""width:500px;"">
                            <p style=""font-size:50px; font-weight:bold;""
                            >Sad</p>
                            <div style=""width:480px; margin: auto;"">
                                <img src=""images/9_Sad_med_med_2_tab10new_ascend_lgsm_dot.png"" width=""480"" height=""420"" style=""object-fit:contain;"">
                            </div>
                        </div>","54","html-slider-response",69,186195,"0.0-65.0","kzz4ajz5ma",8,"","","","","","",0,"",NA,"","Sad","images/9_Sad_med_med_2_tab10new_ascend_lgsm_dot.png",NA,NA
NA,"<div style=""width:500px;"">
                            <p style=""font-size:50px; font-weight:bold;""
                            >Sad</p>
                            <div style=""width:480px; margin: auto;"">
                                <img src=""images/9_Sad_med_med_3_tab20b_decend_lgsm_dot.png"" width=""480"" height=""420"" style=""object-fit:contain;"">
                            </div>
                        </div>","-117","html-slider-response",70,188043,"0.0-66.0","kzz4ajz5ma",8,"","","","","","",0,"",NA,"","Sad","images/9_Sad_med_med_3_tab20b_decend_lgsm_dot.png",NA,NA
NA,"<div style=""width:500px;"">
                            <p style=""font-size:50px; font-weight:bold;""
                            >Sad</p>
                            <div style=""width:480px; margin: auto;"">
                                <img src=""images/9_Sad_lo_lo_2_Paired_decend_smlg_dot.png"" width=""480"" height=""420"" style=""object-fit:contain;"">
                            </div>
                        </div>","-175","html-slider-response",71,189893,"0.0-67.0","kzz4ajz5ma",8,"","","","","","",0,"",NA,"","Sad","images/9_Sad_lo_lo_2_Paired_decend_smlg_dot.png",NA,NA
NA,"<div style=""width:500px;"">
                            <p style=""font-size:50px; font-weight:bold;""
                            >Sad</p>
                            <div style=""width:480px; margin: auto;"">
                                <img src=""images/9_Sad_hi_md_2_Set1_decend_smlg_dot.png"" width=""480"" height=""420"" style=""object-fit:contain;"">
                            </div>
                        </div>","46","html-slider-response",72,191644,"0.0-68.0","kzz4ajz5ma",8,"","","","","","",0,"",NA,"","Sad","images/9_Sad_hi_md_2_Set1_decend_smlg_dot.png",NA,NA
NA,"<div style=""width:500px;"">
                            <p style=""font-size:50px; font-weight:bold;""
                            >Sad</p>
                            <div style=""width:480px; margin: auto;"">
                                <img src=""images/9_Sad_med_med_1_tab20_decend_smlg_dot.png"" width=""480"" height=""420"" style=""object-fit:contain;"">
                            </div>
                        </div>","128","html-slider-response",73,193577,"0.0-69.0","kzz4ajz5ma",8,"","","","","","",0,"",NA,"","Sad","images/9_Sad_med_med_1_tab20_decend_smlg_dot.png",NA,NA
NA,"<div style=""width:500px;"">
                            <p style=""font-size:50px; font-weight:bold;""
                            >Sad</p>
                            <div style=""width:480px; margin: auto;"">
                                <img src=""images/9_Sad_med_med_3_tab20b_ascend_smlg_dot.png"" width=""480"" height=""420"" style=""object-fit:contain;"">
                            </div>
                        </div>","-38","html-slider-response",74,195560,"0.0-70.0","kzz4ajz5ma",8,"","","","","","",0,"",NA,"","Sad","images/9_Sad_med_med_3_tab20b_ascend_smlg_dot.png",NA,NA
NA,"<div style=""width:500px;"">
                            <p style=""font-size:50px; font-weight:bold;""
                            >Sad</p>
                            <div style=""width:480px; margin: auto;"">
                                <img src=""images/9_Sad_hi_lo_1_tab20c_ascend_lgsm_dot.png"" width=""480"" height=""420"" style=""object-fit:contain;"">
                            </div>
                        </div>","-77","html-slider-response",75,197392,"0.0-71.0","kzz4ajz5ma",8,"","","","","","",0,"",NA,"","Sad","images/9_Sad_hi_lo_1_tab20c_ascend_lgsm_dot.png",NA,NA
NA,"<div style=""width:500px;"">
                            <p style=""font-size:50px; font-weight:bold;""
                            >Sad</p>
                            <div style=""width:480px; margin: auto;"">
                                <img src=""images/9_Sad_med_med_2_tab10new_decend_smlg_dot.png"" width=""480"" height=""420"" style=""object-fit:contain;"">
                            </div>
                        </div>","70","html-slider-response",76,199176,"0.0-72.0","kzz4ajz5ma",8,"","","","","","",0,"",NA,"","Sad","images/9_Sad_med_med_2_tab10new_decend_smlg_dot.png",NA,NA
NA,"<div style=""width:500px;"">
                            <p style=""font-size:50px; font-weight:bold;""
                            >Sad</p>
                            <div style=""width:480px; margin: auto;"">
                                <img src=""images/9_Sad_hi_lo_2_Set1_ascend_smlg_dot.png"" width=""480"" height=""420"" style=""object-fit:contain;"">
                            </div>
                        </div>","-99","html-slider-response",77,201094,"0.0-73.0","kzz4ajz5ma",8,"","","","","","",0,"",NA,"","Sad","images/9_Sad_hi_lo_2_Set1_ascend_smlg_dot.png",NA,NA
NA,"<div style=""width:500px;"">
                            <p style=""font-size:50px; font-weight:bold;""
                            >Sad</p>
                            <div style=""width:480px; margin: auto;"">
                                <img src=""images/9_Sad_hi_md_1_tab20_decend_smlg_dot.png"" width=""480"" height=""420"" style=""object-fit:contain;"">
                            </div>
                        </div>","4","html-slider-response",78,204143,"0.0-74.0","kzz4ajz5ma",8,"","","","","","",0,"",NA,"","Sad","images/9_Sad_hi_md_1_tab20_decend_smlg_dot.png",NA,NA
NA,"<div style=""width:500px;"">
                            <p style=""font-size:50px; font-weight:bold;""
                            >Sad</p>
                            <div style=""width:480px; margin: auto;"">
                                <img src=""images/9_Sad_lo_lo_1_Set1_ascend_lgsm_dot.png"" width=""480"" height=""420"" style=""object-fit:contain;"">
                            </div>
                        </div>","-200","html-slider-response",79,206244,"0.0-75.0","kzz4ajz5ma",8,"","","","","","",0,"",NA,"","Sad","images/9_Sad_lo_lo_1_Set1_ascend_lgsm_dot.png",NA,NA
NA,"<div style=""width:500px;"">
                            <p style=""font-size:50px; font-weight:bold;""
                            >Sad</p>
                            <div style=""width:480px; margin: auto;"">
                                <img src=""images/9_Sad_med_lo_3_tab20_decend_lgsm_dot.png"" width=""480"" height=""420"" style=""object-fit:contain;"">
                            </div>
                        </div>","-81","html-slider-response",80,208159,"0.0-76.0","kzz4ajz5ma",8,"","","","","","",0,"",NA,"","Sad","images/9_Sad_med_lo_3_tab20_decend_lgsm_dot.png",NA,NA
NA,"<div style=""width:500px;"">
                            <p style=""font-size:50px; font-weight:bold;""
                            >Sad</p>
                            <div style=""width:480px; margin: auto;"">
                                <img src=""images/9_Sad_hi_hi_3_Set3_ascend_smlg_dot.png"" width=""480"" height=""420"" style=""object-fit:contain;"">
                            </div>
                        </div>","147","html-slider-response",81,210279,"0.0-77.0","kzz4ajz5ma",8,"","","","","","",0,"",NA,"","Sad","images/9_Sad_hi_hi_3_Set3_ascend_smlg_dot.png",NA,NA
NA,"<div style=""width:500px;"">
                            <p style=""font-size:50px; font-weight:bold;""
                            >Sad</p>
                            <div style=""width:480px; margin: auto;"">
                                <img src=""images/9_Sad_hi_md_3_Accent_decend_lgsm_dot.png"" width=""480"" height=""420"" style=""object-fit:contain;"">
                            </div>
                        </div>","62","html-slider-response",82,213292,"0.0-78.0","kzz4ajz5ma",8,"","","","","","",0,"",NA,"","Sad","images/9_Sad_hi_md_3_Accent_decend_lgsm_dot.png",NA,NA
NA,"<div style=""width:500px;"">
                            <p style=""font-size:50px; font-weight:bold;""
                            >Sad</p>
                            <div style=""width:480px; margin: auto;"">
                                <img src=""images/9_Sad_med_lo_2_Paired_decend_lgsm_dot.png"" width=""480"" height=""420"" style=""object-fit:contain;"">
                            </div>
                        </div>","-70","html-slider-response",83,215310,"0.0-79.0","kzz4ajz5ma",8,"","","","","","",0,"",NA,"","Sad","images/9_Sad_med_lo_2_Paired_decend_lgsm_dot.png",NA,NA
NA,"<div style=""width:500px;"">
                            <p style=""font-size:50px; font-weight:bold;""
                            >Sad</p>
                            <div style=""width:480px; margin: auto;"">
                                <img src=""images/9_Sad_hi_lo_1_tab20c_decend_lgsm_dot.png"" width=""480"" height=""420"" style=""object-fit:contain;"">
                            </div>
                        </div>","-35","html-slider-response",84,217259,"0.0-80.0","kzz4ajz5ma",8,"","","","","","",0,"",NA,"","Sad","images/9_Sad_hi_lo_1_tab20c_decend_lgsm_dot.png",NA,NA
NA,"<div style=""width:500px;"">
                            <p style=""font-size:50px; font-weight:bold;""
                            >Sad</p>
                            <div style=""width:480px; margin: auto;"">
                                <img src=""images/9_Sad_med_med_1_tab20_decend_lgsm_dot.png"" width=""480"" height=""420"" style=""object-fit:contain;"">
                            </div>
                        </div>","88","html-slider-response",85,221860,"0.0-81.0","kzz4ajz5ma",8,"","","","","","",0,"",NA,"","Sad","images/9_Sad_med_med_1_tab20_decend_lgsm_dot.png",NA,NA
NA,"<div style=""width:500px;"">
                            <p style=""font-size:50px; font-weight:bold;""
                            >Sad</p>
                            <div style=""width:480px; margin: auto;"">
                                <img src=""images/9_Sad_hi_lo_3_Accent_ascend_smlg_dot.png"" width=""480"" height=""420"" style=""object-fit:contain;"">
                            </div>
                        </div>","-66","html-slider-response",86,224176,"0.0-82.0","kzz4ajz5ma",8,"","","","","","",0,"",NA,"","Sad","images/9_Sad_hi_lo_3_Accent_ascend_smlg_dot.png",NA,NA
NA,"<div style=""width:500px;"">
                            <p style=""font-size:50px; font-weight:bold;""
                            >Sad</p>
                            <div style=""width:480px; margin: auto;"">
                                <img src=""images/9_Sad_med_lo_1_Set1_ascend_smlg_dot.png"" width=""480"" height=""420"" style=""object-fit:contain;"">
                            </div>
                        </div>","-93","html-slider-response",87,228627,"0.0-83.0","kzz4ajz5ma",8,"","","","","","",0,"",NA,"","Sad","images/9_Sad_med_lo_1_Set1_ascend_smlg_dot.png",NA,NA
NA,"<div style=""width:500px;"">
                            <p style=""font-size:50px; font-weight:bold;""
                            >Sad</p>
                            <div style=""width:480px; margin: auto;"">
                                <img src=""images/9_Sad_lo_lo_3_tab20_decend_lgsm_dot.png"" width=""480"" height=""420"" style=""object-fit:contain;"">
                            </div>
                        </div>","-104","html-slider-response",88,231144,"0.0-84.0","kzz4ajz5ma",8,"","","","","","",0,"",NA,"","Sad","images/9_Sad_lo_lo_3_tab20_decend_lgsm_dot.png",NA,NA
NA,"<div style=""width:500px;"">
                            <p style=""font-size:50px; font-weight:bold;""
                            >Sad</p>
                            <div style=""width:480px; margin: auto;"">
                                <img src=""images/9_Sad_hi_lo_2_Set1_decend_smlg_dot.png"" width=""480"" height=""420"" style=""object-fit:contain;"">
                            </div>
                        </div>","4","html-slider-response",89,233110,"0.0-85.0","kzz4ajz5ma",8,"","","","","","",0,"",NA,"","Sad","images/9_Sad_hi_lo_2_Set1_decend_smlg_dot.png",NA,NA
1853,"<p>Great Job! You've finished block 1.<br></br> You have 4 block(s) left to go.<br></br></p>","0","html-button-response",90,235466,"0.0-86.0","kzz4ajz5ma",8,"","","","","","",NA,"",NA,"","","",NA,NA
1115,"<p>In this block of trials, you will be asked to rate how much you associate each texture with the concept</p >
                        <p style = 'font-size:150%; font-weight: bold'>Disgust</p><br></br>","0","html-button-response",91,236583,"0.0-87.0","kzz4ajz5ma",8,"","","","","","",NA,"",NA,"","","",NA,NA
NA,"<div style=""width:500px;"">
                            <p style=""font-size:50px; font-weight:bold;""
                            >Disgust</p>
                            <div style=""width:480px; margin: auto;"">
                                <img src=""images/9_Disgust_hi_md_1_tab20b_ascend_smlg_dot.png"" width=""480"" height=""420"" style=""object-fit:contain;"">
                            </div>
                        </div>","-81","html-slider-response",92,238627,"0.0-88.0","kzz4ajz5ma",8,"","","","","","",0,"",NA,"","Disgust","images/9_Disgust_hi_md_1_tab20b_ascend_smlg_dot.png",NA,NA
NA,"<div style=""width:500px;"">
                            <p style=""font-size:50px; font-weight:bold;""
                            >Disgust</p>
                            <div style=""width:480px; margin: auto;"">
                                <img src=""images/9_Disgust_hi_hi_2_tab20_ascend_lgsm_dot.png"" width=""480"" height=""420"" style=""object-fit:contain;"">
                            </div>
                        </div>","97","html-slider-response",93,240594,"0.0-89.0","kzz4ajz5ma",8,"","","","","","",0,"",NA,"","Disgust","images/9_Disgust_hi_hi_2_tab20_ascend_lgsm_dot.png",NA,NA
NA,"<div style=""width:500px;"">
                            <p style=""font-size:50px; font-weight:bold;""
                            >Disgust</p>
                            <div style=""width:480px; margin: auto;"">
                                <img src=""images/9_Disgust_med_med_1_tab20b_decend_lgsm_dot.png"" width=""480"" height=""420"" style=""object-fit:contain;"">
                            </div>
                        </div>","-101","html-slider-response",94,242560,"0.0-90.0","kzz4ajz5ma",8,"","","","","","",0,"",NA,"","Disgust","images/9_Disgust_med_med_1_tab20b_decend_lgsm_dot.png",NA,NA
NA,"<div style=""width:500px;"">
                            <p style=""font-size:50px; font-weight:bold;""
                            >Disgust</p>
                            <div style=""width:480px; margin: auto;"">
                                <img src=""images/9_Disgust_hi_hi_3_Dark2_ascend_lgsm_dot.png"" width=""480"" height=""420"" style=""object-fit:contain;"">
                            </div>
                        </div>","126","html-slider-response",95,245426,"0.0-91.0","kzz4ajz5ma",8,"","","","","","",0,"",NA,"","Disgust","images/9_Disgust_hi_hi_3_Dark2_ascend_lgsm_dot.png",NA,NA
NA,"<div style=""width:500px;"">
                            <p style=""font-size:50px; font-weight:bold;""
                            >Disgust</p>
                            <div style=""width:480px; margin: auto;"">
                                <img src=""images/9_Disgust_hi_md_3_tab20_decend_lgsm_dot.png"" width=""480"" height=""420"" style=""object-fit:contain;"">
                            </div>
                        </div>","16","html-slider-response",96,247993,"0.0-92.0","kzz4ajz5ma",8,"","","","","","",0,"",NA,"","Disgust","images/9_Disgust_hi_md_3_tab20_decend_lgsm_dot.png",NA,NA
NA,"<div style=""width:500px;"">
                            <p style=""font-size:50px; font-weight:bold;""
                            >Disgust</p>
                            <div style=""width:480px; margin: auto;"">
                                <img src=""images/9_Disgust_lo_lo_1_tab20c_ascend_smlg_dot.png"" width=""480"" height=""420"" style=""object-fit:contain;"">
                            </div>
                        </div>","-200","html-slider-response",97,250077,"0.0-93.0","kzz4ajz5ma",8,"","","","","","",0,"",NA,"","Disgust","images/9_Disgust_lo_lo_1_tab20c_ascend_smlg_dot.png",NA,NA
NA,"<div style=""width:500px;"">
                            <p style=""font-size:50px; font-weight:bold;""
                            >Disgust</p>
                            <div style=""width:480px; margin: auto;"">
                                <img src=""images/9_Disgust_hi_md_2_Dark2_ascend_lgsm_dot.png"" width=""480"" height=""420"" style=""object-fit:contain;"">
                            </div>
                        </div>","28","html-slider-response",98,252226,"0.0-94.0","kzz4ajz5ma",8,"","","","","","",0,"",NA,"","Disgust","images/9_Disgust_hi_md_2_Dark2_ascend_lgsm_dot.png",NA,NA
NA,"<div style=""width:500px;"">
                            <p style=""font-size:50px; font-weight:bold;""
                            >Disgust</p>
                            <div style=""width:480px; margin: auto;"">
                                <img src=""images/9_Disgust_hi_md_1_tab20b_decend_smlg_dot.png"" width=""480"" height=""420"" style=""object-fit:contain;"">
                            </div>
                        </div>","91","html-slider-response",99,254359,"0.0-95.0","kzz4ajz5ma",8,"","","","","","",0,"",NA,"","Disgust","images/9_Disgust_hi_md_1_tab20b_decend_smlg_dot.png",NA,NA
NA,"<div style=""width:500px;"">
                            <p style=""font-size:50px; font-weight:bold;""
                            >Disgust</p>
                            <div style=""width:480px; margin: auto;"">
                                <img src=""images/9_Disgust_med_lo_1_tab20c_ascend_lgsm_dot.png"" width=""480"" height=""420"" style=""object-fit:contain;"">
                            </div>
                        </div>","-200","html-slider-response",100,256427,"0.0-96.0","kzz4ajz5ma",8,"","","","","","",0,"",NA,"","Disgust","images/9_Disgust_med_lo_1_tab20c_ascend_lgsm_dot.png",NA,NA
NA,"<div style=""width:500px;"">
                            <p style=""font-size:50px; font-weight:bold;""
                            >Disgust</p>
                            <div style=""width:480px; margin: auto;"">
                                <img src=""images/9_Disgust_hi_md_3_tab20_ascend_lgsm_dot.png"" width=""480"" height=""420"" style=""object-fit:contain;"">
                            </div>
                        </div>","46","html-slider-response",101,258577,"0.0-97.0","kzz4ajz5ma",8,"","","","","","",0,"",NA,"","Disgust","images/9_Disgust_hi_md_3_tab20_ascend_lgsm_dot.png",NA,NA
NA,"<div style=""width:500px;"">
                            <p style=""font-size:50px; font-weight:bold;""
                            >Disgust</p>
                            <div style=""width:480px; margin: auto;"">
                                <img src=""images/9_Disgust_hi_lo_2_tab20_ascend_lgsm_dot.png"" width=""480"" height=""420"" style=""object-fit:contain;"">
                            </div>
                        </div>","65","html-slider-response",102,260560,"0.0-98.0","kzz4ajz5ma",8,"","","","","","",0,"",NA,"","Disgust","images/9_Disgust_hi_lo_2_tab20_ascend_lgsm_dot.png",NA,NA
NA,"<div style=""width:500px;"">
                            <p style=""font-size:50px; font-weight:bold;""
                            >Disgust</p>
                            <div style=""width:480px; margin: auto;"">
                                <img src=""images/9_Disgust_hi_hi_3_Dark2_decend_lgsm_dot.png"" width=""480"" height=""420"" style=""object-fit:contain;"">
                            </div>
                        </div>","107","html-slider-response",103,262695,"0.0-99.0","kzz4ajz5ma",8,"","","","","","",0,"",NA,"","Disgust","images/9_Disgust_hi_hi_3_Dark2_decend_lgsm_dot.png",NA,NA
NA,"<div style=""width:500px;"">
                            <p style=""font-size:50px; font-weight:bold;""
                            >Disgust</p>
                            <div style=""width:480px; margin: auto;"">
                                <img src=""images/9_Disgust_hi_lo_3_Paired_decend_smlg_dot.png"" width=""480"" height=""420"" style=""object-fit:contain;"">
                            </div>
                        </div>","12","html-slider-response",104,266776,"0.0-100.0","kzz4ajz5ma",8,"","","","","","",0,"",NA,"","Disgust","images/9_Disgust_hi_lo_3_Paired_decend_smlg_dot.png",NA,NA
NA,"<div style=""width:500px;"">
                            <p style=""font-size:50px; font-weight:bold;""
                            >Disgust</p>
                            <div style=""width:480px; margin: auto;"">
                                <img src=""images/9_Disgust_med_lo_3_Pastel2_decend_smlg_dot.png"" width=""480"" height=""420"" style=""object-fit:contain;"">
                            </div>
                        </div>","-200","html-slider-response",105,268726,"0.0-101.0","kzz4ajz5ma",8,"","","","","","",0,"",NA,"","Disgust","images/9_Disgust_med_lo_3_Pastel2_decend_smlg_dot.png",NA,NA
NA,"<div style=""width:500px;"">
                            <p style=""font-size:50px; font-weight:bold;""
                            >Disgust</p>
                            <div style=""width:480px; margin: auto;"">
                                <img src=""images/9_Disgust_med_lo_2_tab20_ascend_smlg_dot.png"" width=""480"" height=""420"" style=""object-fit:contain;"">
                            </div>
                        </div>","-200","html-slider-response",106,271294,"0.0-102.0","kzz4ajz5ma",8,"","","","","","",0,"",NA,"","Disgust","images/9_Disgust_med_lo_2_tab20_ascend_smlg_dot.png",NA,NA
NA,"<div style=""width:500px;"">
                            <p style=""font-size:50px; font-weight:bold;""
                            >Disgust</p>
                            <div style=""width:480px; margin: auto;"">
                                <img src=""images/9_Disgust_lo_lo_1_tab20c_decend_lgsm_dot.png"" width=""480"" height=""420"" style=""object-fit:contain;"">
                            </div>
                        </div>","-200","html-slider-response",107,273327,"0.0-103.0","kzz4ajz5ma",8,"","","","","","",0,"",NA,"","Disgust","images/9_Disgust_lo_lo_1_tab20c_decend_lgsm_dot.png",NA,NA
NA,"<div style=""width:500px;"">
                            <p style=""font-size:50px; font-weight:bold;""
                            >Disgust</p>
                            <div style=""width:480px; margin: auto;"">
                                <img src=""images/9_Disgust_med_med_2_tab20_decend_smlg_dot.png"" width=""480"" height=""420"" style=""object-fit:contain;"">
                            </div>
                        </div>","-34","html-slider-response",108,276277,"0.0-104.0","kzz4ajz5ma",8,"","","","","","",0,"",NA,"","Disgust","images/9_Disgust_med_med_2_tab20_decend_smlg_dot.png",NA,NA
NA,"<div style=""width:500px;"">
                            <p style=""font-size:50px; font-weight:bold;""
                            >Disgust</p>
                            <div style=""width:480px; margin: auto;"">
                                <img src=""images/9_Disgust_lo_lo_2_Pastel1_decend_lgsm_dot.png"" width=""480"" height=""420"" style=""object-fit:contain;"">
                            </div>
                        </div>","-200","html-slider-response",109,278262,"0.0-105.0","kzz4ajz5ma",8,"","","","","","",0,"",NA,"","Disgust","images/9_Disgust_lo_lo_2_Pastel1_decend_lgsm_dot.png",NA,NA
NA,"<div style=""width:500px;"">
                            <p style=""font-size:50px; font-weight:bold;""
                            >Disgust</p>
                            <div style=""width:480px; margin: auto;"">
                                <img src=""images/9_Disgust_hi_hi_2_tab20_ascend_smlg_dot.png"" width=""480"" height=""420"" style=""object-fit:contain;"">
                            </div>
                        </div>","200","html-slider-response",110,280277,"0.0-106.0","kzz4ajz5ma",8,"","","","","","",0,"",NA,"","Disgust","images/9_Disgust_hi_hi_2_tab20_ascend_smlg_dot.png",NA,NA
NA,"<div style=""width:500px;"">
                            <p style=""font-size:50px; font-weight:bold;""
                            >Disgust</p>
                            <div style=""width:480px; margin: auto;"">
                                <img src=""images/9_Disgust_med_lo_2_tab20_decend_smlg_dot.png"" width=""480"" height=""420"" style=""object-fit:contain;"">
                            </div>
                        </div>","-40","html-slider-response",111,282426,"0.0-107.0","kzz4ajz5ma",8,"","","","","","",0,"",NA,"","Disgust","images/9_Disgust_med_lo_2_tab20_decend_smlg_dot.png",NA,NA
NA,"<div style=""width:500px;"">
                            <p style=""font-size:50px; font-weight:bold;""
                            >Disgust</p>
                            <div style=""width:480px; margin: auto;"">
                                <img src=""images/9_Disgust_hi_lo_1_tab20b_ascend_lgsm_dot.png"" width=""480"" height=""420"" style=""object-fit:contain;"">
                            </div>
                        </div>","37","html-slider-response",112,284461,"0.0-108.0","kzz4ajz5ma",8,"","","","","","",0,"",NA,"","Disgust","images/9_Disgust_hi_lo_1_tab20b_ascend_lgsm_dot.png",NA,NA
NA,"<div style=""width:500px;"">
                            <p style=""font-size:50px; font-weight:bold;""
                            >Disgust</p>
                            <div style=""width:480px; margin: auto;"">
                                <img src=""images/9_Disgust_med_med_3_Paired_ascend_lgsm_dot.png"" width=""480"" height=""420"" style=""object-fit:contain;"">
                            </div>
                        </div>","-200","html-slider-response",113,286377,"0.0-109.0","kzz4ajz5ma",8,"","","","","","",0,"",NA,"","Disgust","images/9_Disgust_med_med_3_Paired_ascend_lgsm_dot.png",NA,NA
NA,"<div style=""width:500px;"">
                            <p style=""font-size:50px; font-weight:bold;""
                            >Disgust</p>
                            <div style=""width:480px; margin: auto;"">
                                <img src=""images/9_Disgust_hi_md_2_Dark2_ascend_smlg_dot.png"" width=""480"" height=""420"" style=""object-fit:contain;"">
                            </div>
                        </div>","200","html-slider-response",114,288493,"0.0-110.0","kzz4ajz5ma",8,"","","","","","",0,"",NA,"","Disgust","images/9_Disgust_hi_md_2_Dark2_ascend_smlg_dot.png",NA,NA
NA,"<div style=""width:500px;"">
                            <p style=""font-size:50px; font-weight:bold;""
                            >Disgust</p>
                            <div style=""width:480px; margin: auto;"">
                                <img src=""images/9_Disgust_hi_hi_1_tab20b_decend_smlg_dot.png"" width=""480"" height=""420"" style=""object-fit:contain;"">
                            </div>
                        </div>","200","html-slider-response",115,290577,"0.0-111.0","kzz4ajz5ma",8,"","","","","","",0,"",NA,"","Disgust","images/9_Disgust_hi_hi_1_tab20b_decend_smlg_dot.png",NA,NA
NA,"<div style=""width:500px;"">
                            <p style=""font-size:50px; font-weight:bold;""
                            >Disgust</p>
                            <div style=""width:480px; margin: auto;"">
                                <img src=""images/9_Disgust_med_med_2_tab20_ascend_smlg_dot.png"" width=""480"" height=""420"" style=""object-fit:contain;"">
                            </div>
                        </div>","-66","html-slider-response",116,292661,"0.0-112.0","kzz4ajz5ma",8,"","","","","","",0,"",NA,"","Disgust","images/9_Disgust_med_med_2_tab20_ascend_smlg_dot.png",NA,NA
NA,"<div style=""width:500px;"">
                            <p style=""font-size:50px; font-weight:bold;""
                            >Disgust</p>
                            <div style=""width:480px; margin: auto;"">
                                <img src=""images/9_Disgust_med_med_1_tab20b_decend_smlg_dot.png"" width=""480"" height=""420"" style=""object-fit:contain;"">
                            </div>
                        </div>","-200","html-slider-response",117,295511,"0.0-113.0","kzz4ajz5ma",8,"","","","","","",0,"",NA,"","Disgust","images/9_Disgust_med_med_1_tab20b_decend_smlg_dot.png",NA,NA
NA,"<div style=""width:500px;"">
                            <p style=""font-size:50px; font-weight:bold;""
                            >Disgust</p>
                            <div style=""width:480px; margin: auto;"">
                                <img src=""images/9_Disgust_lo_lo_2_Pastel1_ascend_smlg_dot.png"" width=""480"" height=""420"" style=""object-fit:contain;"">
                            </div>
                        </div>","-200","html-slider-response",118,297977,"0.0-114.0","kzz4ajz5ma",8,"","","","","","",0,"",NA,"","Disgust","images/9_Disgust_lo_lo_2_Pastel1_ascend_smlg_dot.png",NA,NA
NA,"<div style=""width:500px;"">
                            <p style=""font-size:50px; font-weight:bold;""
                            >Disgust</p>
                            <div style=""width:480px; margin: auto;"">
                                <img src=""images/9_Disgust_med_med_2_tab20_decend_lgsm_dot.png"" width=""480"" height=""420"" style=""object-fit:contain;"">
                            </div>
                        </div>","-17","html-slider-response",119,300044,"0.0-115.0","kzz4ajz5ma",8,"","","","","","",0,"",NA,"","Disgust","images/9_Disgust_med_med_2_tab20_decend_lgsm_dot.png",NA,NA
NA,"<div style=""width:500px;"">
                            <p style=""font-size:50px; font-weight:bold;""
                            >Disgust</p>
                            <div style=""width:480px; margin: auto;"">
                                <img src=""images/9_Disgust_hi_lo_2_tab20_decend_smlg_dot.png"" width=""480"" height=""420"" style=""object-fit:contain;"">
                            </div>
                        </div>","34","html-slider-response",120,302026,"0.0-116.0","kzz4ajz5ma",8,"","","","","","",0,"",NA,"","Disgust","images/9_Disgust_hi_lo_2_tab20_decend_smlg_dot.png",NA,NA
NA,"<div style=""width:500px;"">
                            <p style=""font-size:50px; font-weight:bold;""
                            >Disgust</p>
                            <div style=""width:480px; margin: auto;"">
                                <img src=""images/9_Disgust_med_lo_2_tab20_ascend_lgsm_dot.png"" width=""480"" height=""420"" style=""object-fit:contain;"">
                            </div>
                        </div>","-150","html-slider-response",121,304476,"0.0-117.0","kzz4ajz5ma",8,"","","","","","",0,"",NA,"","Disgust","images/9_Disgust_med_lo_2_tab20_ascend_lgsm_dot.png",NA,NA
NA,"<div style=""width:500px;"">
                            <p style=""font-size:50px; font-weight:bold;""
                            >Disgust</p>
                            <div style=""width:480px; margin: auto;"">
                                <img src=""images/9_Disgust_hi_hi_1_tab20b_ascend_smlg_dot.png"" width=""480"" height=""420"" style=""object-fit:contain;"">
                            </div>
                        </div>","200","html-slider-response",122,306544,"0.0-118.0","kzz4ajz5ma",8,"","","","","","",0,"",NA,"","Disgust","images/9_Disgust_hi_hi_1_tab20b_ascend_smlg_dot.png",NA,NA
NA,"<div style=""width:500px;"">
                            <p style=""font-size:50px; font-weight:bold;""
                            >Disgust</p>
                            <div style=""width:480px; margin: auto;"">
                                <img src=""images/9_Disgust_hi_hi_2_tab20_decend_lgsm_dot.png"" width=""480"" height=""420"" style=""object-fit:contain;"">
                            </div>
                        </div>","200","html-slider-response",123,308644,"0.0-119.0","kzz4ajz5ma",8,"","","","","","",0,"",NA,"","Disgust","images/9_Disgust_hi_hi_2_tab20_decend_lgsm_dot.png",NA,NA
NA,"<div style=""width:500px;"">
                            <p style=""font-size:50px; font-weight:bold;""
                            >Disgust</p>
                            <div style=""width:480px; margin: auto;"">
                                <img src=""images/9_Disgust_hi_lo_2_tab20_ascend_smlg_dot.png"" width=""480"" height=""420"" style=""object-fit:contain;"">
                            </div>
                        </div>","20","html-slider-response",124,310577,"0.0-120.0","kzz4ajz5ma",8,"","","","","","",0,"",NA,"","Disgust","images/9_Disgust_hi_lo_2_tab20_ascend_smlg_dot.png",NA,NA
NA,"<div style=""width:500px;"">
                            <p style=""font-size:50px; font-weight:bold;""
                            >Disgust</p>
                            <div style=""width:480px; margin: auto;"">
                                <img src=""images/9_Disgust_hi_lo_2_tab20_decend_lgsm_dot.png"" width=""480"" height=""420"" style=""object-fit:contain;"">
                            </div>
                        </div>","18","html-slider-response",125,312960,"0.0-121.0","kzz4ajz5ma",8,"","","","","","",0,"",NA,"","Disgust","images/9_Disgust_hi_lo_2_tab20_decend_lgsm_dot.png",NA,NA
NA,"<div style=""width:500px;"">
                            <p style=""font-size:50px; font-weight:bold;""
                            >Disgust</p>
                            <div style=""width:480px; margin: auto;"">
                                <img src=""images/9_Disgust_lo_lo_3_tab20_decend_lgsm_dot.png"" width=""480"" height=""420"" style=""object-fit:contain;"">
                            </div>
                        </div>","-200","html-slider-response",126,315061,"0.0-122.0","kzz4ajz5ma",8,"","","","","","",0,"",NA,"","Disgust","images/9_Disgust_lo_lo_3_tab20_decend_lgsm_dot.png",NA,NA
NA,"<div style=""width:500px;"">
                            <p style=""font-size:50px; font-weight:bold;""
                            >Disgust</p>
                            <div style=""width:480px; margin: auto;"">
                                <img src=""images/9_Disgust_hi_lo_3_Paired_decend_lgsm_dot.png"" width=""480"" height=""420"" style=""object-fit:contain;"">
                            </div>
                        </div>","-28","html-slider-response",127,317576,"0.0-123.0","kzz4ajz5ma",8,"","","","","","",0,"",NA,"","Disgust","images/9_Disgust_hi_lo_3_Paired_decend_lgsm_dot.png",NA,NA
NA,"<div style=""width:500px;"">
                            <p style=""font-size:50px; font-weight:bold;""
                            >Disgust</p>
                            <div style=""width:480px; margin: auto;"">
                                <img src=""images/9_Disgust_hi_lo_1_tab20b_ascend_smlg_dot.png"" width=""480"" height=""420"" style=""object-fit:contain;"">
                            </div>
                        </div>","-32","html-slider-response",128,319977,"0.0-124.0","kzz4ajz5ma",8,"","","","","","",0,"",NA,"","Disgust","images/9_Disgust_hi_lo_1_tab20b_ascend_smlg_dot.png",NA,NA
NA,"<div style=""width:500px;"">
                            <p style=""font-size:50px; font-weight:bold;""
                            >Disgust</p>
                            <div style=""width:480px; margin: auto;"">
                                <img src=""images/9_Disgust_med_lo_1_tab20c_decend_lgsm_dot.png"" width=""480"" height=""420"" style=""object-fit:contain;"">
                            </div>
                        </div>","-141","html-slider-response",129,322744,"0.0-125.0","kzz4ajz5ma",8,"","","","","","",0,"",NA,"","Disgust","images/9_Disgust_med_lo_1_tab20c_decend_lgsm_dot.png",NA,NA
NA,"<div style=""width:500px;"">
                            <p style=""font-size:50px; font-weight:bold;""
                            >Disgust</p>
                            <div style=""width:480px; margin: auto;"">
                                <img src=""images/9_Disgust_hi_hi_2_tab20_decend_smlg_dot.png"" width=""480"" height=""420"" style=""object-fit:contain;"">
                            </div>
                        </div>","200","html-slider-response",130,324644,"0.0-126.0","kzz4ajz5ma",8,"","","","","","",0,"",NA,"","Disgust","images/9_Disgust_hi_hi_2_tab20_decend_smlg_dot.png",NA,NA
NA,"<div style=""width:500px;"">
                            <p style=""font-size:50px; font-weight:bold;""
                            >Disgust</p>
                            <div style=""width:480px; margin: auto;"">
                                <img src=""images/9_Disgust_med_lo_2_tab20_decend_lgsm_dot.png"" width=""480"" height=""420"" style=""object-fit:contain;"">
                            </div>
                        </div>","-29","html-slider-response",131,326761,"0.0-127.0","kzz4ajz5ma",8,"","","","","","",0,"",NA,"","Disgust","images/9_Disgust_med_lo_2_tab20_decend_lgsm_dot.png",NA,NA
NA,"<div style=""width:500px;"">
                            <p style=""font-size:50px; font-weight:bold;""
                            >Disgust</p>
                            <div style=""width:480px; margin: auto;"">
                                <img src=""images/9_Disgust_hi_hi_1_tab20b_decend_lgsm_dot.png"" width=""480"" height=""420"" style=""object-fit:contain;"">
                            </div>
                        </div>","172","html-slider-response",132,328927,"0.0-128.0","kzz4ajz5ma",8,"","","","","","",0,"",NA,"","Disgust","images/9_Disgust_hi_hi_1_tab20b_decend_lgsm_dot.png",NA,NA
NA,"<div style=""width:500px;"">
                            <p style=""font-size:50px; font-weight:bold;""
                            >Disgust</p>
                            <div style=""width:480px; margin: auto;"">
                                <img src=""images/9_Disgust_med_med_3_Paired_decend_lgsm_dot.png"" width=""480"" height=""420"" style=""object-fit:contain;"">
                            </div>
                        </div>","-53","html-slider-response",133,331093,"0.0-129.0","kzz4ajz5ma",8,"","","","","","",0,"",NA,"","Disgust","images/9_Disgust_med_med_3_Paired_decend_lgsm_dot.png",NA,NA
NA,"<div style=""width:500px;"">
                            <p style=""font-size:50px; font-weight:bold;""
                            >Disgust</p>
                            <div style=""width:480px; margin: auto;"">
                                <img src=""images/9_Disgust_med_lo_3_Pastel2_decend_lgsm_dot.png"" width=""480"" height=""420"" style=""object-fit:contain;"">
                            </div>
                        </div>","-200","html-slider-response",134,333144,"0.0-130.0","kzz4ajz5ma",8,"","","","","","",0,"",NA,"","Disgust","images/9_Disgust_med_lo_3_Pastel2_decend_lgsm_dot.png",NA,NA
NA,"<div style=""width:500px;"">
                            <p style=""font-size:50px; font-weight:bold;""
                            >Disgust</p>
                            <div style=""width:480px; margin: auto;"">
                                <img src=""images/9_Disgust_lo_lo_3_tab20_decend_smlg_dot.png"" width=""480"" height=""420"" style=""object-fit:contain;"">
                            </div>
                        </div>","-200","html-slider-response",135,334944,"0.0-131.0","kzz4ajz5ma",8,"","","","","","",0,"",NA,"","Disgust","images/9_Disgust_lo_lo_3_tab20_decend_smlg_dot.png",NA,NA
NA,"<div style=""width:500px;"">
                            <p style=""font-size:50px; font-weight:bold;""
                            >Disgust</p>
                            <div style=""width:480px; margin: auto;"">
                                <img src=""images/9_Disgust_hi_lo_3_Paired_ascend_lgsm_dot.png"" width=""480"" height=""420"" style=""object-fit:contain;"">
                            </div>
                        </div>","39","html-slider-response",136,337111,"0.0-132.0","kzz4ajz5ma",8,"","","","","","",0,"",NA,"","Disgust","images/9_Disgust_hi_lo_3_Paired_ascend_lgsm_dot.png",NA,NA
NA,"<div style=""width:500px;"">
                            <p style=""font-size:50px; font-weight:bold;""
                            >Disgust</p>
                            <div style=""width:480px; margin: auto;"">
                                <img src=""images/9_Disgust_lo_lo_2_Pastel1_ascend_lgsm_dot.png"" width=""480"" height=""420"" style=""object-fit:contain;"">
                            </div>
                        </div>","-200","html-slider-response",137,339244,"0.0-133.0","kzz4ajz5ma",8,"","","","","","",0,"",NA,"","Disgust","images/9_Disgust_lo_lo_2_Pastel1_ascend_lgsm_dot.png",NA,NA
NA,"<div style=""width:500px;"">
                            <p style=""font-size:50px; font-weight:bold;""
                            >Disgust</p>
                            <div style=""width:480px; margin: auto;"">
                                <img src=""images/9_Disgust_lo_lo_1_tab20c_ascend_lgsm_dot.png"" width=""480"" height=""420"" style=""object-fit:contain;"">
                            </div>
                        </div>","-200","html-slider-response",138,341177,"0.0-134.0","kzz4ajz5ma",8,"","","","","","",0,"",NA,"","Disgust","images/9_Disgust_lo_lo_1_tab20c_ascend_lgsm_dot.png",NA,NA
NA,"<div style=""width:500px;"">
                            <p style=""font-size:50px; font-weight:bold;""
                            >Disgust</p>
                            <div style=""width:480px; margin: auto;"">
                                <img src=""images/9_Disgust_hi_hi_3_Dark2_decend_smlg_dot.png"" width=""480"" height=""420"" style=""object-fit:contain;"">
                            </div>
                        </div>","111","html-slider-response",139,343395,"0.0-135.0","kzz4ajz5ma",8,"","","","","","",0,"",NA,"","Disgust","images/9_Disgust_hi_hi_3_Dark2_decend_smlg_dot.png",NA,NA
NA,"<div style=""width:500px;"">
                            <p style=""font-size:50px; font-weight:bold;""
                            >Disgust</p>
                            <div style=""width:480px; margin: auto;"">
                                <img src=""images/9_Disgust_hi_lo_3_Paired_ascend_smlg_dot.png"" width=""480"" height=""420"" style=""object-fit:contain;"">
                            </div>
                        </div>","22","html-slider-response",140,348593,"0.0-136.0","kzz4ajz5ma",8,"","","","","","",0,"",NA,"","Disgust","images/9_Disgust_hi_lo_3_Paired_ascend_smlg_dot.png",NA,NA
NA,"<div style=""width:500px;"">
                            <p style=""font-size:50px; font-weight:bold;""
                            >Disgust</p>
                            <div style=""width:480px; margin: auto;"">
                                <img src=""images/9_Disgust_med_lo_3_Pastel2_ascend_lgsm_dot.png"" width=""480"" height=""420"" style=""object-fit:contain;"">
                            </div>
                        </div>","-107","html-slider-response",141,350794,"0.0-137.0","kzz4ajz5ma",8,"","","","","","",0,"",NA,"","Disgust","images/9_Disgust_med_lo_3_Pastel2_ascend_lgsm_dot.png",NA,NA
NA,"<div style=""width:500px;"">
                            <p style=""font-size:50px; font-weight:bold;""
                            >Disgust</p>
                            <div style=""width:480px; margin: auto;"">
                                <img src=""images/9_Disgust_med_med_3_Paired_decend_smlg_dot.png"" width=""480"" height=""420"" style=""object-fit:contain;"">
                            </div>
                        </div>","-38","html-slider-response",142,353010,"0.0-138.0","kzz4ajz5ma",8,"","","","","","",0,"",NA,"","Disgust","images/9_Disgust_med_med_3_Paired_decend_smlg_dot.png",NA,NA
NA,"<div style=""width:500px;"">
                            <p style=""font-size:50px; font-weight:bold;""
                            >Disgust</p>
                            <div style=""width:480px; margin: auto;"">
                                <img src=""images/9_Disgust_med_med_1_tab20b_ascend_smlg_dot.png"" width=""480"" height=""420"" style=""object-fit:contain;"">
                            </div>
                        </div>","-19","html-slider-response",143,355027,"0.0-139.0","kzz4ajz5ma",8,"","","","","","",0,"",NA,"","Disgust","images/9_Disgust_med_med_1_tab20b_ascend_smlg_dot.png",NA,NA
NA,"<div style=""width:500px;"">
                            <p style=""font-size:50px; font-weight:bold;""
                            >Disgust</p>
                            <div style=""width:480px; margin: auto;"">
                                <img src=""images/9_Disgust_med_med_2_tab20_ascend_lgsm_dot.png"" width=""480"" height=""420"" style=""object-fit:contain;"">
                            </div>
                        </div>","3","html-slider-response",144,357028,"0.0-140.0","kzz4ajz5ma",8,"","","","","","",0,"",NA,"","Disgust","images/9_Disgust_med_med_2_tab20_ascend_lgsm_dot.png",NA,NA
NA,"<div style=""width:500px;"">
                            <p style=""font-size:50px; font-weight:bold;""
                            >Disgust</p>
                            <div style=""width:480px; margin: auto;"">
                                <img src=""images/9_Disgust_med_med_1_tab20b_ascend_lgsm_dot.png"" width=""480"" height=""420"" style=""object-fit:contain;"">
                            </div>
                        </div>","-18","html-slider-response",145,359528,"0.0-141.0","kzz4ajz5ma",8,"","","","","","",0,"",NA,"","Disgust","images/9_Disgust_med_med_1_tab20b_ascend_lgsm_dot.png",NA,NA
NA,"<div style=""width:500px;"">
                            <p style=""font-size:50px; font-weight:bold;""
                            >Disgust</p>
                            <div style=""width:480px; margin: auto;"">
                                <img src=""images/9_Disgust_med_lo_3_Pastel2_ascend_smlg_dot.png"" width=""480"" height=""420"" style=""object-fit:contain;"">
                            </div>
                        </div>","-38","html-slider-response",146,361528,"0.0-142.0","kzz4ajz5ma",8,"","","","","","",0,"",NA,"","Disgust","images/9_Disgust_med_lo_3_Pastel2_ascend_smlg_dot.png",NA,NA
NA,"<div style=""width:500px;"">
                            <p style=""font-size:50px; font-weight:bold;""
                            >Disgust</p>
                            <div style=""width:480px; margin: auto;"">
                                <img src=""images/9_Disgust_med_lo_1_tab20c_ascend_smlg_dot.png"" width=""480"" height=""420"" style=""object-fit:contain;"">
                            </div>
                        </div>","-90","html-slider-response",147,363561,"0.0-143.0","kzz4ajz5ma",8,"","","","","","",0,"",NA,"","Disgust","images/9_Disgust_med_lo_1_tab20c_ascend_smlg_dot.png",NA,NA
NA,"<div style=""width:500px;"">
                            <p style=""font-size:50px; font-weight:bold;""
                            >Disgust</p>
                            <div style=""width:480px; margin: auto;"">
                                <img src=""images/9_Disgust_lo_lo_3_tab20_ascend_smlg_dot.png"" width=""480"" height=""420"" style=""object-fit:contain;"">
                            </div>
                        </div>","-200","html-slider-response",148,365778,"0.0-144.0","kzz4ajz5ma",8,"","","","","","",0,"",NA,"","Disgust","images/9_Disgust_lo_lo_3_tab20_ascend_smlg_dot.png",NA,NA
NA,"<div style=""width:500px;"">
                            <p style=""font-size:50px; font-weight:bold;""
                            >Disgust</p>
                            <div style=""width:480px; margin: auto;"">
                                <img src=""images/9_Disgust_lo_lo_3_tab20_ascend_lgsm_dot.png"" width=""480"" height=""420"" style=""object-fit:contain;"">
                            </div>
                        </div>","-200","html-slider-response",149,368494,"0.0-145.0","kzz4ajz5ma",8,"","","","","","",0,"",NA,"","Disgust","images/9_Disgust_lo_lo_3_tab20_ascend_lgsm_dot.png",NA,NA
NA,"<div style=""width:500px;"">
                            <p style=""font-size:50px; font-weight:bold;""
                            >Disgust</p>
                            <div style=""width:480px; margin: auto;"">
                                <img src=""images/9_Disgust_hi_lo_1_tab20b_decend_smlg_dot.png"" width=""480"" height=""420"" style=""object-fit:contain;"">
                            </div>
                        </div>","83","html-slider-response",150,371194,"0.0-146.0","kzz4ajz5ma",8,"","","","","","",0,"",NA,"","Disgust","images/9_Disgust_hi_lo_1_tab20b_decend_smlg_dot.png",NA,NA
NA,"<div style=""width:500px;"">
                            <p style=""font-size:50px; font-weight:bold;""
                            >Disgust</p>
                            <div style=""width:480px; margin: auto;"">
                                <img src=""images/9_Disgust_hi_md_2_Dark2_decend_lgsm_dot.png"" width=""480"" height=""420"" style=""object-fit:contain;"">
                            </div>
                        </div>","148","html-slider-response",151,374011,"0.0-147.0","kzz4ajz5ma",8,"","","","","","",0,"",NA,"","Disgust","images/9_Disgust_hi_md_2_Dark2_decend_lgsm_dot.png",NA,NA
NA,"<div style=""width:500px;"">
                            <p style=""font-size:50px; font-weight:bold;""
                            >Disgust</p>
                            <div style=""width:480px; margin: auto;"">
                                <img src=""images/9_Disgust_hi_hi_3_Dark2_ascend_smlg_dot.png"" width=""480"" height=""420"" style=""object-fit:contain;"">
                            </div>
                        </div>","200","html-slider-response",152,376196,"0.0-148.0","kzz4ajz5ma",8,"","","","","","",0,"",NA,"","Disgust","images/9_Disgust_hi_hi_3_Dark2_ascend_smlg_dot.png",NA,NA
NA,"<div style=""width:500px;"">
                            <p style=""font-size:50px; font-weight:bold;""
                            >Disgust</p>
                            <div style=""width:480px; margin: auto;"">
                                <img src=""images/9_Disgust_hi_md_1_tab20b_ascend_lgsm_dot.png"" width=""480"" height=""420"" style=""object-fit:contain;"">
                            </div>
                        </div>","2","html-slider-response",153,378094,"0.0-149.0","kzz4ajz5ma",8,"","","","","","",0,"",NA,"","Disgust","images/9_Disgust_hi_md_1_tab20b_ascend_lgsm_dot.png",NA,NA
NA,"<div style=""width:500px;"">
                            <p style=""font-size:50px; font-weight:bold;""
                            >Disgust</p>
                            <div style=""width:480px; margin: auto;"">
                                <img src=""images/9_Disgust_med_med_3_Paired_ascend_smlg_dot.png"" width=""480"" height=""420"" style=""object-fit:contain;"">
                            </div>
                        </div>","-37","html-slider-response",154,381743,"0.0-150.0","kzz4ajz5ma",8,"","","","","","",0,"",NA,"","Disgust","images/9_Disgust_med_med_3_Paired_ascend_smlg_dot.png",NA,NA
NA,"<div style=""width:500px;"">
                            <p style=""font-size:50px; font-weight:bold;""
                            >Disgust</p>
                            <div style=""width:480px; margin: auto;"">
                                <img src=""images/9_Disgust_hi_md_3_tab20_ascend_smlg_dot.png"" width=""480"" height=""420"" style=""object-fit:contain;"">
                            </div>
                        </div>","44","html-slider-response",155,383761,"0.0-151.0","kzz4ajz5ma",8,"","","","","","",0,"",NA,"","Disgust","images/9_Disgust_hi_md_3_tab20_ascend_smlg_dot.png",NA,NA
NA,"<div style=""width:500px;"">
                            <p style=""font-size:50px; font-weight:bold;""
                            >Disgust</p>
                            <div style=""width:480px; margin: auto;"">
                                <img src=""images/9_Disgust_lo_lo_2_Pastel1_decend_smlg_dot.png"" width=""480"" height=""420"" style=""object-fit:contain;"">
                            </div>
                        </div>","-200","html-slider-response",156,385794,"0.0-152.0","kzz4ajz5ma",8,"","","","","","",0,"",NA,"","Disgust","images/9_Disgust_lo_lo_2_Pastel1_decend_smlg_dot.png",NA,NA
NA,"<div style=""width:500px;"">
                            <p style=""font-size:50px; font-weight:bold;""
                            >Disgust</p>
                            <div style=""width:480px; margin: auto;"">
                                <img src=""images/9_Disgust_hi_md_3_tab20_decend_smlg_dot.png"" width=""480"" height=""420"" style=""object-fit:contain;"">
                            </div>
                        </div>","50","html-slider-response",157,388544,"0.0-153.0","kzz4ajz5ma",8,"","","","","","",0,"",NA,"","Disgust","images/9_Disgust_hi_md_3_tab20_decend_smlg_dot.png",NA,NA
NA,"<div style=""width:500px;"">
                            <p style=""font-size:50px; font-weight:bold;""
                            >Disgust</p>
                            <div style=""width:480px; margin: auto;"">
                                <img src=""images/9_Disgust_hi_lo_1_tab20b_decend_lgsm_dot.png"" width=""480"" height=""420"" style=""object-fit:contain;"">
                            </div>
                        </div>","52","html-slider-response",158,390844,"0.0-154.0","kzz4ajz5ma",8,"","","","","","",0,"",NA,"","Disgust","images/9_Disgust_hi_lo_1_tab20b_decend_lgsm_dot.png",NA,NA
NA,"<div style=""width:500px;"">
                            <p style=""font-size:50px; font-weight:bold;""
                            >Disgust</p>
                            <div style=""width:480px; margin: auto;"">
                                <img src=""images/9_Disgust_med_lo_1_tab20c_decend_smlg_dot.png"" width=""480"" height=""420"" style=""object-fit:contain;"">
                            </div>
                        </div>","-51","html-slider-response",159,392928,"0.0-155.0","kzz4ajz5ma",8,"","","","","","",0,"",NA,"","Disgust","images/9_Disgust_med_lo_1_tab20c_decend_smlg_dot.png",NA,NA
NA,"<div style=""width:500px;"">
                            <p style=""font-size:50px; font-weight:bold;""
                            >Disgust</p>
                            <div style=""width:480px; margin: auto;"">
                                <img src=""images/9_Disgust_hi_hi_1_tab20b_ascend_lgsm_dot.png"" width=""480"" height=""420"" style=""object-fit:contain;"">
                            </div>
                        </div>","200","html-slider-response",160,394861,"0.0-156.0","kzz4ajz5ma",8,"","","","","","",0,"",NA,"","Disgust","images/9_Disgust_hi_hi_1_tab20b_ascend_lgsm_dot.png",NA,NA
NA,"<div style=""width:500px;"">
                            <p style=""font-size:50px; font-weight:bold;""
                            >Disgust</p>
                            <div style=""width:480px; margin: auto;"">
                                <img src=""images/9_Disgust_lo_lo_1_tab20c_decend_smlg_dot.png"" width=""480"" height=""420"" style=""object-fit:contain;"">
                            </div>
                        </div>","-200","html-slider-response",161,397378,"0.0-157.0","kzz4ajz5ma",8,"","","","","","",0,"",NA,"","Disgust","images/9_Disgust_lo_lo_1_tab20c_decend_smlg_dot.png",NA,NA
NA,"<div style=""width:500px;"">
                            <p style=""font-size:50px; font-weight:bold;""
                            >Disgust</p>
                            <div style=""width:480px; margin: auto;"">
                                <img src=""images/9_Disgust_hi_md_2_Dark2_decend_smlg_dot.png"" width=""480"" height=""420"" style=""object-fit:contain;"">
                            </div>
                        </div>","152","html-slider-response",162,400643,"0.0-158.0","kzz4ajz5ma",8,"","","","","","",0,"",NA,"","Disgust","images/9_Disgust_hi_md_2_Dark2_decend_smlg_dot.png",NA,NA
NA,"<div style=""width:500px;"">
                            <p style=""font-size:50px; font-weight:bold;""
                            >Disgust</p>
                            <div style=""width:480px; margin: auto;"">
                                <img src=""images/9_Disgust_hi_md_1_tab20b_decend_lgsm_dot.png"" width=""480"" height=""420"" style=""object-fit:contain;"">
                            </div>
                        </div>","22","html-slider-response",163,402844,"0.0-159.0","kzz4ajz5ma",8,"","","","","","",0,"",NA,"","Disgust","images/9_Disgust_hi_md_1_tab20b_decend_lgsm_dot.png",NA,NA
81353,"<p>Great Job! You've finished block 2.<br></br> You have 3 block(s) left to go.<br></br></p>","0","html-button-response",164,484700,"0.0-160.0","kzz4ajz5ma",8,"","","","","","",NA,"",NA,"","","",NA,NA
1081,"<p>In this block of trials, you will be asked to rate how much you associate each texture with the concept</p >
                        <p style = 'font-size:150%; font-weight: bold'>Fearful</p><br></br>","0","html-button-response",165,485783,"0.0-161.0","kzz4ajz5ma",8,"","","","","","",NA,"",NA,"","","",NA,NA
NA,"<div style=""width:500px;"">
                            <p style=""font-size:50px; font-weight:bold;""
                            >Fearful</p>
                            <div style=""width:480px; margin: auto;"">
                                <img src=""images/9_Fearful_med_lo_2_Set3_ascend_smlg_dot.png"" width=""480"" height=""420"" style=""object-fit:contain;"">
                            </div>
                        </div>","-53","html-slider-response",166,487577,"0.0-162.0","kzz4ajz5ma",8,"","","","","","",0,"",NA,"","Fearful","images/9_Fearful_med_lo_2_Set3_ascend_smlg_dot.png",NA,NA
NA,"<div style=""width:500px;"">
                            <p style=""font-size:50px; font-weight:bold;""
                            >Fearful</p>
                            <div style=""width:480px; margin: auto;"">
                                <img src=""images/9_Fearful_med_lo_3_tab20_decend_smlg_dot.png"" width=""480"" height=""420"" style=""object-fit:contain;"">
                            </div>
                        </div>","-106","html-slider-response",167,489677,"0.0-163.0","kzz4ajz5ma",8,"","","","","","",0,"",NA,"","Fearful","images/9_Fearful_med_lo_3_tab20_decend_smlg_dot.png",NA,NA
NA,"<div style=""width:500px;"">
                            <p style=""font-size:50px; font-weight:bold;""
                            >Fearful</p>
                            <div style=""width:480px; margin: auto;"">
                                <img src=""images/9_Fearful_hi_hi_1_tab20b_decend_smlg_dot.png"" width=""480"" height=""420"" style=""object-fit:contain;"">
                            </div>
                        </div>","109","html-slider-response",168,491746,"0.0-164.0","kzz4ajz5ma",8,"","","","","","",0,"",NA,"","Fearful","images/9_Fearful_hi_hi_1_tab20b_decend_smlg_dot.png",NA,NA
NA,"<div style=""width:500px;"">
                            <p style=""font-size:50px; font-weight:bold;""
                            >Fearful</p>
                            <div style=""width:480px; margin: auto;"">
                                <img src=""images/9_Fearful_lo_lo_3_tab20c_decend_lgsm_dot.png"" width=""480"" height=""420"" style=""object-fit:contain;"">
                            </div>
                        </div>","-200","html-slider-response",169,494496,"0.0-165.0","kzz4ajz5ma",8,"","","","","","",0,"",NA,"","Fearful","images/9_Fearful_lo_lo_3_tab20c_decend_lgsm_dot.png",NA,NA
NA,"<div style=""width:500px;"">
                            <p style=""font-size:50px; font-weight:bold;""
