"rt","stimulus","response","trial_type","trial_index","time_elapsed","internal_node_id","subject_id","condition_num","success","timeout","failed_images","failed_audio","failed_video","question_order","slider_start","practiceTrial","practiceTrialNum","correct","concept","texture_id","ishihara_plate","correct_response"
2628,"Welcome to our experiment!<p>At the bottom of this screen, you will see a button that says ""Begin Experiment"".<br>Please only click that button when you are ready to complete the 30 minute experiment in one sitting.</p><p> Once you click that button, it will not be possible to restart the experiment.","0","html-button-response",0,2631,"0.0-0.0","vyfak928l8",31,"","","","","","",NA,"",NA,"","","",NA,NA
NA,"","","preload",1,4209,"0.0-1.0","vyfak928l8",31,"true","false","[]","[]","[]","",NA,"",NA,"","","",NA,NA
1453,"","","fullscreen",2,6670,"0.0-2.0","vyfak928l8",31,"true","","","","","",NA,"",NA,"","","",NA,NA
13574,"","{""Consent"":[""<strong>I consent</strong>""]}","survey-multi-select",3,20248,"0.0-3.0","vyfak928l8",31,"","","","","","[0]",NA,"",NA,"","","",NA,NA
2574,"Welcome! <p> This experiment involves two parts: demographic information, followed by the experimental task.<p> It will take about 30 minutes to complete both parts.","0","html-button-response",4,22823,"0.0-4.0","vyfak928l8",31,"","","","","","",NA,"",NA,"","","",NA,NA
14639,"","{""Age"":""19"",""Gender"":""Female"",""Race/ethnicity"":""Asian"",""Languages"":""Chinese, English""}","survey-text",5,37469,"0.0-5.0","vyfak928l8",31,"","","","","","",NA,"",NA,"","","",NA,NA
38379,"
                        <div>
                            <div style='text-align:left; font-size:18px; line-height:25px; width: 1300px;'>
                                During this experiment you will be asked to rate how much you associate charts with                                different concepts. Below, you can see some examples of the charts you will be asked to rate. Above the charts
                                is the list of concepts. You will be asked
                                to rate how much you associate each chart with each concept on a scale from 'not at all' to 'very much' like the
                                one below. <br>

                        <div style=""text-align: left; width: 1300px;"">
                            <p style=""font-size:18px; line-height:20px; text-align:center; font-weight:bold"">
                                Sad, Disgust, Happy, Fearful, Angry
                            </p>
                        </div>

                        <div style=""display: flex; justify-content: center; width: 100%;"">
                            <div style=""
                                display: grid;
                                grid-template-columns: repeat(5, 1fr);
                                gap: 8px;
                                padding: 10px;
                                width: 900px;  
                                margin: 0 auto;
                            "">
                                
                                    <div style=""width: 100%;"">
                                        <img src=""images/32_Sad_lo_lo_1_Set1_decend_smlg_dot.png"" style=""width: 100%; height: auto; object-fit: contain;"">
                                    </div>
                                
                                    <div style=""width: 100%;"">
                                        <img src=""images/32_Angry_lo_lo_1_tab20c_ascend_smlg_dot.png"" style=""width: 100%; height: auto; object-fit: contain;"">
                                    </div>
                                
                                    <div style=""width: 100%;"">
                                        <img src=""images/32_Fearful_lo_lo_1_Pastel1_ascend_smlg_dot.png"" style=""width: 100%; height: auto; object-fit: contain;"">
                                    </div>
                                
                                    <div style=""width: 100%;"">
                                        <img src=""images/32_Disgust_lo_lo_1_tab20c_ascend_lgsm_dot.png"" style=""width: 100%; height: auto; object-fit: contain;"">
                                    </div>
                                
                                    <div style=""width: 100%;"">
                                        <img src=""images/32_Happy_hi_hi_1_Set1_ascend_smlg_dot.png"" style=""width: 100%; height: auto; object-fit: contain;"">
                                    </div>
                                
                                    <div style=""width: 100%;"">
                                        <img src=""images/32_Fearful_hi_hi_1_tab20b_ascend_lgsm_dot.png"" style=""width: 100%; height: auto; object-fit: contain;"">
                                    </div>
                                
                                    <div style=""width: 100%;"">
                                        <img src=""images/32_Disgust_hi_hi_1_tab20b_decend_smlg_dot.png"" style=""width: 100%; height: auto; object-fit: contain;"">
                                    </div>
                                
                                    <div style=""width: 100%;"">
                                        <img src=""images/32_Angry_hi_hi_1_tab20_ascend_smlg_dot.png"" style=""width: 100%; height: auto; object-fit: contain;"">
                                    </div>
                                
                                    <div style=""width: 100%;"">
                                        <img src=""images/32_Happy_lo_lo_1_tab20b_decend_lgsm_dot.png"" style=""width: 100%; height: auto; object-fit: contain;"">
                                    </div>
                                
                                    <div style=""width: 100%;"">
                                        <img src=""images/32_Sad_hi_hi_1_tab20_ascend_smlg_dot.png"" style=""width: 100%; height: auto; object-fit: contain;"">
                                    </div>
                                
                            </div>
                        </div>
                    </div>
                </div>
                    ","-42","html-slider-response",6,75851,"0.0-6.0","vyfak928l8",31,"","","","","","",0,"true",NA,"","","",NA,NA
3922,"<div style=""width:1300px;""><p style=""text-align:left"">To move the slider, click and drag your cursor to the location of the scale where you would like to make your rating and then let go. When you let go of the slider, your response will be recorded and the next trial will begin. <br>
                    We are interested in your initial impressions of each chart for a given concept, so please go with your first intuition. 
                    Before you begin the experiment, there will be four training trials for you to practice using the slider. 
                     When you are ready to start the training trials, please click ""Continue"".</p><br></div>","0","html-button-response",7,79774,"0.0-7.0","vyfak928l8",31,"","","","","","",NA,"",NA,"","","",NA,NA
NA,"<div style=""width:500px;"">
                                    <p style=""font-size:25px;"">Please move the slider all the way to the <br> right endpoint of the scale</p>

                                    </div>
                                </div>","200","html-slider-response",8,83445,"0.0-8.0-0.0","vyfak928l8",31,"","","","","","",0,"true",0,"true","","",NA,NA
1102,"<p align='center'><b>Good job!</b> Click on 'Continue' to proceed.</p>","0","html-button-response",9,85049,"0.0-8.0-1.0","vyfak928l8",31,"","","","","","",NA,"",NA,"","","",NA,NA
NA,"<div style=""width:500px;"">
                                    <p style=""font-size:25px;"">Please move the slider all the way to the <br> left endpoint of the scale</p>

                                    </div>
                                </div>","-200","html-slider-response",10,86817,"0.0-9.0-0.0","vyfak928l8",31,"","","","","","",0,"true",1,"true","","",NA,NA
937,"<p align='center'><b>Good job!</b> Click on 'Continue' to proceed.</p>","0","html-button-response",11,88255,"0.0-9.0-1.0","vyfak928l8",31,"","","","","","",NA,"",NA,"","","",NA,NA
NA,"<div style=""width:500px;"">
                                    <p style=""font-size:25px;"">Please move the slider halfway between the center and right endpoint of the scale</p>

                                    </div>
                                </div>","102","html-slider-response",12,91282,"0.0-10.0-0.0","vyfak928l8",31,"","","","","","",0,"true",2,"true","","",NA,NA
843,"<p align='center'><b>Good job!</b> Click on 'Continue' to proceed.</p>","0","html-button-response",13,92627,"0.0-10.0-1.0","vyfak928l8",31,"","","","","","",NA,"",NA,"","","",NA,NA
NA,"<div style=""width:500px;"">
                                    <p style=""font-size:25px;"">Please move the slider halfway between the center and left endpoint of the scale</p>

                                    </div>
                                </div>","-102","html-slider-response",14,94481,"0.0-11.0-0.0","vyfak928l8",31,"","","","","","",0,"true",3,"true","","",NA,NA
763,"<p align='center'><b>Good job!</b> Click on 'Continue' to proceed.</p>","0","html-button-response",15,95749,"0.0-11.0-1.0","vyfak928l8",31,"","","","","","",NA,"",NA,"","","",NA,NA
2620,"<p>Great job! You've completed the practice trials. Now you will begin the main task.</p>","0","html-button-response",16,98370,"0.0-12.0","vyfak928l8",31,"","","","","","",NA,"",NA,"","","",NA,NA
5140,"<p>In this block of trials, you will be asked to rate how much you associate each texture with the concept</p >
                        <p style = 'font-size:150%; font-weight: bold'>Sad</p><br></br>","0","html-button-response",17,103511,"0.0-13.0","vyfak928l8",31,"","","","","","",NA,"",NA,"","","",NA,NA
NA,"<div style=""width:500px;"">
                            <p style=""font-size:50px; font-weight:bold;""
                            >Sad</p>
                            <div style=""width:480px; margin: auto;"">
                                <img src=""images/32_Sad_lo_lo_1_Set1_ascend_smlg_dot.png"" width=""480"" height=""420"" style=""object-fit:contain;"">
                            </div>
                        </div>","-110","html-slider-response",18,109204,"0.0-14.0","vyfak928l8",31,"","","","","","",0,"",NA,"","Sad","images/32_Sad_lo_lo_1_Set1_ascend_smlg_dot.png",NA,NA
NA,"<div style=""width:500px;"">
                            <p style=""font-size:50px; font-weight:bold;""
                            >Sad</p>
                            <div style=""width:480px; margin: auto;"">
                                <img src=""images/32_Sad_lo_lo_3_tab20_decend_smlg_dot.png"" width=""480"" height=""420"" style=""object-fit:contain;"">
                            </div>
                        </div>","-107","html-slider-response",19,112491,"0.0-15.0","vyfak928l8",31,"","","","","","",0,"",NA,"","Sad","images/32_Sad_lo_lo_3_tab20_decend_smlg_dot.png",NA,NA
NA,"<div style=""width:500px;"">
                            <p style=""font-size:50px; font-weight:bold;""
                            >Sad</p>
                            <div style=""width:480px; margin: auto;"">
                                <img src=""images/32_Sad_hi_hi_3_Set3_decend_smlg_dot.png"" width=""480"" height=""420"" style=""object-fit:contain;"">
                            </div>
                        </div>","118","html-slider-response",20,115213,"0.0-16.0","vyfak928l8",31,"","","","","","",0,"",NA,"","Sad","images/32_Sad_hi_hi_3_Set3_decend_smlg_dot.png",NA,NA
NA,"<div style=""width:500px;"">
                            <p style=""font-size:50px; font-weight:bold;""
                            >Sad</p>
                            <div style=""width:480px; margin: auto;"">
                                <img src=""images/32_Sad_hi_md_3_Accent_ascend_lgsm_dot.png"" width=""480"" height=""420"" style=""object-fit:contain;"">
                            </div>
                        </div>","200","html-slider-response",21,117733,"0.0-17.0","vyfak928l8",31,"","","","","","",0,"",NA,"","Sad","images/32_Sad_hi_md_3_Accent_ascend_lgsm_dot.png",NA,NA
NA,"<div style=""width:500px;"">
                            <p style=""font-size:50px; font-weight:bold;""
                            >Sad</p>
                            <div style=""width:480px; margin: auto;"">
                                <img src=""images/32_Sad_med_med_2_tab10new_ascend_smlg_dot.png"" width=""480"" height=""420"" style=""object-fit:contain;"">
                            </div>
                        </div>","112","html-slider-response",22,120454,"0.0-18.0","vyfak928l8",31,"","","","","","",0,"",NA,"","Sad","images/32_Sad_med_med_2_tab10new_ascend_smlg_dot.png",NA,NA
NA,"<div style=""width:500px;"">
                            <p style=""font-size:50px; font-weight:bold;""
                            >Sad</p>
                            <div style=""width:480px; margin: auto;"">
                                <img src=""images/32_Sad_lo_lo_2_Paired_decend_smlg_dot.png"" width=""480"" height=""420"" style=""object-fit:contain;"">
                            </div>
                        </div>","-103","html-slider-response",23,122948,"0.0-19.0","vyfak928l8",31,"","","","","","",0,"",NA,"","Sad","images/32_Sad_lo_lo_2_Paired_decend_smlg_dot.png",NA,NA
NA,"<div style=""width:500px;"">
                            <p style=""font-size:50px; font-weight:bold;""
                            >Sad</p>
                            <div style=""width:480px; margin: auto;"">
                                <img src=""images/32_Sad_hi_md_1_tab20_decend_smlg_dot.png"" width=""480"" height=""420"" style=""object-fit:contain;"">
                            </div>
                        </div>","107","html-slider-response",24,125225,"0.0-20.0","vyfak928l8",31,"","","","","","",0,"",NA,"","Sad","images/32_Sad_hi_md_1_tab20_decend_smlg_dot.png",NA,NA
NA,"<div style=""width:500px;"">
                            <p style=""font-size:50px; font-weight:bold;""
                            >Sad</p>
                            <div style=""width:480px; margin: auto;"">
                                <img src=""images/32_Sad_hi_md_1_tab20_ascend_smlg_dot.png"" width=""480"" height=""420"" style=""object-fit:contain;"">
                            </div>
                        </div>","110","html-slider-response",25,127717,"0.0-21.0","vyfak928l8",31,"","","","","","",0,"",NA,"","Sad","images/32_Sad_hi_md_1_tab20_ascend_smlg_dot.png",NA,NA
NA,"<div style=""width:500px;"">
                            <p style=""font-size:50px; font-weight:bold;""
                            >Sad</p>
                            <div style=""width:480px; margin: auto;"">
                                <img src=""images/32_Sad_hi_lo_1_tab20c_decend_lgsm_dot.png"" width=""480"" height=""420"" style=""object-fit:contain;"">
                            </div>
                        </div>","200","html-slider-response",26,129918,"0.0-22.0","vyfak928l8",31,"","","","","","",0,"",NA,"","Sad","images/32_Sad_hi_lo_1_tab20c_decend_lgsm_dot.png",NA,NA
NA,"<div style=""width:500px;"">
                            <p style=""font-size:50px; font-weight:bold;""
                            >Sad</p>
                            <div style=""width:480px; margin: auto;"">
                                <img src=""images/32_Sad_lo_lo_1_Set1_ascend_lgsm_dot.png"" width=""480"" height=""420"" style=""object-fit:contain;"">
                            </div>
                        </div>","-77","html-slider-response",27,132076,"0.0-23.0","vyfak928l8",31,"","","","","","",0,"",NA,"","Sad","images/32_Sad_lo_lo_1_Set1_ascend_lgsm_dot.png",NA,NA
NA,"<div style=""width:500px;"">
                            <p style=""font-size:50px; font-weight:bold;""
                            >Sad</p>
                            <div style=""width:480px; margin: auto;"">
                                <img src=""images/32_Sad_med_lo_3_tab20_ascend_smlg_dot.png"" width=""480"" height=""420"" style=""object-fit:contain;"">
                            </div>
                        </div>","-106","html-slider-response",28,134155,"0.0-24.0","vyfak928l8",31,"","","","","","",0,"",NA,"","Sad","images/32_Sad_med_lo_3_tab20_ascend_smlg_dot.png",NA,NA
NA,"<div style=""width:500px;"">
                            <p style=""font-size:50px; font-weight:bold;""
                            >Sad</p>
                            <div style=""width:480px; margin: auto;"">
                                <img src=""images/32_Sad_med_med_2_tab10new_decend_lgsm_dot.png"" width=""480"" height=""420"" style=""object-fit:contain;"">
                            </div>
                        </div>","109","html-slider-response",29,136446,"0.0-25.0","vyfak928l8",31,"","","","","","",0,"",NA,"","Sad","images/32_Sad_med_med_2_tab10new_decend_lgsm_dot.png",NA,NA
NA,"<div style=""width:500px;"">
                            <p style=""font-size:50px; font-weight:bold;""
                            >Sad</p>
                            <div style=""width:480px; margin: auto;"">
                                <img src=""images/32_Sad_hi_md_3_Accent_decend_smlg_dot.png"" width=""480"" height=""420"" style=""object-fit:contain;"">
                            </div>
                        </div>","114","html-slider-response",30,138442,"0.0-26.0","vyfak928l8",31,"","","","","","",0,"",NA,"","Sad","images/32_Sad_hi_md_3_Accent_decend_smlg_dot.png",NA,NA
NA,"<div style=""width:500px;"">
                            <p style=""font-size:50px; font-weight:bold;""
                            >Sad</p>
                            <div style=""width:480px; margin: auto;"">
                                <img src=""images/32_Sad_hi_hi_2_Paired_decend_smlg_dot.png"" width=""480"" height=""420"" style=""object-fit:contain;"">
                            </div>
                        </div>","-78","html-slider-response",31,141309,"0.0-27.0","vyfak928l8",31,"","","","","","",0,"",NA,"","Sad","images/32_Sad_hi_hi_2_Paired_decend_smlg_dot.png",NA,NA
NA,"<div style=""width:500px;"">
                            <p style=""font-size:50px; font-weight:bold;""
                            >Sad</p>
                            <div style=""width:480px; margin: auto;"">
                                <img src=""images/32_Sad_med_med_3_tab20b_decend_smlg_dot.png"" width=""480"" height=""420"" style=""object-fit:contain;"">
                            </div>
                        </div>","-113","html-slider-response",32,144359,"0.0-28.0","vyfak928l8",31,"","","","","","",0,"",NA,"","Sad","images/32_Sad_med_med_3_tab20b_decend_smlg_dot.png",NA,NA
NA,"<div style=""width:500px;"">
                            <p style=""font-size:50px; font-weight:bold;""
                            >Sad</p>
                            <div style=""width:480px; margin: auto;"">
                                <img src=""images/32_Sad_hi_lo_1_tab20c_decend_smlg_dot.png"" width=""480"" height=""420"" style=""object-fit:contain;"">
                            </div>
                        </div>","-103","html-slider-response",33,146676,"0.0-29.0","vyfak928l8",31,"","","","","","",0,"",NA,"","Sad","images/32_Sad_hi_lo_1_tab20c_decend_smlg_dot.png",NA,NA
NA,"<div style=""width:500px;"">
                            <p style=""font-size:50px; font-weight:bold;""
                            >Sad</p>
                            <div style=""width:480px; margin: auto;"">
                                <img src=""images/32_Sad_hi_md_2_Set1_decend_smlg_dot.png"" width=""480"" height=""420"" style=""object-fit:contain;"">
                            </div>
                        </div>","118","html-slider-response",34,149064,"0.0-30.0","vyfak928l8",31,"","","","","","",0,"",NA,"","Sad","images/32_Sad_hi_md_2_Set1_decend_smlg_dot.png",NA,NA
NA,"<div style=""width:500px;"">
                            <p style=""font-size:50px; font-weight:bold;""
                            >Sad</p>
                            <div style=""width:480px; margin: auto;"">
                                <img src=""images/32_Sad_hi_hi_1_tab20_ascend_smlg_dot.png"" width=""480"" height=""420"" style=""object-fit:contain;"">
                            </div>
                        </div>","200","html-slider-response",35,150769,"0.0-31.0","vyfak928l8",31,"","","","","","",0,"",NA,"","Sad","images/32_Sad_hi_hi_1_tab20_ascend_smlg_dot.png",NA,NA
NA,"<div style=""width:500px;"">
                            <p style=""font-size:50px; font-weight:bold;""
                            >Sad</p>
                            <div style=""width:480px; margin: auto;"">
                                <img src=""images/32_Sad_hi_lo_3_Accent_decend_lgsm_dot.png"" width=""480"" height=""420"" style=""object-fit:contain;"">
                            </div>
                        </div>","-102","html-slider-response",36,152905,"0.0-32.0","vyfak928l8",31,"","","","","","",0,"",NA,"","Sad","images/32_Sad_hi_lo_3_Accent_decend_lgsm_dot.png",NA,NA
NA,"<div style=""width:500px;"">
                            <p style=""font-size:50px; font-weight:bold;""
                            >Sad</p>
                            <div style=""width:480px; margin: auto;"">
                                <img src=""images/32_Sad_hi_hi_3_Set3_ascend_lgsm_dot.png"" width=""480"" height=""420"" style=""object-fit:contain;"">
                            </div>
                        </div>","-109","html-slider-response",37,154742,"0.0-33.0","vyfak928l8",31,"","","","","","",0,"",NA,"","Sad","images/32_Sad_hi_hi_3_Set3_ascend_lgsm_dot.png",NA,NA
NA,"<div style=""width:500px;"">
                            <p style=""font-size:50px; font-weight:bold;""
                            >Sad</p>
                            <div style=""width:480px; margin: auto;"">
                                <img src=""images/32_Sad_hi_md_3_Accent_ascend_smlg_dot.png"" width=""480"" height=""420"" style=""object-fit:contain;"">
                            </div>
                        </div>","-115","html-slider-response",38,156948,"0.0-34.0","vyfak928l8",31,"","","","","","",0,"",NA,"","Sad","images/32_Sad_hi_md_3_Accent_ascend_smlg_dot.png",NA,NA
NA,"<div style=""width:500px;"">
                            <p style=""font-size:50px; font-weight:bold;""
                            >Sad</p>
                            <div style=""width:480px; margin: auto;"">
                                <img src=""images/32_Sad_med_lo_3_tab20_decend_lgsm_dot.png"" width=""480"" height=""420"" style=""object-fit:contain;"">
                            </div>
                        </div>","-111","html-slider-response",39,158831,"0.0-35.0","vyfak928l8",31,"","","","","","",0,"",NA,"","Sad","images/32_Sad_med_lo_3_tab20_decend_lgsm_dot.png",NA,NA
NA,"<div style=""width:500px;"">
                            <p style=""font-size:50px; font-weight:bold;""
                            >Sad</p>
                            <div style=""width:480px; margin: auto;"">
                                <img src=""images/32_Sad_med_lo_3_tab20_decend_smlg_dot.png"" width=""480"" height=""420"" style=""object-fit:contain;"">
                            </div>
                        </div>","-200","html-slider-response",40,161384,"0.0-36.0","vyfak928l8",31,"","","","","","",0,"",NA,"","Sad","images/32_Sad_med_lo_3_tab20_decend_smlg_dot.png",NA,NA
NA,"<div style=""width:500px;"">
                            <p style=""font-size:50px; font-weight:bold;""
                            >Sad</p>
                            <div style=""width:480px; margin: auto;"">
                                <img src=""images/32_Sad_hi_hi_1_tab20_ascend_lgsm_dot.png"" width=""480"" height=""420"" style=""object-fit:contain;"">
                            </div>
                        </div>","97","html-slider-response",41,163808,"0.0-37.0","vyfak928l8",31,"","","","","","",0,"",NA,"","Sad","images/32_Sad_hi_hi_1_tab20_ascend_lgsm_dot.png",NA,NA
NA,"<div style=""width:500px;"">
                            <p style=""font-size:50px; font-weight:bold;""
                            >Sad</p>
                            <div style=""width:480px; margin: auto;"">
                                <img src=""images/32_Sad_hi_hi_2_Paired_ascend_lgsm_dot.png"" width=""480"" height=""420"" style=""object-fit:contain;"">
                            </div>
                        </div>","102","html-slider-response",42,165875,"0.0-38.0","vyfak928l8",31,"","","","","","",0,"",NA,"","Sad","images/32_Sad_hi_hi_2_Paired_ascend_lgsm_dot.png",NA,NA
NA,"<div style=""width:500px;"">
                            <p style=""font-size:50px; font-weight:bold;""
                            >Sad</p>
                            <div style=""width:480px; margin: auto;"">
                                <img src=""images/32_Sad_lo_lo_3_tab20_ascend_lgsm_dot.png"" width=""480"" height=""420"" style=""object-fit:contain;"">
                            </div>
                        </div>","-200","html-slider-response",43,167977,"0.0-39.0","vyfak928l8",31,"","","","","","",0,"",NA,"","Sad","images/32_Sad_lo_lo_3_tab20_ascend_lgsm_dot.png",NA,NA
NA,"<div style=""width:500px;"">
                            <p style=""font-size:50px; font-weight:bold;""
                            >Sad</p>
                            <div style=""width:480px; margin: auto;"">
                                <img src=""images/32_Sad_med_med_2_tab10new_ascend_lgsm_dot.png"" width=""480"" height=""420"" style=""object-fit:contain;"">
                            </div>
                        </div>","-95","html-slider-response",44,170094,"0.0-40.0","vyfak928l8",31,"","","","","","",0,"",NA,"","Sad","images/32_Sad_med_med_2_tab10new_ascend_lgsm_dot.png",NA,NA
NA,"<div style=""width:500px;"">
                            <p style=""font-size:50px; font-weight:bold;""
                            >Sad</p>
                            <div style=""width:480px; margin: auto;"">
                                <img src=""images/32_Sad_lo_lo_3_tab20_ascend_smlg_dot.png"" width=""480"" height=""420"" style=""object-fit:contain;"">
                            </div>
                        </div>","-200","html-slider-response",45,172176,"0.0-41.0","vyfak928l8",31,"","","","","","",0,"",NA,"","Sad","images/32_Sad_lo_lo_3_tab20_ascend_smlg_dot.png",NA,NA
NA,"<div style=""width:500px;"">
                            <p style=""font-size:50px; font-weight:bold;""
                            >Sad</p>
                            <div style=""width:480px; margin: auto;"">
                                <img src=""images/32_Sad_lo_lo_1_Set1_decend_smlg_dot.png"" width=""480"" height=""420"" style=""object-fit:contain;"">
                            </div>
                        </div>","-200","html-slider-response",46,174126,"0.0-42.0","vyfak928l8",31,"","","","","","",0,"",NA,"","Sad","images/32_Sad_lo_lo_1_Set1_decend_smlg_dot.png",NA,NA
NA,"<div style=""width:500px;"">
                            <p style=""font-size:50px; font-weight:bold;""
                            >Sad</p>
                            <div style=""width:480px; margin: auto;"">
                                <img src=""images/32_Sad_med_med_3_tab20b_ascend_lgsm_dot.png"" width=""480"" height=""420"" style=""object-fit:contain;"">
                            </div>
                        </div>","-99","html-slider-response",47,177769,"0.0-43.0","vyfak928l8",31,"","","","","","",0,"",NA,"","Sad","images/32_Sad_med_med_3_tab20b_ascend_lgsm_dot.png",NA,NA
NA,"<div style=""width:500px;"">
                            <p style=""font-size:50px; font-weight:bold;""
                            >Sad</p>
                            <div style=""width:480px; margin: auto;"">
                                <img src=""images/32_Sad_med_med_3_tab20b_decend_lgsm_dot.png"" width=""480"" height=""420"" style=""object-fit:contain;"">
                            </div>
                        </div>","-103","html-slider-response",48,180487,"0.0-44.0","vyfak928l8",31,"","","","","","",0,"",NA,"","Sad","images/32_Sad_med_med_3_tab20b_decend_lgsm_dot.png",NA,NA
NA,"<div style=""width:500px;"">
                            <p style=""font-size:50px; font-weight:bold;""
                            >Sad</p>
                            <div style=""width:480px; margin: auto;"">
                                <img src=""images/32_Sad_med_lo_3_tab20_ascend_lgsm_dot.png"" width=""480"" height=""420"" style=""object-fit:contain;"">
                            </div>
                        </div>","-200","html-slider-response",49,182297,"0.0-45.0","vyfak928l8",31,"","","","","","",0,"",NA,"","Sad","images/32_Sad_med_lo_3_tab20_ascend_lgsm_dot.png",NA,NA
NA,"<div style=""width:500px;"">
                            <p style=""font-size:50px; font-weight:bold;""
                            >Sad</p>
                            <div style=""width:480px; margin: auto;"">
                                <img src=""images/32_Sad_hi_hi_2_Paired_ascend_smlg_dot.png"" width=""480"" height=""420"" style=""object-fit:contain;"">
                            </div>
                        </div>","110","html-slider-response",50,184113,"0.0-46.0","vyfak928l8",31,"","","","","","",0,"",NA,"","Sad","images/32_Sad_hi_hi_2_Paired_ascend_smlg_dot.png",NA,NA
NA,"<div style=""width:500px;"">
                            <p style=""font-size:50px; font-weight:bold;""
                            >Sad</p>
                            <div style=""width:480px; margin: auto;"">
                                <img src=""images/32_Sad_hi_hi_1_tab20_decend_lgsm_dot.png"" width=""480"" height=""420"" style=""object-fit:contain;"">
                            </div>
                        </div>","200","html-slider-response",51,185722,"0.0-47.0","vyfak928l8",31,"","","","","","",0,"",NA,"","Sad","images/32_Sad_hi_hi_1_tab20_decend_lgsm_dot.png",NA,NA
NA,"<div style=""width:500px;"">
                            <p style=""font-size:50px; font-weight:bold;""
                            >Sad</p>
                            <div style=""width:480px; margin: auto;"">
                                <img src=""images/32_Sad_hi_lo_1_tab20c_ascend_lgsm_dot.png"" width=""480"" height=""420"" style=""object-fit:contain;"">
                            </div>
                        </div>","99","html-slider-response",52,187439,"0.0-48.0","vyfak928l8",31,"","","","","","",0,"",NA,"","Sad","images/32_Sad_hi_lo_1_tab20c_ascend_lgsm_dot.png",NA,NA
NA,"<div style=""width:500px;"">
                            <p style=""font-size:50px; font-weight:bold;""
                            >Sad</p>
                            <div style=""width:480px; margin: auto;"">
                                <img src=""images/32_Sad_hi_md_1_tab20_decend_lgsm_dot.png"" width=""480"" height=""420"" style=""object-fit:contain;"">
                            </div>
                        </div>","200","html-slider-response",53,189175,"0.0-49.0","vyfak928l8",31,"","","","","","",0,"",NA,"","Sad","images/32_Sad_hi_md_1_tab20_decend_lgsm_dot.png",NA,NA
NA,"<div style=""width:500px;"">
                            <p style=""font-size:50px; font-weight:bold;""
                            >Sad</p>
                            <div style=""width:480px; margin: auto;"">
                                <img src=""images/32_Sad_hi_lo_3_Accent_ascend_smlg_dot.png"" width=""480"" height=""420"" style=""object-fit:contain;"">
                            </div>
                        </div>","-200","html-slider-response",54,191148,"0.0-50.0","vyfak928l8",31,"","","","","","",0,"",NA,"","Sad","images/32_Sad_hi_lo_3_Accent_ascend_smlg_dot.png",NA,NA
NA,"<div style=""width:500px;"">
                            <p style=""font-size:50px; font-weight:bold;""
                            >Sad</p>
                            <div style=""width:480px; margin: auto;"">
                                <img src=""images/32_Sad_hi_md_2_Set1_decend_lgsm_dot.png"" width=""480"" height=""420"" style=""object-fit:contain;"">
                            </div>
                        </div>","-200","html-slider-response",55,193473,"0.0-51.0","vyfak928l8",31,"","","","","","",0,"",NA,"","Sad","images/32_Sad_hi_md_2_Set1_decend_lgsm_dot.png",NA,NA
NA,"<div style=""width:500px;"">
                            <p style=""font-size:50px; font-weight:bold;""
                            >Sad</p>
                            <div style=""width:480px; margin: auto;"">
                                <img src=""images/32_Sad_hi_lo_2_Set1_ascend_lgsm_dot.png"" width=""480"" height=""420"" style=""object-fit:contain;"">
                            </div>
                        </div>","-200","html-slider-response",56,195504,"0.0-52.0","vyfak928l8",31,"","","","","","",0,"",NA,"","Sad","images/32_Sad_hi_lo_2_Set1_ascend_lgsm_dot.png",NA,NA
NA,"<div style=""width:500px;"">
                            <p style=""font-size:50px; font-weight:bold;""
                            >Sad</p>
                            <div style=""width:480px; margin: auto;"">
                                <img src=""images/32_Sad_hi_hi_3_Set3_decend_lgsm_dot.png"" width=""480"" height=""420"" style=""object-fit:contain;"">
                            </div>
                        </div>","-73","html-slider-response",57,197208,"0.0-53.0","vyfak928l8",31,"","","","","","",0,"",NA,"","Sad","images/32_Sad_hi_hi_3_Set3_decend_lgsm_dot.png",NA,NA
NA,"<div style=""width:500px;"">
                            <p style=""font-size:50px; font-weight:bold;""
                            >Sad</p>
                            <div style=""width:480px; margin: auto;"">
                                <img src=""images/32_Sad_med_lo_1_Set1_ascend_lgsm_dot.png"" width=""480"" height=""420"" style=""object-fit:contain;"">
                            </div>
                        </div>","-200","html-slider-response",58,199024,"0.0-54.0","vyfak928l8",31,"","","","","","",0,"",NA,"","Sad","images/32_Sad_med_lo_1_Set1_ascend_lgsm_dot.png",NA,NA
NA,"<div style=""width:500px;"">
                            <p style=""font-size:50px; font-weight:bold;""
                            >Sad</p>
                            <div style=""width:480px; margin: auto;"">
                                <img src=""images/32_Sad_hi_md_2_Set1_ascend_smlg_dot.png"" width=""480"" height=""420"" style=""object-fit:contain;"">
                            </div>
                        </div>","-88","html-slider-response",59,200980,"0.0-55.0","vyfak928l8",31,"","","","","","",0,"",NA,"","Sad","images/32_Sad_hi_md_2_Set1_ascend_smlg_dot.png",NA,NA
NA,"<div style=""width:500px;"">
                            <p style=""font-size:50px; font-weight:bold;""
                            >Sad</p>
                            <div style=""width:480px; margin: auto;"">
                                <img src=""images/32_Sad_med_lo_2_Paired_ascend_smlg_dot.png"" width=""480"" height=""420"" style=""object-fit:contain;"">
                            </div>
                        </div>","-200","html-slider-response",60,202782,"0.0-56.0","vyfak928l8",31,"","","","","","",0,"",NA,"","Sad","images/32_Sad_med_lo_2_Paired_ascend_smlg_dot.png",NA,NA
NA,"<div style=""width:500px;"">
                            <p style=""font-size:50px; font-weight:bold;""
                            >Sad</p>
                            <div style=""width:480px; margin: auto;"">
                                <img src=""images/32_Sad_hi_md_2_Set1_ascend_lgsm_dot.png"" width=""480"" height=""420"" style=""object-fit:contain;"">
                            </div>
                        </div>","-98","html-slider-response",61,204581,"0.0-57.0","vyfak928l8",31,"","","","","","",0,"",NA,"","Sad","images/32_Sad_hi_md_2_Set1_ascend_lgsm_dot.png",NA,NA
NA,"<div style=""width:500px;"">
                            <p style=""font-size:50px; font-weight:bold;""
                            >Sad</p>
                            <div style=""width:480px; margin: auto;"">
                                <img src=""images/32_Sad_lo_lo_2_Paired_ascend_smlg_dot.png"" width=""480"" height=""420"" style=""object-fit:contain;"">
                            </div>
                        </div>","-200","html-slider-response",62,206423,"0.0-58.0","vyfak928l8",31,"","","","","","",0,"",NA,"","Sad","images/32_Sad_lo_lo_2_Paired_ascend_smlg_dot.png",NA,NA
NA,"<div style=""width:500px;"">
                            <p style=""font-size:50px; font-weight:bold;""
                            >Sad</p>
                            <div style=""width:480px; margin: auto;"">
                                <img src=""images/32_Sad_hi_hi_2_Paired_decend_lgsm_dot.png"" width=""480"" height=""420"" style=""object-fit:contain;"">
                            </div>
                        </div>","94","html-slider-response",63,208671,"0.0-59.0","vyfak928l8",31,"","","","","","",0,"",NA,"","Sad","images/32_Sad_hi_hi_2_Paired_decend_lgsm_dot.png",NA,NA
NA,"<div style=""width:500px;"">
                            <p style=""font-size:50px; font-weight:bold;""
                            >Sad</p>
                            <div style=""width:480px; margin: auto;"">
                                <img src=""images/32_Sad_hi_lo_2_Set1_ascend_smlg_dot.png"" width=""480"" height=""420"" style=""object-fit:contain;"">
                            </div>
                        </div>","-109","html-slider-response",64,210529,"0.0-60.0","vyfak928l8",31,"","","","","","",0,"",NA,"","Sad","images/32_Sad_hi_lo_2_Set1_ascend_smlg_dot.png",NA,NA
NA,"<div style=""width:500px;"">
                            <p style=""font-size:50px; font-weight:bold;""
                            >Sad</p>
                            <div style=""width:480px; margin: auto;"">
                                <img src=""images/32_Sad_hi_md_3_Accent_decend_lgsm_dot.png"" width=""480"" height=""420"" style=""object-fit:contain;"">
                            </div>
                        </div>","-103","html-slider-response",65,212348,"0.0-61.0","vyfak928l8",31,"","","","","","",0,"",NA,"","Sad","images/32_Sad_hi_md_3_Accent_decend_lgsm_dot.png",NA,NA
NA,"<div style=""width:500px;"">
                            <p style=""font-size:50px; font-weight:bold;""
                            >Sad</p>
                            <div style=""width:480px; margin: auto;"">
                                <img src=""images/32_Sad_med_med_1_tab20_ascend_smlg_dot.png"" width=""480"" height=""420"" style=""object-fit:contain;"">
                            </div>
                        </div>","-90","html-slider-response",66,213868,"0.0-62.0","vyfak928l8",31,"","","","","","",0,"",NA,"","Sad","images/32_Sad_med_med_1_tab20_ascend_smlg_dot.png",NA,NA
NA,"<div style=""width:500px;"">
                            <p style=""font-size:50px; font-weight:bold;""
                            >Sad</p>
                            <div style=""width:480px; margin: auto;"">
                                <img src=""images/32_Sad_med_med_1_tab20_ascend_lgsm_dot.png"" width=""480"" height=""420"" style=""object-fit:contain;"">
                            </div>
                        </div>","-80","html-slider-response",67,215603,"0.0-63.0","vyfak928l8",31,"","","","","","",0,"",NA,"","Sad","images/32_Sad_med_med_1_tab20_ascend_lgsm_dot.png",NA,NA
NA,"<div style=""width:500px;"">
                            <p style=""font-size:50px; font-weight:bold;""
                            >Sad</p>
                            <div style=""width:480px; margin: auto;"">
                                <img src=""images/32_Sad_hi_lo_3_Accent_ascend_lgsm_dot.png"" width=""480"" height=""420"" style=""object-fit:contain;"">
                            </div>
                        </div>","-85","html-slider-response",68,217594,"0.0-64.0","vyfak928l8",31,"","","","","","",0,"",NA,"","Sad","images/32_Sad_hi_lo_3_Accent_ascend_lgsm_dot.png",NA,NA
NA,"<div style=""width:500px;"">
                            <p style=""font-size:50px; font-weight:bold;""
                            >Sad</p>
                            <div style=""width:480px; margin: auto;"">
                                <img src=""images/32_Sad_hi_md_1_tab20_ascend_lgsm_dot.png"" width=""480"" height=""420"" style=""object-fit:contain;"">
                            </div>
                        </div>","78","html-slider-response",69,219394,"0.0-65.0","vyfak928l8",31,"","","","","","",0,"",NA,"","Sad","images/32_Sad_hi_md_1_tab20_ascend_lgsm_dot.png",NA,NA
NA,"<div style=""width:500px;"">
                            <p style=""font-size:50px; font-weight:bold;""
                            >Sad</p>
                            <div style=""width:480px; margin: auto;"">
                                <img src=""images/32_Sad_med_lo_2_Paired_decend_smlg_dot.png"" width=""480"" height=""420"" style=""object-fit:contain;"">
                            </div>
                        </div>","-200","html-slider-response",70,221245,"0.0-66.0","vyfak928l8",31,"","","","","","",0,"",NA,"","Sad","images/32_Sad_med_lo_2_Paired_decend_smlg_dot.png",NA,NA
NA,"<div style=""width:500px;"">
                            <p style=""font-size:50px; font-weight:bold;""
                            >Sad</p>
                            <div style=""width:480px; margin: auto;"">
                                <img src=""images/32_Sad_hi_lo_3_Accent_decend_smlg_dot.png"" width=""480"" height=""420"" style=""object-fit:contain;"">
                            </div>
                        </div>","-200","html-slider-response",71,223175,"0.0-67.0","vyfak928l8",31,"","","","","","",0,"",NA,"","Sad","images/32_Sad_hi_lo_3_Accent_decend_smlg_dot.png",NA,NA
NA,"<div style=""width:500px;"">
                            <p style=""font-size:50px; font-weight:bold;""
                            >Sad</p>
                            <div style=""width:480px; margin: auto;"">
                                <img src=""images/32_Sad_med_lo_1_Set1_decend_lgsm_dot.png"" width=""480"" height=""420"" style=""object-fit:contain;"">
                            </div>
                        </div>","-200","html-slider-response",72,224933,"0.0-68.0","vyfak928l8",31,"","","","","","",0,"",NA,"","Sad","images/32_Sad_med_lo_1_Set1_decend_lgsm_dot.png",NA,NA
NA,"<div style=""width:500px;"">
                            <p style=""font-size:50px; font-weight:bold;""
                            >Sad</p>
                            <div style=""width:480px; margin: auto;"">
                                <img src=""images/32_Sad_med_lo_2_Paired_ascend_lgsm_dot.png"" width=""480"" height=""420"" style=""object-fit:contain;"">
                            </div>
                        </div>","-200","html-slider-response",73,226863,"0.0-69.0","vyfak928l8",31,"","","","","","",0,"",NA,"","Sad","images/32_Sad_med_lo_2_Paired_ascend_lgsm_dot.png",NA,NA
NA,"<div style=""width:500px;"">
                            <p style=""font-size:50px; font-weight:bold;""
                            >Sad</p>
                            <div style=""width:480px; margin: auto;"">
                                <img src=""images/32_Sad_lo_lo_1_Set1_decend_lgsm_dot.png"" width=""480"" height=""420"" style=""object-fit:contain;"">
                            </div>
                        </div>","-200","html-slider-response",74,228680,"0.0-70.0","vyfak928l8",31,"","","","","","",0,"",NA,"","Sad","images/32_Sad_lo_lo_1_Set1_decend_lgsm_dot.png",NA,NA
NA,"<div style=""width:500px;"">
                            <p style=""font-size:50px; font-weight:bold;""
                            >Sad</p>
                            <div style=""width:480px; margin: auto;"">
                                <img src=""images/32_Sad_hi_hi_1_tab20_decend_smlg_dot.png"" width=""480"" height=""420"" style=""object-fit:contain;"">
                            </div>
                        </div>","200","html-slider-response",75,230726,"0.0-71.0","vyfak928l8",31,"","","","","","",0,"",NA,"","Sad","images/32_Sad_hi_hi_1_tab20_decend_smlg_dot.png",NA,NA
NA,"<div style=""width:500px;"">
                            <p style=""font-size:50px; font-weight:bold;""
                            >Sad</p>
                            <div style=""width:480px; margin: auto;"">
                                <img src=""images/32_Sad_hi_hi_3_Set3_ascend_smlg_dot.png"" width=""480"" height=""420"" style=""object-fit:contain;"">
                            </div>
                        </div>","92","html-slider-response",76,232653,"0.0-72.0","vyfak928l8",31,"","","","","","",0,"",NA,"","Sad","images/32_Sad_hi_hi_3_Set3_ascend_smlg_dot.png",NA,NA
NA,"<div style=""width:500px;"">
                            <p style=""font-size:50px; font-weight:bold;""
                            >Sad</p>
                            <div style=""width:480px; margin: auto;"">
                                <img src=""images/32_Sad_med_lo_2_Paired_decend_lgsm_dot.png"" width=""480"" height=""420"" style=""object-fit:contain;"">
                            </div>
                        </div>","-102","html-slider-response",77,234567,"0.0-73.0","vyfak928l8",31,"","","","","","",0,"",NA,"","Sad","images/32_Sad_med_lo_2_Paired_decend_lgsm_dot.png",NA,NA
NA,"<div style=""width:500px;"">
                            <p style=""font-size:50px; font-weight:bold;""
                            >Sad</p>
                            <div style=""width:480px; margin: auto;"">
                                <img src=""images/32_Sad_med_med_3_tab20b_ascend_smlg_dot.png"" width=""480"" height=""420"" style=""object-fit:contain;"">
                            </div>
                        </div>","-105","html-slider-response",78,236469,"0.0-74.0","vyfak928l8",31,"","","","","","",0,"",NA,"","Sad","images/32_Sad_med_med_3_tab20b_ascend_smlg_dot.png",NA,NA
NA,"<div style=""width:500px;"">
                            <p style=""font-size:50px; font-weight:bold;""
                            >Sad</p>
                            <div style=""width:480px; margin: auto;"">
                                <img src=""images/32_Sad_med_med_1_tab20_decend_lgsm_dot.png"" width=""480"" height=""420"" style=""object-fit:contain;"">
                            </div>
                        </div>","-200","html-slider-response",79,238040,"0.0-75.0","vyfak928l8",31,"","","","","","",0,"",NA,"","Sad","images/32_Sad_med_med_1_tab20_decend_lgsm_dot.png",NA,NA
NA,"<div style=""width:500px;"">
                            <p style=""font-size:50px; font-weight:bold;""
                            >Sad</p>
                            <div style=""width:480px; margin: auto;"">
                                <img src=""images/32_Sad_lo_lo_3_tab20_decend_lgsm_dot.png"" width=""480"" height=""420"" style=""object-fit:contain;"">
                            </div>
                        </div>","-200","html-slider-response",80,239940,"0.0-76.0","vyfak928l8",31,"","","","","","",0,"",NA,"","Sad","images/32_Sad_lo_lo_3_tab20_decend_lgsm_dot.png",NA,NA
NA,"<div style=""width:500px;"">
                            <p style=""font-size:50px; font-weight:bold;""
                            >Sad</p>
                            <div style=""width:480px; margin: auto;"">
                                <img src=""images/32_Sad_med_med_2_tab10new_decend_smlg_dot.png"" width=""480"" height=""420"" style=""object-fit:contain;"">
                            </div>
                        </div>","-99","html-slider-response",81,241658,"0.0-77.0","vyfak928l8",31,"","","","","","",0,"",NA,"","Sad","images/32_Sad_med_med_2_tab10new_decend_smlg_dot.png",NA,NA
NA,"<div style=""width:500px;"">
                            <p style=""font-size:50px; font-weight:bold;""
                            >Sad</p>
                            <div style=""width:480px; margin: auto;"">
                                <img src=""images/32_Sad_hi_lo_2_Set1_decend_smlg_dot.png"" width=""480"" height=""420"" style=""object-fit:contain;"">
                            </div>
                        </div>","-101","html-slider-response",82,243581,"0.0-78.0","vyfak928l8",31,"","","","","","",0,"",NA,"","Sad","images/32_Sad_hi_lo_2_Set1_decend_smlg_dot.png",NA,NA
NA,"<div style=""width:500px;"">
                            <p style=""font-size:50px; font-weight:bold;""
                            >Sad</p>
                            <div style=""width:480px; margin: auto;"">
                                <img src=""images/32_Sad_hi_lo_1_tab20c_ascend_smlg_dot.png"" width=""480"" height=""420"" style=""object-fit:contain;"">
                            </div>
                        </div>","111","html-slider-response",83,245282,"0.0-79.0","vyfak928l8",31,"","","","","","",0,"",NA,"","Sad","images/32_Sad_hi_lo_1_tab20c_ascend_smlg_dot.png",NA,NA
NA,"<div style=""width:500px;"">
                            <p style=""font-size:50px; font-weight:bold;""
                            >Sad</p>
                            <div style=""width:480px; margin: auto;"">
                                <img src=""images/32_Sad_hi_lo_2_Set1_decend_lgsm_dot.png"" width=""480"" height=""420"" style=""object-fit:contain;"">
                            </div>
                        </div>","-99","html-slider-response",84,247009,"0.0-80.0","vyfak928l8",31,"","","","","","",0,"",NA,"","Sad","images/32_Sad_hi_lo_2_Set1_decend_lgsm_dot.png",NA,NA
NA,"<div style=""width:500px;"">
                            <p style=""font-size:50px; font-weight:bold;""
                            >Sad</p>
                            <div style=""width:480px; margin: auto;"">
                                <img src=""images/32_Sad_lo_lo_2_Paired_ascend_lgsm_dot.png"" width=""480"" height=""420"" style=""object-fit:contain;"">
                            </div>
                        </div>","-200","html-slider-response",85,248705,"0.0-81.0","vyfak928l8",31,"","","","","","",0,"",NA,"","Sad","images/32_Sad_lo_lo_2_Paired_ascend_lgsm_dot.png",NA,NA
NA,"<div style=""width:500px;"">
                            <p style=""font-size:50px; font-weight:bold;""
                            >Sad</p>
                            <div style=""width:480px; margin: auto;"">
                                <img src=""images/32_Sad_med_lo_1_Set1_ascend_smlg_dot.png"" width=""480"" height=""420"" style=""object-fit:contain;"">
                            </div>
                        </div>","-200","html-slider-response",86,250581,"0.0-82.0","vyfak928l8",31,"","","","","","",0,"",NA,"","Sad","images/32_Sad_med_lo_1_Set1_ascend_smlg_dot.png",NA,NA
NA,"<div style=""width:500px;"">
                            <p style=""font-size:50px; font-weight:bold;""
                            >Sad</p>
                            <div style=""width:480px; margin: auto;"">
                                <img src=""images/32_Sad_med_lo_1_Set1_decend_smlg_dot.png"" width=""480"" height=""420"" style=""object-fit:contain;"">
                            </div>
                        </div>","-200","html-slider-response",87,252293,"0.0-83.0","vyfak928l8",31,"","","","","","",0,"",NA,"","Sad","images/32_Sad_med_lo_1_Set1_decend_smlg_dot.png",NA,NA
NA,"<div style=""width:500px;"">
                            <p style=""font-size:50px; font-weight:bold;""
                            >Sad</p>
                            <div style=""width:480px; margin: auto;"">
                                <img src=""images/32_Sad_lo_lo_2_Paired_decend_lgsm_dot.png"" width=""480"" height=""420"" style=""object-fit:contain;"">
                            </div>
                        </div>","-198","html-slider-response",88,254276,"0.0-84.0","vyfak928l8",31,"","","","","","",0,"",NA,"","Sad","images/32_Sad_lo_lo_2_Paired_decend_lgsm_dot.png",NA,NA
NA,"<div style=""width:500px;"">
                            <p style=""font-size:50px; font-weight:bold;""
                            >Sad</p>
                            <div style=""width:480px; margin: auto;"">
                                <img src=""images/32_Sad_med_med_1_tab20_decend_smlg_dot.png"" width=""480"" height=""420"" style=""object-fit:contain;"">
                            </div>
                        </div>","-94","html-slider-response",89,256267,"0.0-85.0","vyfak928l8",31,"","","","","","",0,"",NA,"","Sad","images/32_Sad_med_med_1_tab20_decend_smlg_dot.png",NA,NA
2399,"<p>Great Job! You've finished block 1.<br></br> You have 4 block(s) left to go.<br></br></p>","0","html-button-response",90,259172,"0.0-86.0","vyfak928l8",31,"","","","","","",NA,"",NA,"","","",NA,NA
1351,"<p>In this block of trials, you will be asked to rate how much you associate each texture with the concept</p >
                        <p style = 'font-size:150%; font-weight: bold'>Disgust</p><br></br>","0","html-button-response",91,260524,"0.0-87.0","vyfak928l8",31,"","","","","","",NA,"",NA,"","","",NA,NA
NA,"<div style=""width:500px;"">
                            <p style=""font-size:50px; font-weight:bold;""
                            >Disgust</p>
                            <div style=""width:480px; margin: auto;"">
                                <img src=""images/32_Disgust_hi_hi_3_Dark2_decend_smlg_dot.png"" width=""480"" height=""420"" style=""object-fit:contain;"">
                            </div>
                        </div>","86","html-slider-response",92,262187,"0.0-88.0","vyfak928l8",31,"","","","","","",0,"",NA,"","Disgust","images/32_Disgust_hi_hi_3_Dark2_decend_smlg_dot.png",NA,NA
NA,"<div style=""width:500px;"">
                            <p style=""font-size:50px; font-weight:bold;""
                            >Disgust</p>
                            <div style=""width:480px; margin: auto;"">
                                <img src=""images/32_Disgust_med_lo_2_tab20_decend_lgsm_dot.png"" width=""480"" height=""420"" style=""object-fit:contain;"">
                            </div>
                        </div>","-82","html-slider-response",93,264067,"0.0-89.0","vyfak928l8",31,"","","","","","",0,"",NA,"","Disgust","images/32_Disgust_med_lo_2_tab20_decend_lgsm_dot.png",NA,NA
NA,"<div style=""width:500px;"">
                            <p style=""font-size:50px; font-weight:bold;""
                            >Disgust</p>
                            <div style=""width:480px; margin: auto;"">
                                <img src=""images/32_Disgust_med_lo_2_tab20_decend_smlg_dot.png"" width=""480"" height=""420"" style=""object-fit:contain;"">
                            </div>
                        </div>","-93","html-slider-response",94,265862,"0.0-90.0","vyfak928l8",31,"","","","","","",0,"",NA,"","Disgust","images/32_Disgust_med_lo_2_tab20_decend_smlg_dot.png",NA,NA
NA,"<div style=""width:500px;"">
                            <p style=""font-size:50px; font-weight:bold;""
                            >Disgust</p>
                            <div style=""width:480px; margin: auto;"">
                                <img src=""images/32_Disgust_hi_hi_3_Dark2_decend_lgsm_dot.png"" width=""480"" height=""420"" style=""object-fit:contain;"">
                            </div>
                        </div>","200","html-slider-response",95,267953,"0.0-91.0","vyfak928l8",31,"","","","","","",0,"",NA,"","Disgust","images/32_Disgust_hi_hi_3_Dark2_decend_lgsm_dot.png",NA,NA
NA,"<div style=""width:500px;"">
                            <p style=""font-size:50px; font-weight:bold;""
                            >Disgust</p>
                            <div style=""width:480px; margin: auto;"">
                                <img src=""images/32_Disgust_hi_lo_2_tab20_ascend_lgsm_dot.png"" width=""480"" height=""420"" style=""object-fit:contain;"">
                            </div>
                        </div>","93","html-slider-response",96,269732,"0.0-92.0","vyfak928l8",31,"","","","","","",0,"",NA,"","Disgust","images/32_Disgust_hi_lo_2_tab20_ascend_lgsm_dot.png",NA,NA
NA,"<div style=""width:500px;"">
                            <p style=""font-size:50px; font-weight:bold;""
                            >Disgust</p>
                            <div style=""width:480px; margin: auto;"">
                                <img src=""images/32_Disgust_hi_hi_2_tab20_decend_lgsm_dot.png"" width=""480"" height=""420"" style=""object-fit:contain;"">
                            </div>
                        </div>","77","html-slider-response",97,271324,"0.0-93.0","vyfak928l8",31,"","","","","","",0,"",NA,"","Disgust","images/32_Disgust_hi_hi_2_tab20_decend_lgsm_dot.png",NA,NA
NA,"<div style=""width:500px;"">
                            <p style=""font-size:50px; font-weight:bold;""
                            >Disgust</p>
                            <div style=""width:480px; margin: auto;"">
                                <img src=""images/32_Disgust_lo_lo_1_tab20c_decend_smlg_dot.png"" width=""480"" height=""420"" style=""object-fit:contain;"">
                            </div>
                        </div>","-104","html-slider-response",98,273017,"0.0-94.0","vyfak928l8",31,"","","","","","",0,"",NA,"","Disgust","images/32_Disgust_lo_lo_1_tab20c_decend_smlg_dot.png",NA,NA
NA,"<div style=""width:500px;"">
                            <p style=""font-size:50px; font-weight:bold;""
                            >Disgust</p>
                            <div style=""width:480px; margin: auto;"">
                                <img src=""images/32_Disgust_med_med_1_tab20b_decend_lgsm_dot.png"" width=""480"" height=""420"" style=""object-fit:contain;"">
                            </div>
                        </div>","78","html-slider-response",99,275233,"0.0-95.0","vyfak928l8",31,"","","","","","",0,"",NA,"","Disgust","images/32_Disgust_med_med_1_tab20b_decend_lgsm_dot.png",NA,NA
NA,"<div style=""width:500px;"">
                            <p style=""font-size:50px; font-weight:bold;""
                            >Disgust</p>
                            <div style=""width:480px; margin: auto;"">
                                <img src=""images/32_Disgust_med_med_1_tab20b_ascend_smlg_dot.png"" width=""480"" height=""420"" style=""object-fit:contain;"">
                            </div>
                        </div>","105","html-slider-response",100,277033,"0.0-96.0","vyfak928l8",31,"","","","","","",0,"",NA,"","Disgust","images/32_Disgust_med_med_1_tab20b_ascend_smlg_dot.png",NA,NA
NA,"<div style=""width:500px;"">
                            <p style=""font-size:50px; font-weight:bold;""
                            >Disgust</p>
                            <div style=""width:480px; margin: auto;"">
                                <img src=""images/32_Disgust_med_lo_1_tab20c_ascend_smlg_dot.png"" width=""480"" height=""420"" style=""object-fit:contain;"">
                            </div>
                        </div>","-109","html-slider-response",101,279386,"0.0-97.0","vyfak928l8",31,"","","","","","",0,"",NA,"","Disgust","images/32_Disgust_med_lo_1_tab20c_ascend_smlg_dot.png",NA,NA
NA,"<div style=""width:500px;"">
                            <p style=""font-size:50px; font-weight:bold;""
                            >Disgust</p>
                            <div style=""width:480px; margin: auto;"">
                                <img src=""images/32_Disgust_hi_lo_2_tab20_decend_smlg_dot.png"" width=""480"" height=""420"" style=""object-fit:contain;"">
                            </div>
                        </div>","-114","html-slider-response",102,281206,"0.0-98.0","vyfak928l8",31,"","","","","","",0,"",NA,"","Disgust","images/32_Disgust_hi_lo_2_tab20_decend_smlg_dot.png",NA,NA
NA,"<div style=""width:500px;"">
                            <p style=""font-size:50px; font-weight:bold;""
                            >Disgust</p>
                            <div style=""width:480px; margin: auto;"">
                                <img src=""images/32_Disgust_med_med_2_tab20_ascend_lgsm_dot.png"" width=""480"" height=""420"" style=""object-fit:contain;"">
                            </div>
                        </div>","-200","html-slider-response",103,283270,"0.0-99.0","vyfak928l8",31,"","","","","","",0,"",NA,"","Disgust","images/32_Disgust_med_med_2_tab20_ascend_lgsm_dot.png",NA,NA
NA,"<div style=""width:500px;"">
                            <p style=""font-size:50px; font-weight:bold;""
                            >Disgust</p>
                            <div style=""width:480px; margin: auto;"">
                                <img src=""images/32_Disgust_hi_lo_3_Paired_decend_smlg_dot.png"" width=""480"" height=""420"" style=""object-fit:contain;"">
                            </div>
                        </div>","-200","html-slider-response",104,285310,"0.0-100.0","vyfak928l8",31,"","","","","","",0,"",NA,"","Disgust","images/32_Disgust_hi_lo_3_Paired_decend_smlg_dot.png",NA,NA
NA,"<div style=""width:500px;"">
                            <p style=""font-size:50px; font-weight:bold;""
                            >Disgust</p>
                            <div style=""width:480px; margin: auto;"">
                                <img src=""images/32_Disgust_med_med_3_Paired_ascend_lgsm_dot.png"" width=""480"" height=""420"" style=""object-fit:contain;"">
                            </div>
                        </div>","-200","html-slider-response",105,287048,"0.0-101.0","vyfak928l8",31,"","","","","","",0,"",NA,"","Disgust","images/32_Disgust_med_med_3_Paired_ascend_lgsm_dot.png",NA,NA
NA,"<div style=""width:500px;"">
                            <p style=""font-size:50px; font-weight:bold;""
                            >Disgust</p>
                            <div style=""width:480px; margin: auto;"">
                                <img src=""images/32_Disgust_med_med_2_tab20_ascend_smlg_dot.png"" width=""480"" height=""420"" style=""object-fit:contain;"">
                            </div>
                        </div>","-200","html-slider-response",106,288986,"0.0-102.0","vyfak928l8",31,"","","","","","",0,"",NA,"","Disgust","images/32_Disgust_med_med_2_tab20_ascend_smlg_dot.png",NA,NA
NA,"<div style=""width:500px;"">
                            <p style=""font-size:50px; font-weight:bold;""
                            >Disgust</p>
                            <div style=""width:480px; margin: auto;"">
                                <img src=""images/32_Disgust_hi_hi_1_tab20b_decend_smlg_dot.png"" width=""480"" height=""420"" style=""object-fit:contain;"">
                            </div>
                        </div>","200","html-slider-response",107,291051,"0.0-103.0","vyfak928l8",31,"","","","","","",0,"",NA,"","Disgust","images/32_Disgust_hi_hi_1_tab20b_decend_smlg_dot.png",NA,NA
NA,"<div style=""width:500px;"">
                            <p style=""font-size:50px; font-weight:bold;""
                            >Disgust</p>
                            <div style=""width:480px; margin: auto;"">
                                <img src=""images/32_Disgust_lo_lo_1_tab20c_decend_lgsm_dot.png"" width=""480"" height=""420"" style=""object-fit:contain;"">
                            </div>
                        </div>","-103","html-slider-response",108,292790,"0.0-104.0","vyfak928l8",31,"","","","","","",0,"",NA,"","Disgust","images/32_Disgust_lo_lo_1_tab20c_decend_lgsm_dot.png",NA,NA
NA,"<div style=""width:500px;"">
                            <p style=""font-size:50px; font-weight:bold;""
                            >Disgust</p>
                            <div style=""width:480px; margin: auto;"">
                                <img src=""images/32_Disgust_hi_md_2_Dark2_ascend_lgsm_dot.png"" width=""480"" height=""420"" style=""object-fit:contain;"">
                            </div>
                        </div>","-111","html-slider-response",109,294808,"0.0-105.0","vyfak928l8",31,"","","","","","",0,"",NA,"","Disgust","images/32_Disgust_hi_md_2_Dark2_ascend_lgsm_dot.png",NA,NA
NA,"<div style=""width:500px;"">
                            <p style=""font-size:50px; font-weight:bold;""
                            >Disgust</p>
                            <div style=""width:480px; margin: auto;"">
                                <img src=""images/32_Disgust_med_med_3_Paired_decend_lgsm_dot.png"" width=""480"" height=""420"" style=""object-fit:contain;"">
                            </div>
                        </div>","-200","html-slider-response",110,296557,"0.0-106.0","vyfak928l8",31,"","","","","","",0,"",NA,"","Disgust","images/32_Disgust_med_med_3_Paired_decend_lgsm_dot.png",NA,NA
NA,"<div style=""width:500px;"">
                            <p style=""font-size:50px; font-weight:bold;""
                            >Disgust</p>
                            <div style=""width:480px; margin: auto;"">
                                <img src=""images/32_Disgust_hi_hi_3_Dark2_ascend_lgsm_dot.png"" width=""480"" height=""420"" style=""object-fit:contain;"">
                            </div>
                        </div>","-109","html-slider-response",111,298361,"0.0-107.0","vyfak928l8",31,"","","","","","",0,"",NA,"","Disgust","images/32_Disgust_hi_hi_3_Dark2_ascend_lgsm_dot.png",NA,NA
NA,"<div style=""width:500px;"">
                            <p style=""font-size:50px; font-weight:bold;""
                            >Disgust</p>
                            <div style=""width:480px; margin: auto;"">
                                <img src=""images/32_Disgust_lo_lo_2_Pastel1_decend_lgsm_dot.png"" width=""480"" height=""420"" style=""object-fit:contain;"">
                            </div>
                        </div>","-200","html-slider-response",112,300257,"0.0-108.0","vyfak928l8",31,"","","","","","",0,"",NA,"","Disgust","images/32_Disgust_lo_lo_2_Pastel1_decend_lgsm_dot.png",NA,NA
NA,"<div style=""width:500px;"">
                            <p style=""font-size:50px; font-weight:bold;""
                            >Disgust</p>
                            <div style=""width:480px; margin: auto;"">
                                <img src=""images/32_Disgust_med_lo_2_tab20_ascend_lgsm_dot.png"" width=""480"" height=""420"" style=""object-fit:contain;"">
                            </div>
                        </div>","-89","html-slider-response",113,302205,"0.0-109.0","vyfak928l8",31,"","","","","","",0,"",NA,"","Disgust","images/32_Disgust_med_lo_2_tab20_ascend_lgsm_dot.png",NA,NA
NA,"<div style=""width:500px;"">
                            <p style=""font-size:50px; font-weight:bold;""
                            >Disgust</p>
                            <div style=""width:480px; margin: auto;"">
                                <img src=""images/32_Disgust_hi_md_2_Dark2_ascend_smlg_dot.png"" width=""480"" height=""420"" style=""object-fit:contain;"">
                            </div>
                        </div>","110","html-slider-response",114,303898,"0.0-110.0","vyfak928l8",31,"","","","","","",0,"",NA,"","Disgust","images/32_Disgust_hi_md_2_Dark2_ascend_smlg_dot.png",NA,NA
NA,"<div style=""width:500px;"">
                            <p style=""font-size:50px; font-weight:bold;""
                            >Disgust</p>
                            <div style=""width:480px; margin: auto;"">
                                <img src=""images/32_Disgust_med_lo_3_Pastel2_decend_lgsm_dot.png"" width=""480"" height=""420"" style=""object-fit:contain;"">
                            </div>
                        </div>","-111","html-slider-response",115,305576,"0.0-111.0","vyfak928l8",31,"","","","","","",0,"",NA,"","Disgust","images/32_Disgust_med_lo_3_Pastel2_decend_lgsm_dot.png",NA,NA
NA,"<div style=""width:500px;"">
                            <p style=""font-size:50px; font-weight:bold;""
                            >Disgust</p>
                            <div style=""width:480px; margin: auto;"">
                                <img src=""images/32_Disgust_hi_lo_2_tab20_ascend_smlg_dot.png"" width=""480"" height=""420"" style=""object-fit:contain;"">
                            </div>
                        </div>","-173","html-slider-response",116,307279,"0.0-112.0","vyfak928l8",31,"","","","","","",0,"",NA,"","Disgust","images/32_Disgust_hi_lo_2_tab20_ascend_smlg_dot.png",NA,NA
NA,"<div style=""width:500px;"">
                            <p style=""font-size:50px; font-weight:bold;""
                            >Disgust</p>
                            <div style=""width:480px; margin: auto;"">
                                <img src=""images/32_Disgust_med_lo_1_tab20c_ascend_lgsm_dot.png"" width=""480"" height=""420"" style=""object-fit:contain;"">
                            </div>
                        </div>","-200","html-slider-response",117,309068,"0.0-113.0","vyfak928l8",31,"","","","","","",0,"",NA,"","Disgust","images/32_Disgust_med_lo_1_tab20c_ascend_lgsm_dot.png",NA,NA
NA,"<div style=""width:500px;"">
                            <p style=""font-size:50px; font-weight:bold;""
                            >Disgust</p>
                            <div style=""width:480px; margin: auto;"">
                                <img src=""images/32_Disgust_hi_md_3_tab20_decend_smlg_dot.png"" width=""480"" height=""420"" style=""object-fit:contain;"">
                            </div>
                        </div>","101","html-slider-response",118,310891,"0.0-114.0","vyfak928l8",31,"","","","","","",0,"",NA,"","Disgust","images/32_Disgust_hi_md_3_tab20_decend_smlg_dot.png",NA,NA
NA,"<div style=""width:500px;"">
                            <p style=""font-size:50px; font-weight:bold;""
                            >Disgust</p>
                            <div style=""width:480px; margin: auto;"">
                                <img src=""images/32_Disgust_hi_md_1_tab20b_decend_lgsm_dot.png"" width=""480"" height=""420"" style=""object-fit:contain;"">
                            </div>
                        </div>","118","html-slider-response",119,312612,"0.0-115.0","vyfak928l8",31,"","","","","","",0,"",NA,"","Disgust","images/32_Disgust_hi_md_1_tab20b_decend_lgsm_dot.png",NA,NA
NA,"<div style=""width:500px;"">
                            <p style=""font-size:50px; font-weight:bold;""
                            >Disgust</p>
                            <div style=""width:480px; margin: auto;"">
                                <img src=""images/32_Disgust_med_lo_3_Pastel2_ascend_smlg_dot.png"" width=""480"" height=""420"" style=""object-fit:contain;"">
                            </div>
                        </div>","-200","html-slider-response",120,314235,"0.0-116.0","vyfak928l8",31,"","","","","","",0,"",NA,"","Disgust","images/32_Disgust_med_lo_3_Pastel2_ascend_smlg_dot.png",NA,NA
NA,"<div style=""width:500px;"">
                            <p style=""font-size:50px; font-weight:bold;""
                            >Disgust</p>
                            <div style=""width:480px; margin: auto;"">
                                <img src=""images/32_Disgust_med_med_2_tab20_decend_smlg_dot.png"" width=""480"" height=""420"" style=""object-fit:contain;"">
                            </div>
                        </div>","-200","html-slider-response",121,315942,"0.0-117.0","vyfak928l8",31,"","","","","","",0,"",NA,"","Disgust","images/32_Disgust_med_med_2_tab20_decend_smlg_dot.png",NA,NA
NA,"<div style=""width:500px;"">
                            <p style=""font-size:50px; font-weight:bold;""
                            >Disgust</p>
                            <div style=""width:480px; margin: auto;"">
                                <img src=""images/32_Disgust_lo_lo_3_tab20_decend_smlg_dot.png"" width=""480"" height=""420"" style=""object-fit:contain;"">
                            </div>
                        </div>","-200","html-slider-response",122,317722,"0.0-118.0","vyfak928l8",31,"","","","","","",0,"",NA,"","Disgust","images/32_Disgust_lo_lo_3_tab20_decend_smlg_dot.png",NA,NA
NA,"<div style=""width:500px;"">
                            <p style=""font-size:50px; font-weight:bold;""
                            >Disgust</p>
                            <div style=""width:480px; margin: auto;"">
                                <img src=""images/32_Disgust_hi_md_3_tab20_decend_lgsm_dot.png"" width=""480"" height=""420"" style=""object-fit:contain;"">
                            </div>
                        </div>","-89","html-slider-response",123,320957,"0.0-119.0","vyfak928l8",31,"","","","","","",0,"",NA,"","Disgust","images/32_Disgust_hi_md_3_tab20_decend_lgsm_dot.png",NA,NA
NA,"<div style=""width:500px;"">
                            <p style=""font-size:50px; font-weight:bold;""
                            >Disgust</p>
                            <div style=""width:480px; margin: auto;"">
                                <img src=""images/32_Disgust_hi_lo_1_tab20b_decend_smlg_dot.png"" width=""480"" height=""420"" style=""object-fit:contain;"">
                            </div>
                        </div>","-80","html-slider-response",124,322644,"0.0-120.0","vyfak928l8",31,"","","","","","",0,"",NA,"","Disgust","images/32_Disgust_hi_lo_1_tab20b_decend_smlg_dot.png",NA,NA
NA,"<div style=""width:500px;"">
                            <p style=""font-size:50px; font-weight:bold;""
                            >Disgust</p>
                            <div style=""width:480px; margin: auto;"">
                                <img src=""images/32_Disgust_med_lo_3_Pastel2_decend_smlg_dot.png"" width=""480"" height=""420"" style=""object-fit:contain;"">
                            </div>
                        </div>","-200","html-slider-response",125,324262,"0.0-121.0","vyfak928l8",31,"","","","","","",0,"",NA,"","Disgust","images/32_Disgust_med_lo_3_Pastel2_decend_smlg_dot.png",NA,NA
NA,"<div style=""width:500px;"">
                            <p style=""font-size:50px; font-weight:bold;""
                            >Disgust</p>
                            <div style=""width:480px; margin: auto;"">
                                <img src=""images/32_Disgust_lo_lo_3_tab20_ascend_smlg_dot.png"" width=""480"" height=""420"" style=""object-fit:contain;"">
                            </div>
                        </div>","-200","html-slider-response",126,325908,"0.0-122.0","vyfak928l8",31,"","","","","","",0,"",NA,"","Disgust","images/32_Disgust_lo_lo_3_tab20_ascend_smlg_dot.png",NA,NA
NA,"<div style=""width:500px;"">
                            <p style=""font-size:50px; font-weight:bold;""
                            >Disgust</p>
                            <div style=""width:480px; margin: auto;"">
                                <img src=""images/32_Disgust_hi_lo_3_Paired_decend_lgsm_dot.png"" width=""480"" height=""420"" style=""object-fit:contain;"">
                            </div>
                        </div>","-200","html-slider-response",127,327725,"0.0-123.0","vyfak928l8",31,"","","","","","",0,"",NA,"","Disgust","images/32_Disgust_hi_lo_3_Paired_decend_lgsm_dot.png",NA,NA
NA,"<div style=""width:500px;"">
                            <p style=""font-size:50px; font-weight:bold;""
                            >Disgust</p>
                            <div style=""width:480px; margin: auto;"">
                                <img src=""images/32_Disgust_lo_lo_2_Pastel1_ascend_lgsm_dot.png"" width=""480"" height=""420"" style=""object-fit:contain;"">
                            </div>
                        </div>","-200","html-slider-response",128,329377,"0.0-124.0","vyfak928l8",31,"","","","","","",0,"",NA,"","Disgust","images/32_Disgust_lo_lo_2_Pastel1_ascend_lgsm_dot.png",NA,NA
NA,"<div style=""width:500px;"">
                            <p style=""font-size:50px; font-weight:bold;""
                            >Disgust</p>
                            <div style=""width:480px; margin: auto;"">
                                <img src=""images/32_Disgust_hi_md_2_Dark2_decend_lgsm_dot.png"" width=""480"" height=""420"" style=""object-fit:contain;"">
                            </div>
                        </div>","106","html-slider-response",129,331233,"0.0-125.0","vyfak928l8",31,"","","","","","",0,"",NA,"","Disgust","images/32_Disgust_hi_md_2_Dark2_decend_lgsm_dot.png",NA,NA
NA,"<div style=""width:500px;"">
                            <p style=""font-size:50px; font-weight:bold;""
                            >Disgust</p>
                            <div style=""width:480px; margin: auto;"">
                                <img src=""images/32_Disgust_hi_md_3_tab20_ascend_lgsm_dot.png"" width=""480"" height=""420"" style=""object-fit:contain;"">
                            </div>
                        </div>","-105","html-slider-response",130,333187,"0.0-126.0","vyfak928l8",31,"","","","","","",0,"",NA,"","Disgust","images/32_Disgust_hi_md_3_tab20_ascend_lgsm_dot.png",NA,NA
NA,"<div style=""width:500px;"">
                            <p style=""font-size:50px; font-weight:bold;""
                            >Disgust</p>
                            <div style=""width:480px; margin: auto;"">
                                <img src=""images/32_Disgust_hi_hi_2_tab20_ascend_lgsm_dot.png"" width=""480"" height=""420"" style=""object-fit:contain;"">
                            </div>
                        </div>","-113","html-slider-response",131,334756,"0.0-127.0","vyfak928l8",31,"","","","","","",0,"",NA,"","Disgust","images/32_Disgust_hi_hi_2_tab20_ascend_lgsm_dot.png",NA,NA
NA,"<div style=""width:500px;"">
                            <p style=""font-size:50px; font-weight:bold;""
                            >Disgust</p>
                            <div style=""width:480px; margin: auto;"">
                                <img src=""images/32_Disgust_lo_lo_2_Pastel1_decend_smlg_dot.png"" width=""480"" height=""420"" style=""object-fit:contain;"">
                            </div>
                        </div>","-200","html-slider-response",132,336642,"0.0-128.0","vyfak928l8",31,"","","","","","",0,"",NA,"","Disgust","images/32_Disgust_lo_lo_2_Pastel1_decend_smlg_dot.png",NA,NA
NA,"<div style=""width:500px;"">
                            <p style=""font-size:50px; font-weight:bold;""
                            >Disgust</p>
                            <div style=""width:480px; margin: auto;"">
                                <img src=""images/32_Disgust_med_med_2_tab20_decend_lgsm_dot.png"" width=""480"" height=""420"" style=""object-fit:contain;"">
                            </div>
                        </div>","-192","html-slider-response",133,345354,"0.0-129.0","vyfak928l8",31,"","","","","","",0,"",NA,"","Disgust","images/32_Disgust_med_med_2_tab20_decend_lgsm_dot.png",NA,NA
NA,"<div style=""width:500px;"">
                            <p style=""font-size:50px; font-weight:bold;""
                            >Disgust</p>
                            <div style=""width:480px; margin: auto;"">
                                <img src=""images/32_Disgust_med_med_3_Paired_ascend_smlg_dot.png"" width=""480"" height=""420"" style=""object-fit:contain;"">
                            </div>
                        </div>","-200","html-slider-response",134,347434,"0.0-130.0","vyfak928l8",31,"","","","","","",0,"",NA,"","Disgust","images/32_Disgust_med_med_3_Paired_ascend_smlg_dot.png",NA,NA
NA,"<div style=""width:500px;"">
                            <p style=""font-size:50px; font-weight:bold;""
                            >Disgust</p>
                            <div style=""width:480px; margin: auto;"">
                                <img src=""images/32_Disgust_hi_lo_2_tab20_decend_lgsm_dot.png"" width=""480"" height=""420"" style=""object-fit:contain;"">
                            </div>
                        </div>","-103","html-slider-response",135,350597,"0.0-131.0","vyfak928l8",31,"","","","","","",0,"",NA,"","Disgust","images/32_Disgust_hi_lo_2_tab20_decend_lgsm_dot.png",NA,NA
NA,"<div style=""width:500px;"">
                            <p style=""font-size:50px; font-weight:bold;""
                            >Disgust</p>
                            <div style=""width:480px; margin: auto;"">
                                <img src=""images/32_Disgust_med_med_3_Paired_decend_smlg_dot.png"" width=""480"" height=""420"" style=""object-fit:contain;"">
                            </div>
                        </div>","-104","html-slider-response",136,352296,"0.0-132.0","vyfak928l8",31,"","","","","","",0,"",NA,"","Disgust","images/32_Disgust_med_med_3_Paired_decend_smlg_dot.png",NA,NA
NA,"<div style=""width:500px;"">
                            <p style=""font-size:50px; font-weight:bold;""
                            >Disgust</p>
                            <div style=""width:480px; margin: auto;"">
                                <img src=""images/32_Disgust_lo_lo_3_tab20_ascend_lgsm_dot.png"" width=""480"" height=""420"" style=""object-fit:contain;"">
                            </div>
                        </div>","-126","html-slider-response",137,353783,"0.0-133.0","vyfak928l8",31,"","","","","","",0,"",NA,"","Disgust","images/32_Disgust_lo_lo_3_tab20_ascend_lgsm_dot.png",NA,NA
NA,"<div style=""width:500px;"">
                            <p style=""font-size:50px; font-weight:bold;""
                            >Disgust</p>
                            <div style=""width:480px; margin: auto;"">
                                <img src=""images/32_Disgust_hi_hi_1_tab20b_decend_lgsm_dot.png"" width=""480"" height=""420"" style=""object-fit:contain;"">
                            </div>
                        </div>","179","html-slider-response",138,355410,"0.0-134.0","vyfak928l8",31,"","","","","","",0,"",NA,"","Disgust","images/32_Disgust_hi_hi_1_tab20b_decend_lgsm_dot.png",NA,NA
NA,"<div style=""width:500px;"">
                            <p style=""font-size:50px; font-weight:bold;""
                            >Disgust</p>
                            <div style=""width:480px; margin: auto;"">
                                <img src=""images/32_Disgust_hi_md_1_tab20b_decend_smlg_dot.png"" width=""480"" height=""420"" style=""object-fit:contain;"">
                            </div>
                        </div>","112","html-slider-response",139,357308,"0.0-135.0","vyfak928l8",31,"","","","","","",0,"",NA,"","Disgust","images/32_Disgust_hi_md_1_tab20b_decend_smlg_dot.png",NA,NA
NA,"<div style=""width:500px;"">
                            <p style=""font-size:50px; font-weight:bold;""
                            >Disgust</p>
                            <div style=""width:480px; margin: auto;"">
                                <img src=""images/32_Disgust_lo_lo_3_tab20_decend_lgsm_dot.png"" width=""480"" height=""420"" style=""object-fit:contain;"">
                            </div>
                        </div>","-128","html-slider-response",140,358866,"0.0-136.0","vyfak928l8",31,"","","","","","",0,"",NA,"","Disgust","images/32_Disgust_lo_lo_3_tab20_decend_lgsm_dot.png",NA,NA
NA,"<div style=""width:500px;"">
                            <p style=""font-size:50px; font-weight:bold;""
                            >Disgust</p>
                            <div style=""width:480px; margin: auto;"">
                                <img src=""images/32_Disgust_hi_lo_3_Paired_ascend_smlg_dot.png"" width=""480"" height=""420"" style=""object-fit:contain;"">
                            </div>
                        </div>","-200","html-slider-response",141,360547,"0.0-137.0","vyfak928l8",31,"","","","","","",0,"",NA,"","Disgust","images/32_Disgust_hi_lo_3_Paired_ascend_smlg_dot.png",NA,NA
NA,"<div style=""width:500px;"">
                            <p style=""font-size:50px; font-weight:bold;""
                            >Disgust</p>
                            <div style=""width:480px; margin: auto;"">
                                <img src=""images/32_Disgust_hi_hi_1_tab20b_ascend_lgsm_dot.png"" width=""480"" height=""420"" style=""object-fit:contain;"">
                            </div>
                        </div>","200","html-slider-response",142,362098,"0.0-138.0","vyfak928l8",31,"","","","","","",0,"",NA,"","Disgust","images/32_Disgust_hi_hi_1_tab20b_ascend_lgsm_dot.png",NA,NA
NA,"<div style=""width:500px;"">
                            <p style=""font-size:50px; font-weight:bold;""
                            >Disgust</p>
                            <div style=""width:480px; margin: auto;"">
                                <img src=""images/32_Disgust_hi_hi_3_Dark2_ascend_smlg_dot.png"" width=""480"" height=""420"" style=""object-fit:contain;"">
                            </div>
                        </div>","200","html-slider-response",143,363728,"0.0-139.0","vyfak928l8",31,"","","","","","",0,"",NA,"","Disgust","images/32_Disgust_hi_hi_3_Dark2_ascend_smlg_dot.png",NA,NA
NA,"<div style=""width:500px;"">
                            <p style=""font-size:50px; font-weight:bold;""
                            >Disgust</p>
                            <div style=""width:480px; margin: auto;"">
                                <img src=""images/32_Disgust_hi_lo_3_Paired_ascend_lgsm_dot.png"" width=""480"" height=""420"" style=""object-fit:contain;"">
                            </div>
                        </div>","-118","html-slider-response",144,365418,"0.0-140.0","vyfak928l8",31,"","","","","","",0,"",NA,"","Disgust","images/32_Disgust_hi_lo_3_Paired_ascend_lgsm_dot.png",NA,NA
NA,"<div style=""width:500px;"">
                            <p style=""font-size:50px; font-weight:bold;""
                            >Disgust</p>
                            <div style=""width:480px; margin: auto;"">
                                <img src=""images/32_Disgust_hi_md_2_Dark2_decend_smlg_dot.png"" width=""480"" height=""420"" style=""object-fit:contain;"">
                            </div>
                        </div>","-126","html-slider-response",145,367005,"0.0-141.0","vyfak928l8",31,"","","","","","",0,"",NA,"","Disgust","images/32_Disgust_hi_md_2_Dark2_decend_smlg_dot.png",NA,NA
NA,"<div style=""width:500px;"">
                            <p style=""font-size:50px; font-weight:bold;""
                            >Disgust</p>
                            <div style=""width:480px; margin: auto;"">
                                <img src=""images/32_Disgust_med_med_1_tab20b_decend_smlg_dot.png"" width=""480"" height=""420"" style=""object-fit:contain;"">
                            </div>
                        </div>","-106","html-slider-response",146,368509,"0.0-142.0","vyfak928l8",31,"","","","","","",0,"",NA,"","Disgust","images/32_Disgust_med_med_1_tab20b_decend_smlg_dot.png",NA,NA
NA,"<div style=""width:500px;"">
                            <p style=""font-size:50px; font-weight:bold;""
                            >Disgust</p>
                            <div style=""width:480px; margin: auto;"">
                                <img src=""images/32_Disgust_med_lo_1_tab20c_decend_smlg_dot.png"" width=""480"" height=""420"" style=""object-fit:contain;"">
                            </div>
                        </div>","-200","html-slider-response",147,370015,"0.0-143.0","vyfak928l8",31,"","","","","","",0,"",NA,"","Disgust","images/32_Disgust_med_lo_1_tab20c_decend_smlg_dot.png",NA,NA
NA,"<div style=""width:500px;"">
                            <p style=""font-size:50px; font-weight:bold;""
                            >Disgust</p>
                            <div style=""width:480px; margin: auto;"">
                                <img src=""images/32_Disgust_med_med_1_tab20b_ascend_lgsm_dot.png"" width=""480"" height=""420"" style=""object-fit:contain;"">
                            </div>
                        </div>","-200","html-slider-response",148,371630,"0.0-144.0","vyfak928l8",31,"","","","","","",0,"",NA,"","Disgust","images/32_Disgust_med_med_1_tab20b_ascend_lgsm_dot.png",NA,NA
NA,"<div style=""width:500px;"">
                            <p style=""font-size:50px; font-weight:bold;""
                            >Disgust</p>
                            <div style=""width:480px; margin: auto;"">
                                <img src=""images/32_Disgust_hi_hi_2_tab20_ascend_smlg_dot.png"" width=""480"" height=""420"" style=""object-fit:contain;"">
                            </div>
                        </div>","109","html-slider-response",149,373379,"0.0-145.0","vyfak928l8",31,"","","","","","",0,"",NA,"","Disgust","images/32_Disgust_hi_hi_2_tab20_ascend_smlg_dot.png",NA,NA
NA,"<div style=""width:500px;"">
                            <p style=""font-size:50px; font-weight:bold;""
                            >Disgust</p>
                            <div style=""width:480px; margin: auto;"">
                                <img src=""images/32_Disgust_hi_md_1_tab20b_ascend_smlg_dot.png"" width=""480"" height=""420"" style=""object-fit:contain;"">
                            </div>
                        </div>","126","html-slider-response",150,375362,"0.0-146.0","vyfak928l8",31,"","","","","","",0,"",NA,"","Disgust","images/32_Disgust_hi_md_1_tab20b_ascend_smlg_dot.png",NA,NA
NA,"<div style=""width:500px;"">
                            <p style=""font-size:50px; font-weight:bold;""
                            >Disgust</p>
                            <div style=""width:480px; margin: auto;"">
                                <img src=""images/32_Disgust_med_lo_3_Pastel2_ascend_lgsm_dot.png"" width=""480"" height=""420"" style=""object-fit:contain;"">
                            </div>
                        </div>","-194","html-slider-response",151,376905,"0.0-147.0","vyfak928l8",31,"","","","","","",0,"",NA,"","Disgust","images/32_Disgust_med_lo_3_Pastel2_ascend_lgsm_dot.png",NA,NA
NA,"<div style=""width:500px;"">
                            <p style=""font-size:50px; font-weight:bold;""
                            >Disgust</p>
                            <div style=""width:480px; margin: auto;"">
                                <img src=""images/32_Disgust_hi_md_1_tab20b_ascend_lgsm_dot.png"" width=""480"" height=""420"" style=""object-fit:contain;"">
                            </div>
                        </div>","-200","html-slider-response",152,378558,"0.0-148.0","vyfak928l8",31,"","","","","","",0,"",NA,"","Disgust","images/32_Disgust_hi_md_1_tab20b_ascend_lgsm_dot.png",NA,NA
NA,"<div style=""width:500px;"">
                            <p style=""font-size:50px; font-weight:bold;""
                            >Disgust</p>
                            <div style=""width:480px; margin: auto;"">
                                <img src=""images/32_Disgust_med_lo_2_tab20_ascend_smlg_dot.png"" width=""480"" height=""420"" style=""object-fit:contain;"">
                            </div>
                        </div>","-200","html-slider-response",153,380143,"0.0-149.0","vyfak928l8",31,"","","","","","",0,"",NA,"","Disgust","images/32_Disgust_med_lo_2_tab20_ascend_smlg_dot.png",NA,NA
NA,"<div style=""width:500px;"">
                            <p style=""font-size:50px; font-weight:bold;""
                            >Disgust</p>
                            <div style=""width:480px; margin: auto;"">
                                <img src=""images/32_Disgust_lo_lo_1_tab20c_ascend_lgsm_dot.png"" width=""480"" height=""420"" style=""object-fit:contain;"">
                            </div>
                        </div>","-200","html-slider-response",154,381730,"0.0-150.0","vyfak928l8",31,"","","","","","",0,"",NA,"","Disgust","images/32_Disgust_lo_lo_1_tab20c_ascend_lgsm_dot.png",NA,NA
NA,"<div style=""width:500px;"">
                            <p style=""font-size:50px; font-weight:bold;""
                            >Disgust</p>
                            <div style=""width:480px; margin: auto;"">
                                <img src=""images/32_Disgust_hi_hi_2_tab20_decend_smlg_dot.png"" width=""480"" height=""420"" style=""object-fit:contain;"">
                            </div>
                        </div>","-104","html-slider-response",155,383551,"0.0-151.0","vyfak928l8",31,"","","","","","",0,"",NA,"","Disgust","images/32_Disgust_hi_hi_2_tab20_decend_smlg_dot.png",NA,NA
NA,"<div style=""width:500px;"">
                            <p style=""font-size:50px; font-weight:bold;""
                            >Disgust</p>
                            <div style=""width:480px; margin: auto;"">
                                <img src=""images/32_Disgust_lo_lo_2_Pastel1_ascend_smlg_dot.png"" width=""480"" height=""420"" style=""object-fit:contain;"">
                            </div>
                        </div>","-200","html-slider-response",156,385186,"0.0-152.0","vyfak928l8",31,"","","","","","",0,"",NA,"","Disgust","images/32_Disgust_lo_lo_2_Pastel1_ascend_smlg_dot.png",NA,NA
NA,"<div style=""width:500px;"">
                            <p style=""font-size:50px; font-weight:bold;""
                            >Disgust</p>
                            <div style=""width:480px; margin: auto;"">
                                <img src=""images/32_Disgust_hi_lo_1_tab20b_decend_lgsm_dot.png"" width=""480"" height=""420"" style=""object-fit:contain;"">
                            </div>
                        </div>","-114","html-slider-response",157,386887,"0.0-153.0","vyfak928l8",31,"","","","","","",0,"",NA,"","Disgust","images/32_Disgust_hi_lo_1_tab20b_decend_lgsm_dot.png",NA,NA
NA,"<div style=""width:500px;"">
                            <p style=""font-size:50px; font-weight:bold;""
                            >Disgust</p>
                            <div style=""width:480px; margin: auto;"">
                                <img src=""images/32_Disgust_hi_lo_1_tab20b_ascend_smlg_dot.png"" width=""480"" height=""420"" style=""object-fit:contain;"">
                            </div>
                        </div>","-195","html-slider-response",158,388558,"0.0-154.0","vyfak928l8",31,"","","","","","",0,"",NA,"","Disgust","images/32_Disgust_hi_lo_1_tab20b_ascend_smlg_dot.png",NA,NA
NA,"<div style=""width:500px;"">
                            <p style=""font-size:50px; font-weight:bold;""
                            >Disgust</p>
                            <div style=""width:480px; margin: auto;"">
                                <img src=""images/32_Disgust_hi_hi_1_tab20b_ascend_smlg_dot.png"" width=""480"" height=""420"" style=""object-fit:contain;"">
                            </div>
                        </div>","200","html-slider-response",159,390142,"0.0-155.0","vyfak928l8",31,"","","","","","",0,"",NA,"","Disgust","images/32_Disgust_hi_hi_1_tab20b_ascend_smlg_dot.png",NA,NA
NA,"<div style=""width:500px;"">
                            <p style=""font-size:50px; font-weight:bold;""
                            >Disgust</p>
                            <div style=""width:480px; margin: auto;"">
                                <img src=""images/32_Disgust_med_lo_1_tab20c_decend_lgsm_dot.png"" width=""480"" height=""420"" style=""object-fit:contain;"">
                            </div>
                        </div>","-200","html-slider-response",160,391979,"0.0-156.0","vyfak928l8",31,"","","","","","",0,"",NA,"","Disgust","images/32_Disgust_med_lo_1_tab20c_decend_lgsm_dot.png",NA,NA
NA,"<div style=""width:500px;"">
                            <p style=""font-size:50px; font-weight:bold;""
                            >Disgust</p>
                            <div style=""width:480px; margin: auto;"">
                                <img src=""images/32_Disgust_hi_lo_1_tab20b_ascend_lgsm_dot.png"" width=""480"" height=""420"" style=""object-fit:contain;"">
                            </div>
                        </div>","-98","html-slider-response",161,393625,"0.0-157.0","vyfak928l8",31,"","","","","","",0,"",NA,"","Disgust","images/32_Disgust_hi_lo_1_tab20b_ascend_lgsm_dot.png",NA,NA
NA,"<div style=""width:500px;"">
                            <p style=""font-size:50px; font-weight:bold;""
                            >Disgust</p>
                            <div style=""width:480px; margin: auto;"">
                                <img src=""images/32_Disgust_lo_lo_1_tab20c_ascend_smlg_dot.png"" width=""480"" height=""420"" style=""object-fit:contain;"">
                            </div>
                        </div>","-200","html-slider-response",162,394971,"0.0-158.0","vyfak928l8",31,"","","","","","",0,"",NA,"","Disgust","images/32_Disgust_lo_lo_1_tab20c_ascend_smlg_dot.png",NA,NA
NA,"<div style=""width:500px;"">
                            <p style=""font-size:50px; font-weight:bold;""
                            >Disgust</p>
                            <div style=""width:480px; margin: auto;"">
                                <img src=""images/32_Disgust_hi_md_3_tab20_ascend_smlg_dot.png"" width=""480"" height=""420"" style=""object-fit:contain;"">
                            </div>
                        </div>","-96","html-slider-response",163,396603,"0.0-159.0","vyfak928l8",31,"","","","","","",0,"",NA,"","Disgust","images/32_Disgust_hi_md_3_tab20_ascend_smlg_dot.png",NA,NA
1395,"<p>Great Job! You've finished block 2.<br></br> You have 3 block(s) left to go.<br></br></p>","0","html-button-response",164,398499,"0.0-160.0","vyfak928l8",31,"","","","","","",NA,"",NA,"","","",NA,NA
758,"<p>In this block of trials, you will be asked to rate how much you associate each texture with the concept</p >
                        <p style = 'font-size:150%; font-weight: bold'>Happy</p><br></br>","0","html-button-response",165,399258,"0.0-161.0","vyfak928l8",31,"","","","","","",NA,"",NA,"","","",NA,NA
NA,"<div style=""width:500px;"">
                            <p style=""font-size:50px; font-weight:bold;""
                            >Happy</p>
                            <div style=""width:480px; margin: auto;"">
                                <img src=""images/32_Happy_hi_hi_2_tab20_ascend_lgsm_dot.png"" width=""480"" height=""420"" style=""object-fit:contain;"">
                            </div>
                        </div>","95","html-slider-response",166,400903,"0.0-162.0","vyfak928l8",31,"","","","","","",0,"",NA,"","Happy","images/32_Happy_hi_hi_2_tab20_ascend_lgsm_dot.png",NA,NA
NA,"<div style=""width:500px;"">
                            <p style=""font-size:50px; font-weight:bold;""
                            >Happy</p>
                            <div style=""width:480px; margin: auto;"">
                                <img src=""images/32_Happy_hi_md_3_Set2_decend_smlg_dot.png"" width=""480"" height=""420"" style=""object-fit:contain;"">
                            </div>
                        </div>","92","html-slider-response",167,402530,"0.0-163.0","vyfak928l8",31,"","","","","","",0,"",NA,"","Happy","images/32_Happy_hi_md_3_Set2_decend_smlg_dot.png",NA,NA
NA,"<div style=""width:500px;"">
                            <p style=""font-size:50px; font-weight:bold;""
                            >Happy</p>
                            <div style=""width:480px; margin: auto;"">
                                <img src=""images/32_Happy_lo_lo_2_tab10new_decend_smlg_dot.png"" width=""480"" height=""420"" style=""object-fit:contain;"">
                            </div>
                        </div>","-173","html-slider-response",168,404213,"0.0-164.0","vyfak928l8",31,"","","","","","",0,"",NA,"","Happy","images/32_Happy_lo_lo_2_tab10new_decend_smlg_dot.png",NA,NA
NA,"<div style=""width:500px;"">
                            <p style=""font-size:50px; font-weight:bold;""
                            >Happy</p>
