"rt","stimulus","response","trial_type","trial_index","time_elapsed","internal_node_id","subject_id","condition_num","success","timeout","failed_images","failed_audio","failed_video","question_order","slider_start","practiceTrial","practiceTrialNum","correct","concept","texture_id","ishihara_plate","correct_response"
1365,"Welcome to our experiment!<p>At the bottom of this screen, you will see a button that says ""Begin Experiment"".<br>Please only click that button when you are ready to complete the 30 minute experiment in one sitting.</p><p> Once you click that button, it will not be possible to restart the experiment.","0","html-button-response",0,1368,"0.0-0.0","zqn7kjv1ok",27,"","","","","","",NA,"",NA,"","","",NA,NA
NA,"","","preload",1,4421,"0.0-1.0","zqn7kjv1ok",27,"true","false","[]","[]","[]","",NA,"",NA,"","","",NA,NA
1612,"","","fullscreen",2,7037,"0.0-2.0","zqn7kjv1ok",27,"true","","","","","",NA,"",NA,"","","",NA,NA
24048,"","{""Consent"":[""<strong>I consent</strong>""]}","survey-multi-select",3,31088,"0.0-3.0","zqn7kjv1ok",27,"","","","","","[0]",NA,"",NA,"","","",NA,NA
1744,"Welcome! <p> This experiment involves two parts: demographic information, followed by the experimental task.<p> It will take about 30 minutes to complete both parts.","0","html-button-response",4,32835,"0.0-4.0","zqn7kjv1ok",27,"","","","","","",NA,"",NA,"","","",NA,NA
20669,"","{""Age"":""20"",""Gender"":""Female"",""Race/ethnicity"":""Indian"",""Languages"":""English\nHindi\nFrench""}","survey-text",5,53519,"0.0-5.0","zqn7kjv1ok",27,"","","","","","",NA,"",NA,"","","",NA,NA
39367,"
                        <div>
                            <div style='text-align:left; font-size:18px; line-height:25px; width: 1300px;'>
                                During this experiment you will be asked to rate how much you associate charts with                                different concepts. Below, you can see some examples of the charts you will be asked to rate. Above the charts
                                is the list of concepts. You will be asked
                                to rate how much you associate each chart with each concept on a scale from 'not at all' to 'very much' like the
                                one below. <br>

                        <div style=""text-align: left; width: 1300px;"">
                            <p style=""font-size:18px; line-height:20px; text-align:center; font-weight:bold"">
                                Fearful, Disgust, Happy, Angry, Sad
                            </p>
                        </div>

                        <div style=""display: flex; justify-content: center; width: 100%;"">
                            <div style=""
                                display: grid;
                                grid-template-columns: repeat(5, 1fr);
                                gap: 8px;
                                padding: 10px;
                                width: 900px;  
                                margin: 0 auto;
                            "">
                                
                                    <div style=""width: 100%;"">
                                        <img src=""images/28_Angry_lo_lo_1_tab20c_ascend_lgsm_dot.png"" style=""width: 100%; height: auto; object-fit: contain;"">
                                    </div>
                                
                                    <div style=""width: 100%;"">
                                        <img src=""images/28_Sad_lo_lo_1_Set1_ascend_smlg_dot.png"" style=""width: 100%; height: auto; object-fit: contain;"">
                                    </div>
                                
                                    <div style=""width: 100%;"">
                                        <img src=""images/28_Fearful_lo_lo_1_Pastel1_ascend_lgsm_dot.png"" style=""width: 100%; height: auto; object-fit: contain;"">
                                    </div>
                                
                                    <div style=""width: 100%;"">
                                        <img src=""images/28_Disgust_hi_hi_1_tab20b_ascend_smlg_dot.png"" style=""width: 100%; height: auto; object-fit: contain;"">
                                    </div>
                                
                                    <div style=""width: 100%;"">
                                        <img src=""images/28_Happy_hi_hi_1_Set1_decend_lgsm_dot.png"" style=""width: 100%; height: auto; object-fit: contain;"">
                                    </div>
                                
                                    <div style=""width: 100%;"">
                                        <img src=""images/28_Happy_lo_lo_1_tab20b_decend_smlg_dot.png"" style=""width: 100%; height: auto; object-fit: contain;"">
                                    </div>
                                
                                    <div style=""width: 100%;"">
                                        <img src=""images/28_Fearful_hi_hi_1_tab20b_ascend_smlg_dot.png"" style=""width: 100%; height: auto; object-fit: contain;"">
                                    </div>
                                
                                    <div style=""width: 100%;"">
                                        <img src=""images/28_Angry_hi_hi_1_tab20_decend_lgsm_dot.png"" style=""width: 100%; height: auto; object-fit: contain;"">
                                    </div>
                                
                                    <div style=""width: 100%;"">
                                        <img src=""images/28_Disgust_lo_lo_1_tab20c_ascend_lgsm_dot.png"" style=""width: 100%; height: auto; object-fit: contain;"">
                                    </div>
                                
                                    <div style=""width: 100%;"">
                                        <img src=""images/28_Sad_hi_hi_1_tab20_decend_lgsm_dot.png"" style=""width: 100%; height: auto; object-fit: contain;"">
                                    </div>
                                
                            </div>
                        </div>
                    </div>
                </div>
                    ","null","html-slider-response",6,92887,"0.0-6.0","zqn7kjv1ok",27,"","","","","","",0,"true",NA,"","","",NA,NA
2296,"<div style=""width:1300px;""><p style=""text-align:left"">To move the slider, click and drag your cursor to the location of the scale where you would like to make your rating and then let go. When you let go of the slider, your response will be recorded and the next trial will begin. <br>
                    We are interested in your initial impressions of each chart for a given concept, so please go with your first intuition. 
                    Before you begin the experiment, there will be four training trials for you to practice using the slider. 
                     When you are ready to start the training trials, please click ""Continue"".</p><br></div>","0","html-button-response",7,95186,"0.0-7.0","zqn7kjv1ok",27,"","","","","","",NA,"",NA,"","","",NA,NA
NA,"<div style=""width:500px;"">
                                    <p style=""font-size:25px;"">Please move the slider all the way to the <br> right endpoint of the scale</p>

                                    </div>
                                </div>","200","html-slider-response",8,97696,"0.0-8.0-0.0","zqn7kjv1ok",27,"","","","","","",0,"true",0,"true","","",NA,NA
1153,"<p align='center'><b>Good job!</b> Click on 'Continue' to proceed.</p>","0","html-button-response",9,99352,"0.0-8.0-1.0","zqn7kjv1ok",27,"","","","","","",NA,"",NA,"","","",NA,NA
NA,"<div style=""width:500px;"">
                                    <p style=""font-size:25px;"">Please move the slider all the way to the <br> left endpoint of the scale</p>

                                    </div>
                                </div>","-200","html-slider-response",10,100445,"0.0-9.0-0.0","zqn7kjv1ok",27,"","","","","","",0,"true",1,"true","","",NA,NA
1087,"<p align='center'><b>Good job!</b> Click on 'Continue' to proceed.</p>","0","html-button-response",11,102036,"0.0-9.0-1.0","zqn7kjv1ok",27,"","","","","","",NA,"",NA,"","","",NA,NA
NA,"<div style=""width:500px;"">
                                    <p style=""font-size:25px;"">Please move the slider halfway between the center and right endpoint of the scale</p>

                                    </div>
                                </div>","-105","html-slider-response",12,104299,"0.0-10.0-0.0","zqn7kjv1ok",27,"","","","","","",0,"true",2,"false","","",NA,NA
2149,"<p align='center'><b>Not quite!</b> The slider was not placed near the instructed located. Click on 'Continue' to try again. </p>","0","html-button-response",13,106952,"0.0-10.0-1.0","zqn7kjv1ok",27,"","","","","","",NA,"",NA,"","","",NA,NA
NA,"<div style=""width:500px;"">
                                    <p style=""font-size:25px;"">Please move the slider halfway between the center and right endpoint of the scale</p>

                                    </div>
                                </div>","102","html-slider-response",14,108911,"0.0-10.1-0.1","zqn7kjv1ok",27,"","","","","","",0,"true",2,"true","","",NA,NA
656,"<p align='center'><b>Good job!</b> Click on 'Continue' to proceed.</p>","0","html-button-response",15,110070,"0.0-10.1-1.1","zqn7kjv1ok",27,"","","","","","",NA,"",NA,"","","",NA,NA
NA,"<div style=""width:500px;"">
                                    <p style=""font-size:25px;"">Please move the slider halfway between the center and left endpoint of the scale</p>

                                    </div>
                                </div>","-108","html-slider-response",16,111949,"0.0-11.0-0.0","zqn7kjv1ok",27,"","","","","","",0,"true",3,"true","","",NA,NA
532,"<p align='center'><b>Good job!</b> Click on 'Continue' to proceed.</p>","0","html-button-response",17,112984,"0.0-11.0-1.0","zqn7kjv1ok",27,"","","","","","",NA,"",NA,"","","",NA,NA
1417,"<p>Great job! You've completed the practice trials. Now you will begin the main task.</p>","0","html-button-response",18,114402,"0.0-12.0","zqn7kjv1ok",27,"","","","","","",NA,"",NA,"","","",NA,NA
4216,"<p>In this block of trials, you will be asked to rate how much you associate each texture with the concept</p >
                        <p style = 'font-size:150%; font-weight: bold'>Fearful</p><br></br>","0","html-button-response",19,118619,"0.0-13.0","zqn7kjv1ok",27,"","","","","","",NA,"",NA,"","","",NA,NA
NA,"<div style=""width:500px;"">
                            <p style=""font-size:50px; font-weight:bold;""
                            >Fearful</p>
                            <div style=""width:480px; margin: auto;"">
                                <img src=""images/28_Fearful_med_lo_3_tab20_decend_smlg_dot.png"" width=""480"" height=""420"" style=""object-fit:contain;"">
                            </div>
                        </div>","-200","html-slider-response",20,120945,"0.0-14.0","zqn7kjv1ok",27,"","","","","","",0,"",NA,"","Fearful","images/28_Fearful_med_lo_3_tab20_decend_smlg_dot.png",NA,NA
NA,"<div style=""width:500px;"">
                            <p style=""font-size:50px; font-weight:bold;""
                            >Fearful</p>
                            <div style=""width:480px; margin: auto;"">
                                <img src=""images/28_Fearful_med_lo_2_Set3_decend_smlg_dot.png"" width=""480"" height=""420"" style=""object-fit:contain;"">
                            </div>
                        </div>","-200","html-slider-response",21,123021,"0.0-15.0","zqn7kjv1ok",27,"","","","","","",0,"",NA,"","Fearful","images/28_Fearful_med_lo_2_Set3_decend_smlg_dot.png",NA,NA
NA,"<div style=""width:500px;"">
                            <p style=""font-size:50px; font-weight:bold;""
                            >Fearful</p>
                            <div style=""width:480px; margin: auto;"">
                                <img src=""images/28_Fearful_hi_hi_1_tab20b_ascend_lgsm_dot.png"" width=""480"" height=""420"" style=""object-fit:contain;"">
                            </div>
                        </div>","-200","html-slider-response",22,125196,"0.0-16.0","zqn7kjv1ok",27,"","","","","","",0,"",NA,"","Fearful","images/28_Fearful_hi_hi_1_tab20b_ascend_lgsm_dot.png",NA,NA
NA,"<div style=""width:500px;"">
                            <p style=""font-size:50px; font-weight:bold;""
                            >Fearful</p>
                            <div style=""width:480px; margin: auto;"">
                                <img src=""images/28_Fearful_hi_md_2_tab10new_ascend_lgsm_dot.png"" width=""480"" height=""420"" style=""object-fit:contain;"">
                            </div>
                        </div>","-200","html-slider-response",23,127263,"0.0-17.0","zqn7kjv1ok",27,"","","","","","",0,"",NA,"","Fearful","images/28_Fearful_hi_md_2_tab10new_ascend_lgsm_dot.png",NA,NA
NA,"<div style=""width:500px;"">
                            <p style=""font-size:50px; font-weight:bold;""
                            >Fearful</p>
                            <div style=""width:480px; margin: auto;"">
                                <img src=""images/28_Fearful_hi_lo_2_tab20b_decend_lgsm_dot.png"" width=""480"" height=""420"" style=""object-fit:contain;"">
                            </div>
                        </div>","-200","html-slider-response",24,129081,"0.0-18.0","zqn7kjv1ok",27,"","","","","","",0,"",NA,"","Fearful","images/28_Fearful_hi_lo_2_tab20b_decend_lgsm_dot.png",NA,NA
NA,"<div style=""width:500px;"">
                            <p style=""font-size:50px; font-weight:bold;""
                            >Fearful</p>
                            <div style=""width:480px; margin: auto;"">
                                <img src=""images/28_Fearful_hi_lo_3_Accent_decend_smlg_dot.png"" width=""480"" height=""420"" style=""object-fit:contain;"">
                            </div>
                        </div>","-200","html-slider-response",25,131046,"0.0-19.0","zqn7kjv1ok",27,"","","","","","",0,"",NA,"","Fearful","images/28_Fearful_hi_lo_3_Accent_decend_smlg_dot.png",NA,NA
NA,"<div style=""width:500px;"">
                            <p style=""font-size:50px; font-weight:bold;""
                            >Fearful</p>
                            <div style=""width:480px; margin: auto;"">
                                <img src=""images/28_Fearful_lo_lo_2_Set3_decend_lgsm_dot.png"" width=""480"" height=""420"" style=""object-fit:contain;"">
                            </div>
                        </div>","-200","html-slider-response",26,133212,"0.0-20.0","zqn7kjv1ok",27,"","","","","","",0,"",NA,"","Fearful","images/28_Fearful_lo_lo_2_Set3_decend_lgsm_dot.png",NA,NA
NA,"<div style=""width:500px;"">
                            <p style=""font-size:50px; font-weight:bold;""
                            >Fearful</p>
                            <div style=""width:480px; margin: auto;"">
                                <img src=""images/28_Fearful_med_med_1_tab20c_ascend_smlg_dot.png"" width=""480"" height=""420"" style=""object-fit:contain;"">
                            </div>
                        </div>","-200","html-slider-response",27,134964,"0.0-21.0","zqn7kjv1ok",27,"","","","","","",0,"",NA,"","Fearful","images/28_Fearful_med_med_1_tab20c_ascend_smlg_dot.png",NA,NA
NA,"<div style=""width:500px;"">
                            <p style=""font-size:50px; font-weight:bold;""
                            >Fearful</p>
                            <div style=""width:480px; margin: auto;"">
                                <img src=""images/28_Fearful_med_med_1_tab20c_decend_lgsm_dot.png"" width=""480"" height=""420"" style=""object-fit:contain;"">
                            </div>
                        </div>","-200","html-slider-response",28,137198,"0.0-22.0","zqn7kjv1ok",27,"","","","","","",0,"",NA,"","Fearful","images/28_Fearful_med_med_1_tab20c_decend_lgsm_dot.png",NA,NA
NA,"<div style=""width:500px;"">
                            <p style=""font-size:50px; font-weight:bold;""
                            >Fearful</p>
                            <div style=""width:480px; margin: auto;"">
                                <img src=""images/28_Fearful_hi_md_3_tab20_ascend_lgsm_dot.png"" width=""480"" height=""420"" style=""object-fit:contain;"">
                            </div>
                        </div>","-200","html-slider-response",29,139338,"0.0-23.0","zqn7kjv1ok",27,"","","","","","",0,"",NA,"","Fearful","images/28_Fearful_hi_md_3_tab20_ascend_lgsm_dot.png",NA,NA
NA,"<div style=""width:500px;"">
                            <p style=""font-size:50px; font-weight:bold;""
                            >Fearful</p>
                            <div style=""width:480px; margin: auto;"">
                                <img src=""images/28_Fearful_med_lo_1_Pastel1_ascend_lgsm_dot.png"" width=""480"" height=""420"" style=""object-fit:contain;"">
                            </div>
                        </div>","-200","html-slider-response",30,141331,"0.0-24.0","zqn7kjv1ok",27,"","","","","","",0,"",NA,"","Fearful","images/28_Fearful_med_lo_1_Pastel1_ascend_lgsm_dot.png",NA,NA
NA,"<div style=""width:500px;"">
                            <p style=""font-size:50px; font-weight:bold;""
                            >Fearful</p>
                            <div style=""width:480px; margin: auto;"">
                                <img src=""images/28_Fearful_hi_md_3_tab20_decend_lgsm_dot.png"" width=""480"" height=""420"" style=""object-fit:contain;"">
                            </div>
                        </div>","-200","html-slider-response",31,143231,"0.0-25.0","zqn7kjv1ok",27,"","","","","","",0,"",NA,"","Fearful","images/28_Fearful_hi_md_3_tab20_decend_lgsm_dot.png",NA,NA
NA,"<div style=""width:500px;"">
                            <p style=""font-size:50px; font-weight:bold;""
                            >Fearful</p>
                            <div style=""width:480px; margin: auto;"">
                                <img src=""images/28_Fearful_hi_md_2_tab10new_ascend_smlg_dot.png"" width=""480"" height=""420"" style=""object-fit:contain;"">
                            </div>
                        </div>","-200","html-slider-response",32,144863,"0.0-26.0","zqn7kjv1ok",27,"","","","","","",0,"",NA,"","Fearful","images/28_Fearful_hi_md_2_tab10new_ascend_smlg_dot.png",NA,NA
NA,"<div style=""width:500px;"">
                            <p style=""font-size:50px; font-weight:bold;""
                            >Fearful</p>
                            <div style=""width:480px; margin: auto;"">
                                <img src=""images/28_Fearful_hi_hi_2_tab20_ascend_lgsm_dot.png"" width=""480"" height=""420"" style=""object-fit:contain;"">
                            </div>
                        </div>","-200","html-slider-response",33,146688,"0.0-27.0","zqn7kjv1ok",27,"","","","","","",0,"",NA,"","Fearful","images/28_Fearful_hi_hi_2_tab20_ascend_lgsm_dot.png",NA,NA
NA,"<div style=""width:500px;"">
                            <p style=""font-size:50px; font-weight:bold;""
                            >Fearful</p>
                            <div style=""width:480px; margin: auto;"">
                                <img src=""images/28_Fearful_med_lo_3_tab20_ascend_smlg_dot.png"" width=""480"" height=""420"" style=""object-fit:contain;"">
                            </div>
                        </div>","-200","html-slider-response",34,149012,"0.0-28.0","zqn7kjv1ok",27,"","","","","","",0,"",NA,"","Fearful","images/28_Fearful_med_lo_3_tab20_ascend_smlg_dot.png",NA,NA
NA,"<div style=""width:500px;"">
                            <p style=""font-size:50px; font-weight:bold;""
                            >Fearful</p>
                            <div style=""width:480px; margin: auto;"">
                                <img src=""images/28_Fearful_hi_md_3_tab20_decend_smlg_dot.png"" width=""480"" height=""420"" style=""object-fit:contain;"">
                            </div>
                        </div>","-200","html-slider-response",35,150812,"0.0-29.0","zqn7kjv1ok",27,"","","","","","",0,"",NA,"","Fearful","images/28_Fearful_hi_md_3_tab20_decend_smlg_dot.png",NA,NA
NA,"<div style=""width:500px;"">
                            <p style=""font-size:50px; font-weight:bold;""
                            >Fearful</p>
                            <div style=""width:480px; margin: auto;"">
                                <img src=""images/28_Fearful_med_med_2_tab20_decend_smlg_dot.png"" width=""480"" height=""420"" style=""object-fit:contain;"">
                            </div>
                        </div>","-200","html-slider-response",36,152898,"0.0-30.0","zqn7kjv1ok",27,"","","","","","",0,"",NA,"","Fearful","images/28_Fearful_med_med_2_tab20_decend_smlg_dot.png",NA,NA
NA,"<div style=""width:500px;"">
                            <p style=""font-size:50px; font-weight:bold;""
                            >Fearful</p>
                            <div style=""width:480px; margin: auto;"">
                                <img src=""images/28_Fearful_hi_lo_1_tab20_decend_lgsm_dot.png"" width=""480"" height=""420"" style=""object-fit:contain;"">
                            </div>
                        </div>","-200","html-slider-response",37,154679,"0.0-31.0","zqn7kjv1ok",27,"","","","","","",0,"",NA,"","Fearful","images/28_Fearful_hi_lo_1_tab20_decend_lgsm_dot.png",NA,NA
NA,"<div style=""width:500px;"">
                            <p style=""font-size:50px; font-weight:bold;""
                            >Fearful</p>
                            <div style=""width:480px; margin: auto;"">
                                <img src=""images/28_Fearful_hi_hi_3_tab10new_ascend_smlg_dot.png"" width=""480"" height=""420"" style=""object-fit:contain;"">
                            </div>
                        </div>","-200","html-slider-response",38,156431,"0.0-32.0","zqn7kjv1ok",27,"","","","","","",0,"",NA,"","Fearful","images/28_Fearful_hi_hi_3_tab10new_ascend_smlg_dot.png",NA,NA
NA,"<div style=""width:500px;"">
                            <p style=""font-size:50px; font-weight:bold;""
                            >Fearful</p>
                            <div style=""width:480px; margin: auto;"">
                                <img src=""images/28_Fearful_hi_hi_3_tab10new_decend_smlg_dot.png"" width=""480"" height=""420"" style=""object-fit:contain;"">
                            </div>
                        </div>","-200","html-slider-response",39,158013,"0.0-33.0","zqn7kjv1ok",27,"","","","","","",0,"",NA,"","Fearful","images/28_Fearful_hi_hi_3_tab10new_decend_smlg_dot.png",NA,NA
NA,"<div style=""width:500px;"">
                            <p style=""font-size:50px; font-weight:bold;""
                            >Fearful</p>
                            <div style=""width:480px; margin: auto;"">
                                <img src=""images/28_Fearful_hi_lo_2_tab20b_ascend_lgsm_dot.png"" width=""480"" height=""420"" style=""object-fit:contain;"">
                            </div>
                        </div>","-200","html-slider-response",40,159661,"0.0-34.0","zqn7kjv1ok",27,"","","","","","",0,"",NA,"","Fearful","images/28_Fearful_hi_lo_2_tab20b_ascend_lgsm_dot.png",NA,NA
NA,"<div style=""width:500px;"">
                            <p style=""font-size:50px; font-weight:bold;""
                            >Fearful</p>
                            <div style=""width:480px; margin: auto;"">
                                <img src=""images/28_Fearful_lo_lo_3_tab20c_decend_lgsm_dot.png"" width=""480"" height=""420"" style=""object-fit:contain;"">
                            </div>
                        </div>","-200","html-slider-response",41,161449,"0.0-35.0","zqn7kjv1ok",27,"","","","","","",0,"",NA,"","Fearful","images/28_Fearful_lo_lo_3_tab20c_decend_lgsm_dot.png",NA,NA
NA,"<div style=""width:500px;"">
                            <p style=""font-size:50px; font-weight:bold;""
                            >Fearful</p>
                            <div style=""width:480px; margin: auto;"">
                                <img src=""images/28_Fearful_med_med_2_tab20_ascend_lgsm_dot.png"" width=""480"" height=""420"" style=""object-fit:contain;"">
                            </div>
                        </div>","-200","html-slider-response",42,163346,"0.0-36.0","zqn7kjv1ok",27,"","","","","","",0,"",NA,"","Fearful","images/28_Fearful_med_med_2_tab20_ascend_lgsm_dot.png",NA,NA
NA,"<div style=""width:500px;"">
                            <p style=""font-size:50px; font-weight:bold;""
                            >Fearful</p>
                            <div style=""width:480px; margin: auto;"">
                                <img src=""images/28_Fearful_med_lo_2_Set3_ascend_smlg_dot.png"" width=""480"" height=""420"" style=""object-fit:contain;"">
                            </div>
                        </div>","-200","html-slider-response",43,165031,"0.0-37.0","zqn7kjv1ok",27,"","","","","","",0,"",NA,"","Fearful","images/28_Fearful_med_lo_2_Set3_ascend_smlg_dot.png",NA,NA
NA,"<div style=""width:500px;"">
                            <p style=""font-size:50px; font-weight:bold;""
                            >Fearful</p>
                            <div style=""width:480px; margin: auto;"">
                                <img src=""images/28_Fearful_hi_hi_3_tab10new_decend_lgsm_dot.png"" width=""480"" height=""420"" style=""object-fit:contain;"">
                            </div>
                        </div>","-200","html-slider-response",44,166738,"0.0-38.0","zqn7kjv1ok",27,"","","","","","",0,"",NA,"","Fearful","images/28_Fearful_hi_hi_3_tab10new_decend_lgsm_dot.png",NA,NA
NA,"<div style=""width:500px;"">
                            <p style=""font-size:50px; font-weight:bold;""
                            >Fearful</p>
                            <div style=""width:480px; margin: auto;"">
                                <img src=""images/28_Fearful_med_lo_1_Pastel1_decend_smlg_dot.png"" width=""480"" height=""420"" style=""object-fit:contain;"">
                            </div>
                        </div>","-200","html-slider-response",45,168429,"0.0-39.0","zqn7kjv1ok",27,"","","","","","",0,"",NA,"","Fearful","images/28_Fearful_med_lo_1_Pastel1_decend_smlg_dot.png",NA,NA
NA,"<div style=""width:500px;"">
                            <p style=""font-size:50px; font-weight:bold;""
                            >Fearful</p>
                            <div style=""width:480px; margin: auto;"">
                                <img src=""images/28_Fearful_lo_lo_3_tab20c_ascend_lgsm_dot.png"" width=""480"" height=""420"" style=""object-fit:contain;"">
                            </div>
                        </div>","-200","html-slider-response",46,170213,"0.0-40.0","zqn7kjv1ok",27,"","","","","","",0,"",NA,"","Fearful","images/28_Fearful_lo_lo_3_tab20c_ascend_lgsm_dot.png",NA,NA
NA,"<div style=""width:500px;"">
                            <p style=""font-size:50px; font-weight:bold;""
                            >Fearful</p>
                            <div style=""width:480px; margin: auto;"">
                                <img src=""images/28_Fearful_lo_lo_2_Set3_ascend_lgsm_dot.png"" width=""480"" height=""420"" style=""object-fit:contain;"">
                            </div>
                        </div>","-200","html-slider-response",47,171782,"0.0-41.0","zqn7kjv1ok",27,"","","","","","",0,"",NA,"","Fearful","images/28_Fearful_lo_lo_2_Set3_ascend_lgsm_dot.png",NA,NA
NA,"<div style=""width:500px;"">
                            <p style=""font-size:50px; font-weight:bold;""
                            >Fearful</p>
                            <div style=""width:480px; margin: auto;"">
                                <img src=""images/28_Fearful_med_lo_3_tab20_decend_lgsm_dot.png"" width=""480"" height=""420"" style=""object-fit:contain;"">
                            </div>
                        </div>","-200","html-slider-response",48,173429,"0.0-42.0","zqn7kjv1ok",27,"","","","","","",0,"",NA,"","Fearful","images/28_Fearful_med_lo_3_tab20_decend_lgsm_dot.png",NA,NA
NA,"<div style=""width:500px;"">
                            <p style=""font-size:50px; font-weight:bold;""
                            >Fearful</p>
                            <div style=""width:480px; margin: auto;"">
                                <img src=""images/28_Fearful_hi_md_3_tab20_ascend_smlg_dot.png"" width=""480"" height=""420"" style=""object-fit:contain;"">
                            </div>
                        </div>","-200","html-slider-response",49,175021,"0.0-43.0","zqn7kjv1ok",27,"","","","","","",0,"",NA,"","Fearful","images/28_Fearful_hi_md_3_tab20_ascend_smlg_dot.png",NA,NA
NA,"<div style=""width:500px;"">
                            <p style=""font-size:50px; font-weight:bold;""
                            >Fearful</p>
                            <div style=""width:480px; margin: auto;"">
                                <img src=""images/28_Fearful_med_lo_1_Pastel1_ascend_smlg_dot.png"" width=""480"" height=""420"" style=""object-fit:contain;"">
                            </div>
                        </div>","-200","html-slider-response",50,176671,"0.0-44.0","zqn7kjv1ok",27,"","","","","","",0,"",NA,"","Fearful","images/28_Fearful_med_lo_1_Pastel1_ascend_smlg_dot.png",NA,NA
NA,"<div style=""width:500px;"">
                            <p style=""font-size:50px; font-weight:bold;""
                            >Fearful</p>
                            <div style=""width:480px; margin: auto;"">
                                <img src=""images/28_Fearful_med_med_3_tab20b_decend_lgsm_dot.png"" width=""480"" height=""420"" style=""object-fit:contain;"">
                            </div>
                        </div>","-200","html-slider-response",51,178229,"0.0-45.0","zqn7kjv1ok",27,"","","","","","",0,"",NA,"","Fearful","images/28_Fearful_med_med_3_tab20b_decend_lgsm_dot.png",NA,NA
NA,"<div style=""width:500px;"">
                            <p style=""font-size:50px; font-weight:bold;""
                            >Fearful</p>
                            <div style=""width:480px; margin: auto;"">
                                <img src=""images/28_Fearful_hi_md_1_tab20b_decend_lgsm_dot.png"" width=""480"" height=""420"" style=""object-fit:contain;"">
                            </div>
                        </div>","-200","html-slider-response",52,179731,"0.0-46.0","zqn7kjv1ok",27,"","","","","","",0,"",NA,"","Fearful","images/28_Fearful_hi_md_1_tab20b_decend_lgsm_dot.png",NA,NA
NA,"<div style=""width:500px;"">
                            <p style=""font-size:50px; font-weight:bold;""
                            >Fearful</p>
                            <div style=""width:480px; margin: auto;"">
                                <img src=""images/28_Fearful_hi_lo_1_tab20_ascend_lgsm_dot.png"" width=""480"" height=""420"" style=""object-fit:contain;"">
                            </div>
                        </div>","-200","html-slider-response",53,181129,"0.0-47.0","zqn7kjv1ok",27,"","","","","","",0,"",NA,"","Fearful","images/28_Fearful_hi_lo_1_tab20_ascend_lgsm_dot.png",NA,NA
NA,"<div style=""width:500px;"">
                            <p style=""font-size:50px; font-weight:bold;""
                            >Fearful</p>
                            <div style=""width:480px; margin: auto;"">
                                <img src=""images/28_Fearful_med_med_3_tab20b_ascend_lgsm_dot.png"" width=""480"" height=""420"" style=""object-fit:contain;"">
                            </div>
                        </div>","-200","html-slider-response",54,182632,"0.0-48.0","zqn7kjv1ok",27,"","","","","","",0,"",NA,"","Fearful","images/28_Fearful_med_med_3_tab20b_ascend_lgsm_dot.png",NA,NA
NA,"<div style=""width:500px;"">
                            <p style=""font-size:50px; font-weight:bold;""
                            >Fearful</p>
                            <div style=""width:480px; margin: auto;"">
                                <img src=""images/28_Fearful_med_med_1_tab20c_decend_smlg_dot.png"" width=""480"" height=""420"" style=""object-fit:contain;"">
                            </div>
                        </div>","-200","html-slider-response",55,184037,"0.0-49.0","zqn7kjv1ok",27,"","","","","","",0,"",NA,"","Fearful","images/28_Fearful_med_med_1_tab20c_decend_smlg_dot.png",NA,NA
NA,"<div style=""width:500px;"">
                            <p style=""font-size:50px; font-weight:bold;""
                            >Fearful</p>
                            <div style=""width:480px; margin: auto;"">
                                <img src=""images/28_Fearful_hi_lo_1_tab20_decend_smlg_dot.png"" width=""480"" height=""420"" style=""object-fit:contain;"">
                            </div>
                        </div>","-200","html-slider-response",56,185463,"0.0-50.0","zqn7kjv1ok",27,"","","","","","",0,"",NA,"","Fearful","images/28_Fearful_hi_lo_1_tab20_decend_smlg_dot.png",NA,NA
NA,"<div style=""width:500px;"">
                            <p style=""font-size:50px; font-weight:bold;""
                            >Fearful</p>
                            <div style=""width:480px; margin: auto;"">
                                <img src=""images/28_Fearful_hi_hi_1_tab20b_decend_lgsm_dot.png"" width=""480"" height=""420"" style=""object-fit:contain;"">
                            </div>
                        </div>","-200","html-slider-response",57,186747,"0.0-51.0","zqn7kjv1ok",27,"","","","","","",0,"",NA,"","Fearful","images/28_Fearful_hi_hi_1_tab20b_decend_lgsm_dot.png",NA,NA
NA,"<div style=""width:500px;"">
                            <p style=""font-size:50px; font-weight:bold;""
                            >Fearful</p>
                            <div style=""width:480px; margin: auto;"">
                                <img src=""images/28_Fearful_med_med_2_tab20_decend_lgsm_dot.png"" width=""480"" height=""420"" style=""object-fit:contain;"">
                            </div>
                        </div>","-200","html-slider-response",58,188071,"0.0-52.0","zqn7kjv1ok",27,"","","","","","",0,"",NA,"","Fearful","images/28_Fearful_med_med_2_tab20_decend_lgsm_dot.png",NA,NA
NA,"<div style=""width:500px;"">
                            <p style=""font-size:50px; font-weight:bold;""
                            >Fearful</p>
                            <div style=""width:480px; margin: auto;"">
                                <img src=""images/28_Fearful_med_lo_3_tab20_ascend_lgsm_dot.png"" width=""480"" height=""420"" style=""object-fit:contain;"">
                            </div>
                        </div>","-200","html-slider-response",59,189429,"0.0-53.0","zqn7kjv1ok",27,"","","","","","",0,"",NA,"","Fearful","images/28_Fearful_med_lo_3_tab20_ascend_lgsm_dot.png",NA,NA
NA,"<div style=""width:500px;"">
                            <p style=""font-size:50px; font-weight:bold;""
                            >Fearful</p>
                            <div style=""width:480px; margin: auto;"">
                                <img src=""images/28_Fearful_hi_md_1_tab20b_decend_smlg_dot.png"" width=""480"" height=""420"" style=""object-fit:contain;"">
                            </div>
                        </div>","-184","html-slider-response",60,190579,"0.0-54.0","zqn7kjv1ok",27,"","","","","","",0,"",NA,"","Fearful","images/28_Fearful_hi_md_1_tab20b_decend_smlg_dot.png",NA,NA
NA,"<div style=""width:500px;"">
                            <p style=""font-size:50px; font-weight:bold;""
                            >Fearful</p>
                            <div style=""width:480px; margin: auto;"">
                                <img src=""images/28_Fearful_hi_hi_1_tab20b_ascend_smlg_dot.png"" width=""480"" height=""420"" style=""object-fit:contain;"">
                            </div>
                        </div>","-196","html-slider-response",61,192580,"0.0-55.0","zqn7kjv1ok",27,"","","","","","",0,"",NA,"","Fearful","images/28_Fearful_hi_hi_1_tab20b_ascend_smlg_dot.png",NA,NA
NA,"<div style=""width:500px;"">
                            <p style=""font-size:50px; font-weight:bold;""
                            >Fearful</p>
                            <div style=""width:480px; margin: auto;"">
                                <img src=""images/28_Fearful_hi_lo_3_Accent_ascend_lgsm_dot.png"" width=""480"" height=""420"" style=""object-fit:contain;"">
                            </div>
                        </div>","-194","html-slider-response",62,193763,"0.0-56.0","zqn7kjv1ok",27,"","","","","","",0,"",NA,"","Fearful","images/28_Fearful_hi_lo_3_Accent_ascend_lgsm_dot.png",NA,NA
NA,"<div style=""width:500px;"">
                            <p style=""font-size:50px; font-weight:bold;""
                            >Fearful</p>
                            <div style=""width:480px; margin: auto;"">
                                <img src=""images/28_Fearful_lo_lo_1_Pastel1_decend_lgsm_dot.png"" width=""480"" height=""420"" style=""object-fit:contain;"">
                            </div>
                        </div>","-198","html-slider-response",63,195198,"0.0-57.0","zqn7kjv1ok",27,"","","","","","",0,"",NA,"","Fearful","images/28_Fearful_lo_lo_1_Pastel1_decend_lgsm_dot.png",NA,NA
NA,"<div style=""width:500px;"">
                            <p style=""font-size:50px; font-weight:bold;""
                            >Fearful</p>
                            <div style=""width:480px; margin: auto;"">
                                <img src=""images/28_Fearful_lo_lo_3_tab20c_decend_smlg_dot.png"" width=""480"" height=""420"" style=""object-fit:contain;"">
                            </div>
                        </div>","-200","html-slider-response",64,196330,"0.0-58.0","zqn7kjv1ok",27,"","","","","","",0,"",NA,"","Fearful","images/28_Fearful_lo_lo_3_tab20c_decend_smlg_dot.png",NA,NA
NA,"<div style=""width:500px;"">
                            <p style=""font-size:50px; font-weight:bold;""
                            >Fearful</p>
                            <div style=""width:480px; margin: auto;"">
                                <img src=""images/28_Fearful_med_med_2_tab20_ascend_smlg_dot.png"" width=""480"" height=""420"" style=""object-fit:contain;"">
                            </div>
                        </div>","-200","html-slider-response",65,197481,"0.0-59.0","zqn7kjv1ok",27,"","","","","","",0,"",NA,"","Fearful","images/28_Fearful_med_med_2_tab20_ascend_smlg_dot.png",NA,NA
NA,"<div style=""width:500px;"">
                            <p style=""font-size:50px; font-weight:bold;""
                            >Fearful</p>
                            <div style=""width:480px; margin: auto;"">
                                <img src=""images/28_Fearful_hi_md_2_tab10new_decend_lgsm_dot.png"" width=""480"" height=""420"" style=""object-fit:contain;"">
                            </div>
                        </div>","-200","html-slider-response",66,198381,"0.0-60.0","zqn7kjv1ok",27,"","","","","","",0,"",NA,"","Fearful","images/28_Fearful_hi_md_2_tab10new_decend_lgsm_dot.png",NA,NA
NA,"<div style=""width:500px;"">
                            <p style=""font-size:50px; font-weight:bold;""
                            >Fearful</p>
                            <div style=""width:480px; margin: auto;"">
                                <img src=""images/28_Fearful_hi_md_2_tab10new_decend_smlg_dot.png"" width=""480"" height=""420"" style=""object-fit:contain;"">
                            </div>
                        </div>","-200","html-slider-response",67,199313,"0.0-61.0","zqn7kjv1ok",27,"","","","","","",0,"",NA,"","Fearful","images/28_Fearful_hi_md_2_tab10new_decend_smlg_dot.png",NA,NA
NA,"<div style=""width:500px;"">
                            <p style=""font-size:50px; font-weight:bold;""
                            >Fearful</p>
                            <div style=""width:480px; margin: auto;"">
                                <img src=""images/28_Fearful_hi_lo_2_tab20b_decend_smlg_dot.png"" width=""480"" height=""420"" style=""object-fit:contain;"">
                            </div>
                        </div>","-200","html-slider-response",68,200230,"0.0-62.0","zqn7kjv1ok",27,"","","","","","",0,"",NA,"","Fearful","images/28_Fearful_hi_lo_2_tab20b_decend_smlg_dot.png",NA,NA
NA,"<div style=""width:500px;"">
                            <p style=""font-size:50px; font-weight:bold;""
                            >Fearful</p>
                            <div style=""width:480px; margin: auto;"">
                                <img src=""images/28_Fearful_lo_lo_1_Pastel1_decend_smlg_dot.png"" width=""480"" height=""420"" style=""object-fit:contain;"">
                            </div>
                        </div>","-200","html-slider-response",69,201181,"0.0-63.0","zqn7kjv1ok",27,"","","","","","",0,"",NA,"","Fearful","images/28_Fearful_lo_lo_1_Pastel1_decend_smlg_dot.png",NA,NA
NA,"<div style=""width:500px;"">
                            <p style=""font-size:50px; font-weight:bold;""
                            >Fearful</p>
                            <div style=""width:480px; margin: auto;"">
                                <img src=""images/28_Fearful_lo_lo_1_Pastel1_ascend_smlg_dot.png"" width=""480"" height=""420"" style=""object-fit:contain;"">
                            </div>
                        </div>","-200","html-slider-response",70,202113,"0.0-64.0","zqn7kjv1ok",27,"","","","","","",0,"",NA,"","Fearful","images/28_Fearful_lo_lo_1_Pastel1_ascend_smlg_dot.png",NA,NA
NA,"<div style=""width:500px;"">
                            <p style=""font-size:50px; font-weight:bold;""
                            >Fearful</p>
                            <div style=""width:480px; margin: auto;"">
                                <img src=""images/28_Fearful_med_med_3_tab20b_ascend_smlg_dot.png"" width=""480"" height=""420"" style=""object-fit:contain;"">
                            </div>
                        </div>","-200","html-slider-response",71,203080,"0.0-65.0","zqn7kjv1ok",27,"","","","","","",0,"",NA,"","Fearful","images/28_Fearful_med_med_3_tab20b_ascend_smlg_dot.png",NA,NA
NA,"<div style=""width:500px;"">
                            <p style=""font-size:50px; font-weight:bold;""
                            >Fearful</p>
                            <div style=""width:480px; margin: auto;"">
                                <img src=""images/28_Fearful_lo_lo_2_Set3_ascend_smlg_dot.png"" width=""480"" height=""420"" style=""object-fit:contain;"">
                            </div>
                        </div>","-200","html-slider-response",72,204063,"0.0-66.0","zqn7kjv1ok",27,"","","","","","",0,"",NA,"","Fearful","images/28_Fearful_lo_lo_2_Set3_ascend_smlg_dot.png",NA,NA
NA,"<div style=""width:500px;"">
                            <p style=""font-size:50px; font-weight:bold;""
                            >Fearful</p>
                            <div style=""width:480px; margin: auto;"">
                                <img src=""images/28_Fearful_hi_hi_2_tab20_decend_smlg_dot.png"" width=""480"" height=""420"" style=""object-fit:contain;"">
                            </div>
                        </div>","-200","html-slider-response",73,205098,"0.0-67.0","zqn7kjv1ok",27,"","","","","","",0,"",NA,"","Fearful","images/28_Fearful_hi_hi_2_tab20_decend_smlg_dot.png",NA,NA
NA,"<div style=""width:500px;"">
                            <p style=""font-size:50px; font-weight:bold;""
                            >Fearful</p>
                            <div style=""width:480px; margin: auto;"">
                                <img src=""images/28_Fearful_lo_lo_1_Pastel1_ascend_lgsm_dot.png"" width=""480"" height=""420"" style=""object-fit:contain;"">
                            </div>
                        </div>","-200","html-slider-response",74,206563,"0.0-68.0","zqn7kjv1ok",27,"","","","","","",0,"",NA,"","Fearful","images/28_Fearful_lo_lo_1_Pastel1_ascend_lgsm_dot.png",NA,NA
NA,"<div style=""width:500px;"">
                            <p style=""font-size:50px; font-weight:bold;""
                            >Fearful</p>
                            <div style=""width:480px; margin: auto;"">
                                <img src=""images/28_Fearful_med_lo_1_Pastel1_decend_lgsm_dot.png"" width=""480"" height=""420"" style=""object-fit:contain;"">
                            </div>
                        </div>","-200","html-slider-response",75,207564,"0.0-69.0","zqn7kjv1ok",27,"","","","","","",0,"",NA,"","Fearful","images/28_Fearful_med_lo_1_Pastel1_decend_lgsm_dot.png",NA,NA
NA,"<div style=""width:500px;"">
                            <p style=""font-size:50px; font-weight:bold;""
                            >Fearful</p>
                            <div style=""width:480px; margin: auto;"">
                                <img src=""images/28_Fearful_hi_lo_2_tab20b_ascend_smlg_dot.png"" width=""480"" height=""420"" style=""object-fit:contain;"">
                            </div>
                        </div>","-200","html-slider-response",76,208730,"0.0-70.0","zqn7kjv1ok",27,"","","","","","",0,"",NA,"","Fearful","images/28_Fearful_hi_lo_2_tab20b_ascend_smlg_dot.png",NA,NA
NA,"<div style=""width:500px;"">
                            <p style=""font-size:50px; font-weight:bold;""
                            >Fearful</p>
                            <div style=""width:480px; margin: auto;"">
                                <img src=""images/28_Fearful_hi_hi_2_tab20_ascend_smlg_dot.png"" width=""480"" height=""420"" style=""object-fit:contain;"">
                            </div>
                        </div>","-200","html-slider-response",77,209729,"0.0-71.0","zqn7kjv1ok",27,"","","","","","",0,"",NA,"","Fearful","images/28_Fearful_hi_hi_2_tab20_ascend_smlg_dot.png",NA,NA
NA,"<div style=""width:500px;"">
                            <p style=""font-size:50px; font-weight:bold;""
                            >Fearful</p>
                            <div style=""width:480px; margin: auto;"">
                                <img src=""images/28_Fearful_hi_md_1_tab20b_ascend_lgsm_dot.png"" width=""480"" height=""420"" style=""object-fit:contain;"">
                            </div>
                        </div>","-200","html-slider-response",78,210730,"0.0-72.0","zqn7kjv1ok",27,"","","","","","",0,"",NA,"","Fearful","images/28_Fearful_hi_md_1_tab20b_ascend_lgsm_dot.png",NA,NA
NA,"<div style=""width:500px;"">
                            <p style=""font-size:50px; font-weight:bold;""
                            >Fearful</p>
                            <div style=""width:480px; margin: auto;"">
                                <img src=""images/28_Fearful_med_lo_2_Set3_decend_lgsm_dot.png"" width=""480"" height=""420"" style=""object-fit:contain;"">
                            </div>
                        </div>","-200","html-slider-response",79,211846,"0.0-73.0","zqn7kjv1ok",27,"","","","","","",0,"",NA,"","Fearful","images/28_Fearful_med_lo_2_Set3_decend_lgsm_dot.png",NA,NA
NA,"<div style=""width:500px;"">
                            <p style=""font-size:50px; font-weight:bold;""
                            >Fearful</p>
                            <div style=""width:480px; margin: auto;"">
                                <img src=""images/28_Fearful_med_med_3_tab20b_decend_smlg_dot.png"" width=""480"" height=""420"" style=""object-fit:contain;"">
                            </div>
                        </div>","-200","html-slider-response",80,213363,"0.0-74.0","zqn7kjv1ok",27,"","","","","","",0,"",NA,"","Fearful","images/28_Fearful_med_med_3_tab20b_decend_smlg_dot.png",NA,NA
NA,"<div style=""width:500px;"">
                            <p style=""font-size:50px; font-weight:bold;""
                            >Fearful</p>
                            <div style=""width:480px; margin: auto;"">
                                <img src=""images/28_Fearful_med_lo_2_Set3_ascend_lgsm_dot.png"" width=""480"" height=""420"" style=""object-fit:contain;"">
                            </div>
                        </div>","-200","html-slider-response",81,214530,"0.0-75.0","zqn7kjv1ok",27,"","","","","","",0,"",NA,"","Fearful","images/28_Fearful_med_lo_2_Set3_ascend_lgsm_dot.png",NA,NA
NA,"<div style=""width:500px;"">
                            <p style=""font-size:50px; font-weight:bold;""
                            >Fearful</p>
                            <div style=""width:480px; margin: auto;"">
                                <img src=""images/28_Fearful_hi_hi_1_tab20b_decend_smlg_dot.png"" width=""480"" height=""420"" style=""object-fit:contain;"">
                            </div>
                        </div>","-200","html-slider-response",82,215680,"0.0-76.0","zqn7kjv1ok",27,"","","","","","",0,"",NA,"","Fearful","images/28_Fearful_hi_hi_1_tab20b_decend_smlg_dot.png",NA,NA
NA,"<div style=""width:500px;"">
                            <p style=""font-size:50px; font-weight:bold;""
                            >Fearful</p>
                            <div style=""width:480px; margin: auto;"">
                                <img src=""images/28_Fearful_hi_lo_3_Accent_decend_lgsm_dot.png"" width=""480"" height=""420"" style=""object-fit:contain;"">
                            </div>
                        </div>","-200","html-slider-response",83,216864,"0.0-77.0","zqn7kjv1ok",27,"","","","","","",0,"",NA,"","Fearful","images/28_Fearful_hi_lo_3_Accent_decend_lgsm_dot.png",NA,NA
NA,"<div style=""width:500px;"">
                            <p style=""font-size:50px; font-weight:bold;""
                            >Fearful</p>
                            <div style=""width:480px; margin: auto;"">
                                <img src=""images/28_Fearful_lo_lo_2_Set3_decend_smlg_dot.png"" width=""480"" height=""420"" style=""object-fit:contain;"">
                            </div>
                        </div>","-200","html-slider-response",84,217865,"0.0-78.0","zqn7kjv1ok",27,"","","","","","",0,"",NA,"","Fearful","images/28_Fearful_lo_lo_2_Set3_decend_smlg_dot.png",NA,NA
NA,"<div style=""width:500px;"">
                            <p style=""font-size:50px; font-weight:bold;""
                            >Fearful</p>
                            <div style=""width:480px; margin: auto;"">
                                <img src=""images/28_Fearful_hi_hi_2_tab20_decend_lgsm_dot.png"" width=""480"" height=""420"" style=""object-fit:contain;"">
                            </div>
                        </div>","-200","html-slider-response",85,218879,"0.0-79.0","zqn7kjv1ok",27,"","","","","","",0,"",NA,"","Fearful","images/28_Fearful_hi_hi_2_tab20_decend_lgsm_dot.png",NA,NA
NA,"<div style=""width:500px;"">
                            <p style=""font-size:50px; font-weight:bold;""
                            >Fearful</p>
                            <div style=""width:480px; margin: auto;"">
                                <img src=""images/28_Fearful_hi_lo_3_Accent_ascend_smlg_dot.png"" width=""480"" height=""420"" style=""object-fit:contain;"">
                            </div>
                        </div>","-200","html-slider-response",86,219847,"0.0-80.0","zqn7kjv1ok",27,"","","","","","",0,"",NA,"","Fearful","images/28_Fearful_hi_lo_3_Accent_ascend_smlg_dot.png",NA,NA
NA,"<div style=""width:500px;"">
                            <p style=""font-size:50px; font-weight:bold;""
                            >Fearful</p>
                            <div style=""width:480px; margin: auto;"">
                                <img src=""images/28_Fearful_lo_lo_3_tab20c_ascend_smlg_dot.png"" width=""480"" height=""420"" style=""object-fit:contain;"">
                            </div>
                        </div>","-200","html-slider-response",87,220847,"0.0-81.0","zqn7kjv1ok",27,"","","","","","",0,"",NA,"","Fearful","images/28_Fearful_lo_lo_3_tab20c_ascend_smlg_dot.png",NA,NA
NA,"<div style=""width:500px;"">
                            <p style=""font-size:50px; font-weight:bold;""
                            >Fearful</p>
                            <div style=""width:480px; margin: auto;"">
                                <img src=""images/28_Fearful_hi_lo_1_tab20_ascend_smlg_dot.png"" width=""480"" height=""420"" style=""object-fit:contain;"">
                            </div>
                        </div>","-200","html-slider-response",88,221780,"0.0-82.0","zqn7kjv1ok",27,"","","","","","",0,"",NA,"","Fearful","images/28_Fearful_hi_lo_1_tab20_ascend_smlg_dot.png",NA,NA
NA,"<div style=""width:500px;"">
                            <p style=""font-size:50px; font-weight:bold;""
                            >Fearful</p>
                            <div style=""width:480px; margin: auto;"">
                                <img src=""images/28_Fearful_hi_hi_3_tab10new_ascend_lgsm_dot.png"" width=""480"" height=""420"" style=""object-fit:contain;"">
                            </div>
                        </div>","-200","html-slider-response",89,222747,"0.0-83.0","zqn7kjv1ok",27,"","","","","","",0,"",NA,"","Fearful","images/28_Fearful_hi_hi_3_tab10new_ascend_lgsm_dot.png",NA,NA
NA,"<div style=""width:500px;"">
                            <p style=""font-size:50px; font-weight:bold;""
                            >Fearful</p>
                            <div style=""width:480px; margin: auto;"">
                                <img src=""images/28_Fearful_hi_md_1_tab20b_ascend_smlg_dot.png"" width=""480"" height=""420"" style=""object-fit:contain;"">
                            </div>
                        </div>","-200","html-slider-response",90,223663,"0.0-84.0","zqn7kjv1ok",27,"","","","","","",0,"",NA,"","Fearful","images/28_Fearful_hi_md_1_tab20b_ascend_smlg_dot.png",NA,NA
NA,"<div style=""width:500px;"">
                            <p style=""font-size:50px; font-weight:bold;""
                            >Fearful</p>
                            <div style=""width:480px; margin: auto;"">
                                <img src=""images/28_Fearful_med_med_1_tab20c_ascend_lgsm_dot.png"" width=""480"" height=""420"" style=""object-fit:contain;"">
                            </div>
                        </div>","-200","html-slider-response",91,224597,"0.0-85.0","zqn7kjv1ok",27,"","","","","","",0,"",NA,"","Fearful","images/28_Fearful_med_med_1_tab20c_ascend_lgsm_dot.png",NA,NA
2553,"<p>Great Job! You've finished block 1.<br></br> You have 4 block(s) left to go.<br></br></p>","0","html-button-response",92,227653,"0.0-86.0","zqn7kjv1ok",27,"","","","","","",NA,"",NA,"","","",NA,NA
1148,"<p>In this block of trials, you will be asked to rate how much you associate each texture with the concept</p >
                        <p style = 'font-size:150%; font-weight: bold'>Disgust</p><br></br>","0","html-button-response",93,228802,"0.0-87.0","zqn7kjv1ok",27,"","","","","","",NA,"",NA,"","","",NA,NA
NA,"<div style=""width:500px;"">
                            <p style=""font-size:50px; font-weight:bold;""
                            >Disgust</p>
                            <div style=""width:480px; margin: auto;"">
                                <img src=""images/28_Disgust_lo_lo_2_Pastel1_ascend_lgsm_dot.png"" width=""480"" height=""420"" style=""object-fit:contain;"">
                            </div>
                        </div>","-192","html-slider-response",94,230863,"0.0-88.0","zqn7kjv1ok",27,"","","","","","",0,"",NA,"","Disgust","images/28_Disgust_lo_lo_2_Pastel1_ascend_lgsm_dot.png",NA,NA
NA,"<div style=""width:500px;"">
                            <p style=""font-size:50px; font-weight:bold;""
                            >Disgust</p>
                            <div style=""width:480px; margin: auto;"">
                                <img src=""images/28_Disgust_hi_hi_2_tab20_decend_smlg_dot.png"" width=""480"" height=""420"" style=""object-fit:contain;"">
                            </div>
                        </div>","-199","html-slider-response",95,232513,"0.0-89.0","zqn7kjv1ok",27,"","","","","","",0,"",NA,"","Disgust","images/28_Disgust_hi_hi_2_tab20_decend_smlg_dot.png",NA,NA
NA,"<div style=""width:500px;"">
                            <p style=""font-size:50px; font-weight:bold;""
                            >Disgust</p>
                            <div style=""width:480px; margin: auto;"">
                                <img src=""images/28_Disgust_lo_lo_3_tab20_decend_smlg_dot.png"" width=""480"" height=""420"" style=""object-fit:contain;"">
                            </div>
                        </div>","-199","html-slider-response",96,233831,"0.0-90.0","zqn7kjv1ok",27,"","","","","","",0,"",NA,"","Disgust","images/28_Disgust_lo_lo_3_tab20_decend_smlg_dot.png",NA,NA
NA,"<div style=""width:500px;"">
                            <p style=""font-size:50px; font-weight:bold;""
                            >Disgust</p>
                            <div style=""width:480px; margin: auto;"">
                                <img src=""images/28_Disgust_hi_md_1_tab20b_decend_lgsm_dot.png"" width=""480"" height=""420"" style=""object-fit:contain;"">
                            </div>
                        </div>","-194","html-slider-response",97,238830,"0.0-91.0","zqn7kjv1ok",27,"","","","","","",0,"",NA,"","Disgust","images/28_Disgust_hi_md_1_tab20b_decend_lgsm_dot.png",NA,NA
NA,"<div style=""width:500px;"">
                            <p style=""font-size:50px; font-weight:bold;""
                            >Disgust</p>
                            <div style=""width:480px; margin: auto;"">
                                <img src=""images/28_Disgust_hi_lo_3_Paired_decend_lgsm_dot.png"" width=""480"" height=""420"" style=""object-fit:contain;"">
                            </div>
                        </div>","-199","html-slider-response",98,240081,"0.0-92.0","zqn7kjv1ok",27,"","","","","","",0,"",NA,"","Disgust","images/28_Disgust_hi_lo_3_Paired_decend_lgsm_dot.png",NA,NA
NA,"<div style=""width:500px;"">
                            <p style=""font-size:50px; font-weight:bold;""
                            >Disgust</p>
                            <div style=""width:480px; margin: auto;"">
                                <img src=""images/28_Disgust_hi_md_3_tab20_decend_lgsm_dot.png"" width=""480"" height=""420"" style=""object-fit:contain;"">
                            </div>
                        </div>","-199","html-slider-response",99,241481,"0.0-93.0","zqn7kjv1ok",27,"","","","","","",0,"",NA,"","Disgust","images/28_Disgust_hi_md_3_tab20_decend_lgsm_dot.png",NA,NA
NA,"<div style=""width:500px;"">
                            <p style=""font-size:50px; font-weight:bold;""
                            >Disgust</p>
                            <div style=""width:480px; margin: auto;"">
                                <img src=""images/28_Disgust_lo_lo_2_Pastel1_decend_lgsm_dot.png"" width=""480"" height=""420"" style=""object-fit:contain;"">
                            </div>
                        </div>","-199","html-slider-response",100,242980,"0.0-94.0","zqn7kjv1ok",27,"","","","","","",0,"",NA,"","Disgust","images/28_Disgust_lo_lo_2_Pastel1_decend_lgsm_dot.png",NA,NA
NA,"<div style=""width:500px;"">
                            <p style=""font-size:50px; font-weight:bold;""
                            >Disgust</p>
                            <div style=""width:480px; margin: auto;"">
                                <img src=""images/28_Disgust_med_med_1_tab20b_ascend_lgsm_dot.png"" width=""480"" height=""420"" style=""object-fit:contain;"">
                            </div>
                        </div>","-200","html-slider-response",101,244514,"0.0-95.0","zqn7kjv1ok",27,"","","","","","",0,"",NA,"","Disgust","images/28_Disgust_med_med_1_tab20b_ascend_lgsm_dot.png",NA,NA
NA,"<div style=""width:500px;"">
                            <p style=""font-size:50px; font-weight:bold;""
                            >Disgust</p>
                            <div style=""width:480px; margin: auto;"">
                                <img src=""images/28_Disgust_hi_md_2_Dark2_ascend_lgsm_dot.png"" width=""480"" height=""420"" style=""object-fit:contain;"">
                            </div>
                        </div>","-200","html-slider-response",102,245830,"0.0-96.0","zqn7kjv1ok",27,"","","","","","",0,"",NA,"","Disgust","images/28_Disgust_hi_md_2_Dark2_ascend_lgsm_dot.png",NA,NA
NA,"<div style=""width:500px;"">
                            <p style=""font-size:50px; font-weight:bold;""
                            >Disgust</p>
                            <div style=""width:480px; margin: auto;"">
                                <img src=""images/28_Disgust_med_med_3_Paired_decend_smlg_dot.png"" width=""480"" height=""420"" style=""object-fit:contain;"">
                            </div>
                        </div>","-200","html-slider-response",103,247197,"0.0-97.0","zqn7kjv1ok",27,"","","","","","",0,"",NA,"","Disgust","images/28_Disgust_med_med_3_Paired_decend_smlg_dot.png",NA,NA
NA,"<div style=""width:500px;"">
                            <p style=""font-size:50px; font-weight:bold;""
                            >Disgust</p>
                            <div style=""width:480px; margin: auto;"">
                                <img src=""images/28_Disgust_hi_md_1_tab20b_decend_smlg_dot.png"" width=""480"" height=""420"" style=""object-fit:contain;"">
                            </div>
                        </div>","-199","html-slider-response",104,249498,"0.0-98.0","zqn7kjv1ok",27,"","","","","","",0,"",NA,"","Disgust","images/28_Disgust_hi_md_1_tab20b_decend_smlg_dot.png",NA,NA
NA,"<div style=""width:500px;"">
                            <p style=""font-size:50px; font-weight:bold;""
                            >Disgust</p>
                            <div style=""width:480px; margin: auto;"">
                                <img src=""images/28_Disgust_hi_hi_1_tab20b_ascend_lgsm_dot.png"" width=""480"" height=""420"" style=""object-fit:contain;"">
                            </div>
                        </div>","27","html-slider-response",105,252282,"0.0-99.0","zqn7kjv1ok",27,"","","","","","",0,"",NA,"","Disgust","images/28_Disgust_hi_hi_1_tab20b_ascend_lgsm_dot.png",NA,NA
NA,"<div style=""width:500px;"">
                            <p style=""font-size:50px; font-weight:bold;""
                            >Disgust</p>
                            <div style=""width:480px; margin: auto;"">
                                <img src=""images/28_Disgust_hi_lo_1_tab20b_decend_lgsm_dot.png"" width=""480"" height=""420"" style=""object-fit:contain;"">
                            </div>
                        </div>","1","html-slider-response",106,253847,"0.0-100.0","zqn7kjv1ok",27,"","","","","","",0,"",NA,"","Disgust","images/28_Disgust_hi_lo_1_tab20b_decend_lgsm_dot.png",NA,NA
NA,"<div style=""width:500px;"">
                            <p style=""font-size:50px; font-weight:bold;""
                            >Disgust</p>
                            <div style=""width:480px; margin: auto;"">
                                <img src=""images/28_Disgust_med_lo_3_Pastel2_decend_lgsm_dot.png"" width=""480"" height=""420"" style=""object-fit:contain;"">
                            </div>
                        </div>","-200","html-slider-response",107,257798,"0.0-101.0","zqn7kjv1ok",27,"","","","","","",0,"",NA,"","Disgust","images/28_Disgust_med_lo_3_Pastel2_decend_lgsm_dot.png",NA,NA
NA,"<div style=""width:500px;"">
                            <p style=""font-size:50px; font-weight:bold;""
                            >Disgust</p>
                            <div style=""width:480px; margin: auto;"">
                                <img src=""images/28_Disgust_lo_lo_2_Pastel1_ascend_smlg_dot.png"" width=""480"" height=""420"" style=""object-fit:contain;"">
                            </div>
                        </div>","-200","html-slider-response",108,259047,"0.0-102.0","zqn7kjv1ok",27,"","","","","","",0,"",NA,"","Disgust","images/28_Disgust_lo_lo_2_Pastel1_ascend_smlg_dot.png",NA,NA
NA,"<div style=""width:500px;"">
                            <p style=""font-size:50px; font-weight:bold;""
                            >Disgust</p>
                            <div style=""width:480px; margin: auto;"">
                                <img src=""images/28_Disgust_lo_lo_1_tab20c_decend_smlg_dot.png"" width=""480"" height=""420"" style=""object-fit:contain;"">
                            </div>
                        </div>","-200","html-slider-response",109,263198,"0.0-103.0","zqn7kjv1ok",27,"","","","","","",0,"",NA,"","Disgust","images/28_Disgust_lo_lo_1_tab20c_decend_smlg_dot.png",NA,NA
NA,"<div style=""width:500px;"">
                            <p style=""font-size:50px; font-weight:bold;""
                            >Disgust</p>
                            <div style=""width:480px; margin: auto;"">
                                <img src=""images/28_Disgust_hi_lo_2_tab20_decend_smlg_dot.png"" width=""480"" height=""420"" style=""object-fit:contain;"">
                            </div>
                        </div>","-199","html-slider-response",110,266496,"0.0-104.0","zqn7kjv1ok",27,"","","","","","",0,"",NA,"","Disgust","images/28_Disgust_hi_lo_2_tab20_decend_smlg_dot.png",NA,NA
NA,"<div style=""width:500px;"">
                            <p style=""font-size:50px; font-weight:bold;""
                            >Disgust</p>
                            <div style=""width:480px; margin: auto;"">
                                <img src=""images/28_Disgust_med_med_2_tab20_ascend_smlg_dot.png"" width=""480"" height=""420"" style=""object-fit:contain;"">
                            </div>
                        </div>","-199","html-slider-response",111,267765,"0.0-105.0","zqn7kjv1ok",27,"","","","","","",0,"",NA,"","Disgust","images/28_Disgust_med_med_2_tab20_ascend_smlg_dot.png",NA,NA
NA,"<div style=""width:500px;"">
                            <p style=""font-size:50px; font-weight:bold;""
                            >Disgust</p>
                            <div style=""width:480px; margin: auto;"">
                                <img src=""images/28_Disgust_hi_md_1_tab20b_ascend_lgsm_dot.png"" width=""480"" height=""420"" style=""object-fit:contain;"">
                            </div>
                        </div>","-200","html-slider-response",112,270238,"0.0-106.0","zqn7kjv1ok",27,"","","","","","",0,"",NA,"","Disgust","images/28_Disgust_hi_md_1_tab20b_ascend_lgsm_dot.png",NA,NA
NA,"<div style=""width:500px;"">
                            <p style=""font-size:50px; font-weight:bold;""
                            >Disgust</p>
                            <div style=""width:480px; margin: auto;"">
                                <img src=""images/28_Disgust_hi_hi_2_tab20_ascend_lgsm_dot.png"" width=""480"" height=""420"" style=""object-fit:contain;"">
                            </div>
                        </div>","-92","html-slider-response",113,272364,"0.0-107.0","zqn7kjv1ok",27,"","","","","","",0,"",NA,"","Disgust","images/28_Disgust_hi_hi_2_tab20_ascend_lgsm_dot.png",NA,NA
NA,"<div style=""width:500px;"">
                            <p style=""font-size:50px; font-weight:bold;""
                            >Disgust</p>
                            <div style=""width:480px; margin: auto;"">
                                <img src=""images/28_Disgust_hi_lo_1_tab20b_ascend_lgsm_dot.png"" width=""480"" height=""420"" style=""object-fit:contain;"">
                            </div>
                        </div>","-146","html-slider-response",114,274380,"0.0-108.0","zqn7kjv1ok",27,"","","","","","",0,"",NA,"","Disgust","images/28_Disgust_hi_lo_1_tab20b_ascend_lgsm_dot.png",NA,NA
NA,"<div style=""width:500px;"">
                            <p style=""font-size:50px; font-weight:bold;""
                            >Disgust</p>
                            <div style=""width:480px; margin: auto;"">
                                <img src=""images/28_Disgust_med_lo_2_tab20_decend_lgsm_dot.png"" width=""480"" height=""420"" style=""object-fit:contain;"">
                            </div>
                        </div>","-198","html-slider-response",115,276263,"0.0-109.0","zqn7kjv1ok",27,"","","","","","",0,"",NA,"","Disgust","images/28_Disgust_med_lo_2_tab20_decend_lgsm_dot.png",NA,NA
NA,"<div style=""width:500px;"">
                            <p style=""font-size:50px; font-weight:bold;""
                            >Disgust</p>
                            <div style=""width:480px; margin: auto;"">
                                <img src=""images/28_Disgust_med_lo_2_tab20_ascend_lgsm_dot.png"" width=""480"" height=""420"" style=""object-fit:contain;"">
                            </div>
                        </div>","-198","html-slider-response",116,277413,"0.0-110.0","zqn7kjv1ok",27,"","","","","","",0,"",NA,"","Disgust","images/28_Disgust_med_lo_2_tab20_ascend_lgsm_dot.png",NA,NA
NA,"<div style=""width:500px;"">
                            <p style=""font-size:50px; font-weight:bold;""
                            >Disgust</p>
                            <div style=""width:480px; margin: auto;"">
                                <img src=""images/28_Disgust_med_lo_3_Pastel2_ascend_smlg_dot.png"" width=""480"" height=""420"" style=""object-fit:contain;"">
                            </div>
                        </div>","-198","html-slider-response",117,278680,"0.0-111.0","zqn7kjv1ok",27,"","","","","","",0,"",NA,"","Disgust","images/28_Disgust_med_lo_3_Pastel2_ascend_smlg_dot.png",NA,NA
NA,"<div style=""width:500px;"">
                            <p style=""font-size:50px; font-weight:bold;""
                            >Disgust</p>
                            <div style=""width:480px; margin: auto;"">
                                <img src=""images/28_Disgust_med_med_1_tab20b_decend_lgsm_dot.png"" width=""480"" height=""420"" style=""object-fit:contain;"">
                            </div>
                        </div>","-198","html-slider-response",118,280163,"0.0-112.0","zqn7kjv1ok",27,"","","","","","",0,"",NA,"","Disgust","images/28_Disgust_med_med_1_tab20b_decend_lgsm_dot.png",NA,NA
NA,"<div style=""width:500px;"">
                            <p style=""font-size:50px; font-weight:bold;""
                            >Disgust</p>
                            <div style=""width:480px; margin: auto;"">
                                <img src=""images/28_Disgust_lo_lo_2_Pastel1_decend_smlg_dot.png"" width=""480"" height=""420"" style=""object-fit:contain;"">
                            </div>
                        </div>","-198","html-slider-response",119,281330,"0.0-113.0","zqn7kjv1ok",27,"","","","","","",0,"",NA,"","Disgust","images/28_Disgust_lo_lo_2_Pastel1_decend_smlg_dot.png",NA,NA
NA,"<div style=""width:500px;"">
                            <p style=""font-size:50px; font-weight:bold;""
                            >Disgust</p>
                            <div style=""width:480px; margin: auto;"">
                                <img src=""images/28_Disgust_hi_md_2_Dark2_ascend_smlg_dot.png"" width=""480"" height=""420"" style=""object-fit:contain;"">
                            </div>
                        </div>","-199","html-slider-response",120,283048,"0.0-114.0","zqn7kjv1ok",27,"","","","","","",0,"",NA,"","Disgust","images/28_Disgust_hi_md_2_Dark2_ascend_smlg_dot.png",NA,NA
NA,"<div style=""width:500px;"">
                            <p style=""font-size:50px; font-weight:bold;""
                            >Disgust</p>
                            <div style=""width:480px; margin: auto;"">
                                <img src=""images/28_Disgust_hi_md_1_tab20b_ascend_smlg_dot.png"" width=""480"" height=""420"" style=""object-fit:contain;"">
                            </div>
                        </div>","-199","html-slider-response",121,284430,"0.0-115.0","zqn7kjv1ok",27,"","","","","","",0,"",NA,"","Disgust","images/28_Disgust_hi_md_1_tab20b_ascend_smlg_dot.png",NA,NA
NA,"<div style=""width:500px;"">
                            <p style=""font-size:50px; font-weight:bold;""
                            >Disgust</p>
                            <div style=""width:480px; margin: auto;"">
                                <img src=""images/28_Disgust_lo_lo_1_tab20c_decend_lgsm_dot.png"" width=""480"" height=""420"" style=""object-fit:contain;"">
                            </div>
                        </div>","-199","html-slider-response",122,285547,"0.0-116.0","zqn7kjv1ok",27,"","","","","","",0,"",NA,"","Disgust","images/28_Disgust_lo_lo_1_tab20c_decend_lgsm_dot.png",NA,NA
NA,"<div style=""width:500px;"">
                            <p style=""font-size:50px; font-weight:bold;""
                            >Disgust</p>
                            <div style=""width:480px; margin: auto;"">
                                <img src=""images/28_Disgust_hi_md_3_tab20_ascend_smlg_dot.png"" width=""480"" height=""420"" style=""object-fit:contain;"">
                            </div>
                        </div>","-199","html-slider-response",123,286648,"0.0-117.0","zqn7kjv1ok",27,"","","","","","",0,"",NA,"","Disgust","images/28_Disgust_hi_md_3_tab20_ascend_smlg_dot.png",NA,NA
NA,"<div style=""width:500px;"">
                            <p style=""font-size:50px; font-weight:bold;""
                            >Disgust</p>
                            <div style=""width:480px; margin: auto;"">
                                <img src=""images/28_Disgust_hi_lo_2_tab20_ascend_smlg_dot.png"" width=""480"" height=""420"" style=""object-fit:contain;"">
                            </div>
                        </div>","-199","html-slider-response",124,287698,"0.0-118.0","zqn7kjv1ok",27,"","","","","","",0,"",NA,"","Disgust","images/28_Disgust_hi_lo_2_tab20_ascend_smlg_dot.png",NA,NA
NA,"<div style=""width:500px;"">
                            <p style=""font-size:50px; font-weight:bold;""
                            >Disgust</p>
                            <div style=""width:480px; margin: auto;"">
                                <img src=""images/28_Disgust_hi_lo_2_tab20_ascend_lgsm_dot.png"" width=""480"" height=""420"" style=""object-fit:contain;"">
                            </div>
                        </div>","-199","html-slider-response",125,288647,"0.0-119.0","zqn7kjv1ok",27,"","","","","","",0,"",NA,"","Disgust","images/28_Disgust_hi_lo_2_tab20_ascend_lgsm_dot.png",NA,NA
NA,"<div style=""width:500px;"">
                            <p style=""font-size:50px; font-weight:bold;""
                            >Disgust</p>
                            <div style=""width:480px; margin: auto;"">
                                <img src=""images/28_Disgust_lo_lo_3_tab20_ascend_smlg_dot.png"" width=""480"" height=""420"" style=""object-fit:contain;"">
                            </div>
                        </div>","-199","html-slider-response",126,289580,"0.0-120.0","zqn7kjv1ok",27,"","","","","","",0,"",NA,"","Disgust","images/28_Disgust_lo_lo_3_tab20_ascend_smlg_dot.png",NA,NA
NA,"<div style=""width:500px;"">
                            <p style=""font-size:50px; font-weight:bold;""
                            >Disgust</p>
                            <div style=""width:480px; margin: auto;"">
                                <img src=""images/28_Disgust_med_lo_3_Pastel2_decend_smlg_dot.png"" width=""480"" height=""420"" style=""object-fit:contain;"">
                            </div>
                        </div>","-199","html-slider-response",127,290881,"0.0-121.0","zqn7kjv1ok",27,"","","","","","",0,"",NA,"","Disgust","images/28_Disgust_med_lo_3_Pastel2_decend_smlg_dot.png",NA,NA
NA,"<div style=""width:500px;"">
                            <p style=""font-size:50px; font-weight:bold;""
                            >Disgust</p>
                            <div style=""width:480px; margin: auto;"">
                                <img src=""images/28_Disgust_hi_md_2_Dark2_decend_smlg_dot.png"" width=""480"" height=""420"" style=""object-fit:contain;"">
                            </div>
                        </div>","-199","html-slider-response",128,291897,"0.0-122.0","zqn7kjv1ok",27,"","","","","","",0,"",NA,"","Disgust","images/28_Disgust_hi_md_2_Dark2_decend_smlg_dot.png",NA,NA
NA,"<div style=""width:500px;"">
                            <p style=""font-size:50px; font-weight:bold;""
                            >Disgust</p>
                            <div style=""width:480px; margin: auto;"">
                                <img src=""images/28_Disgust_hi_hi_1_tab20b_ascend_smlg_dot.png"" width=""480"" height=""420"" style=""object-fit:contain;"">
                            </div>
                        </div>","-199","html-slider-response",129,292931,"0.0-123.0","zqn7kjv1ok",27,"","","","","","",0,"",NA,"","Disgust","images/28_Disgust_hi_hi_1_tab20b_ascend_smlg_dot.png",NA,NA
NA,"<div style=""width:500px;"">
                            <p style=""font-size:50px; font-weight:bold;""
                            >Disgust</p>
                            <div style=""width:480px; margin: auto;"">
                                <img src=""images/28_Disgust_hi_lo_2_tab20_decend_lgsm_dot.png"" width=""480"" height=""420"" style=""object-fit:contain;"">
                            </div>
                        </div>","-199","html-slider-response",130,293931,"0.0-124.0","zqn7kjv1ok",27,"","","","","","",0,"",NA,"","Disgust","images/28_Disgust_hi_lo_2_tab20_decend_lgsm_dot.png",NA,NA
NA,"<div style=""width:500px;"">
                            <p style=""font-size:50px; font-weight:bold;""
                            >Disgust</p>
                            <div style=""width:480px; margin: auto;"">
                                <img src=""images/28_Disgust_hi_lo_1_tab20b_decend_smlg_dot.png"" width=""480"" height=""420"" style=""object-fit:contain;"">
                            </div>
                        </div>","-199","html-slider-response",131,295047,"0.0-125.0","zqn7kjv1ok",27,"","","","","","",0,"",NA,"","Disgust","images/28_Disgust_hi_lo_1_tab20b_decend_smlg_dot.png",NA,NA
NA,"<div style=""width:500px;"">
                            <p style=""font-size:50px; font-weight:bold;""
                            >Disgust</p>
                            <div style=""width:480px; margin: auto;"">
                                <img src=""images/28_Disgust_hi_hi_3_Dark2_ascend_smlg_dot.png"" width=""480"" height=""420"" style=""object-fit:contain;"">
                            </div>
                        </div>","-199","html-slider-response",132,296363,"0.0-126.0","zqn7kjv1ok",27,"","","","","","",0,"",NA,"","Disgust","images/28_Disgust_hi_hi_3_Dark2_ascend_smlg_dot.png",NA,NA
NA,"<div style=""width:500px;"">
                            <p style=""font-size:50px; font-weight:bold;""
                            >Disgust</p>
                            <div style=""width:480px; margin: auto;"">
                                <img src=""images/28_Disgust_lo_lo_3_tab20_decend_lgsm_dot.png"" width=""480"" height=""420"" style=""object-fit:contain;"">
                            </div>
                        </div>","-199","html-slider-response",133,297447,"0.0-127.0","zqn7kjv1ok",27,"","","","","","",0,"",NA,"","Disgust","images/28_Disgust_lo_lo_3_tab20_decend_lgsm_dot.png",NA,NA
NA,"<div style=""width:500px;"">
                            <p style=""font-size:50px; font-weight:bold;""
                            >Disgust</p>
                            <div style=""width:480px; margin: auto;"">
                                <img src=""images/28_Disgust_hi_lo_3_Paired_decend_smlg_dot.png"" width=""480"" height=""420"" style=""object-fit:contain;"">
                            </div>
                        </div>","-199","html-slider-response",134,298712,"0.0-128.0","zqn7kjv1ok",27,"","","","","","",0,"",NA,"","Disgust","images/28_Disgust_hi_lo_3_Paired_decend_smlg_dot.png",NA,NA
NA,"<div style=""width:500px;"">
                            <p style=""font-size:50px; font-weight:bold;""
                            >Disgust</p>
                            <div style=""width:480px; margin: auto;"">
                                <img src=""images/28_Disgust_med_med_3_Paired_decend_lgsm_dot.png"" width=""480"" height=""420"" style=""object-fit:contain;"">
                            </div>
                        </div>","-199","html-slider-response",135,299731,"0.0-129.0","zqn7kjv1ok",27,"","","","","","",0,"",NA,"","Disgust","images/28_Disgust_med_med_3_Paired_decend_lgsm_dot.png",NA,NA
NA,"<div style=""width:500px;"">
                            <p style=""font-size:50px; font-weight:bold;""
                            >Disgust</p>
                            <div style=""width:480px; margin: auto;"">
                                <img src=""images/28_Disgust_hi_hi_3_Dark2_decend_lgsm_dot.png"" width=""480"" height=""420"" style=""object-fit:contain;"">
                            </div>
                        </div>","-199","html-slider-response",136,300698,"0.0-130.0","zqn7kjv1ok",27,"","","","","","",0,"",NA,"","Disgust","images/28_Disgust_hi_hi_3_Dark2_decend_lgsm_dot.png",NA,NA
NA,"<div style=""width:500px;"">
                            <p style=""font-size:50px; font-weight:bold;""
                            >Disgust</p>
                            <div style=""width:480px; margin: auto;"">
                                <img src=""images/28_Disgust_hi_hi_3_Dark2_decend_smlg_dot.png"" width=""480"" height=""420"" style=""object-fit:contain;"">
                            </div>
                        </div>","-199","html-slider-response",137,301715,"0.0-131.0","zqn7kjv1ok",27,"","","","","","",0,"",NA,"","Disgust","images/28_Disgust_hi_hi_3_Dark2_decend_smlg_dot.png",NA,NA
NA,"<div style=""width:500px;"">
                            <p style=""font-size:50px; font-weight:bold;""
                            >Disgust</p>
                            <div style=""width:480px; margin: auto;"">
                                <img src=""images/28_Disgust_med_lo_3_Pastel2_ascend_lgsm_dot.png"" width=""480"" height=""420"" style=""object-fit:contain;"">
                            </div>
                        </div>","-199","html-slider-response",138,302714,"0.0-132.0","zqn7kjv1ok",27,"","","","","","",0,"",NA,"","Disgust","images/28_Disgust_med_lo_3_Pastel2_ascend_lgsm_dot.png",NA,NA
NA,"<div style=""width:500px;"">
                            <p style=""font-size:50px; font-weight:bold;""
                            >Disgust</p>
                            <div style=""width:480px; margin: auto;"">
                                <img src=""images/28_Disgust_med_med_3_Paired_ascend_lgsm_dot.png"" width=""480"" height=""420"" style=""object-fit:contain;"">
                            </div>
                        </div>","-199","html-slider-response",139,303797,"0.0-133.0","zqn7kjv1ok",27,"","","","","","",0,"",NA,"","Disgust","images/28_Disgust_med_med_3_Paired_ascend_lgsm_dot.png",NA,NA
NA,"<div style=""width:500px;"">
                            <p style=""font-size:50px; font-weight:bold;""
                            >Disgust</p>
                            <div style=""width:480px; margin: auto;"">
                                <img src=""images/28_Disgust_lo_lo_1_tab20c_ascend_lgsm_dot.png"" width=""480"" height=""420"" style=""object-fit:contain;"">
                            </div>
                        </div>","-199","html-slider-response",140,305347,"0.0-134.0","zqn7kjv1ok",27,"","","","","","",0,"",NA,"","Disgust","images/28_Disgust_lo_lo_1_tab20c_ascend_lgsm_dot.png",NA,NA
NA,"<div style=""width:500px;"">
                            <p style=""font-size:50px; font-weight:bold;""
                            >Disgust</p>
                            <div style=""width:480px; margin: auto;"">
                                <img src=""images/28_Disgust_hi_md_3_tab20_decend_smlg_dot.png"" width=""480"" height=""420"" style=""object-fit:contain;"">
                            </div>
                        </div>","-199","html-slider-response",141,306514,"0.0-135.0","zqn7kjv1ok",27,"","","","","","",0,"",NA,"","Disgust","images/28_Disgust_hi_md_3_tab20_decend_smlg_dot.png",NA,NA
NA,"<div style=""width:500px;"">
                            <p style=""font-size:50px; font-weight:bold;""
                            >Disgust</p>
                            <div style=""width:480px; margin: auto;"">
                                <img src=""images/28_Disgust_med_lo_1_tab20c_decend_smlg_dot.png"" width=""480"" height=""420"" style=""object-fit:contain;"">
                            </div>
                        </div>","-199","html-slider-response",142,307664,"0.0-136.0","zqn7kjv1ok",27,"","","","","","",0,"",NA,"","Disgust","images/28_Disgust_med_lo_1_tab20c_decend_smlg_dot.png",NA,NA
NA,"<div style=""width:500px;"">
                            <p style=""font-size:50px; font-weight:bold;""
                            >Disgust</p>
                            <div style=""width:480px; margin: auto;"">
                                <img src=""images/28_Disgust_hi_hi_3_Dark2_ascend_lgsm_dot.png"" width=""480"" height=""420"" style=""object-fit:contain;"">
                            </div>
                        </div>","-199","html-slider-response",143,308898,"0.0-137.0","zqn7kjv1ok",27,"","","","","","",0,"",NA,"","Disgust","images/28_Disgust_hi_hi_3_Dark2_ascend_lgsm_dot.png",NA,NA
NA,"<div style=""width:500px;"">
                            <p style=""font-size:50px; font-weight:bold;""
                            >Disgust</p>
                            <div style=""width:480px; margin: auto;"">
                                <img src=""images/28_Disgust_med_lo_1_tab20c_ascend_smlg_dot.png"" width=""480"" height=""420"" style=""object-fit:contain;"">
                            </div>
                        </div>","-199","html-slider-response",144,310000,"0.0-138.0","zqn7kjv1ok",27,"","","","","","",0,"",NA,"","Disgust","images/28_Disgust_med_lo_1_tab20c_ascend_smlg_dot.png",NA,NA
NA,"<div style=""width:500px;"">
                            <p style=""font-size:50px; font-weight:bold;""
                            >Disgust</p>
                            <div style=""width:480px; margin: auto;"">
                                <img src=""images/28_Disgust_hi_hi_1_tab20b_decend_lgsm_dot.png"" width=""480"" height=""420"" style=""object-fit:contain;"">
                            </div>
                        </div>","-199","html-slider-response",145,311147,"0.0-139.0","zqn7kjv1ok",27,"","","","","","",0,"",NA,"","Disgust","images/28_Disgust_hi_hi_1_tab20b_decend_lgsm_dot.png",NA,NA
NA,"<div style=""width:500px;"">
                            <p style=""font-size:50px; font-weight:bold;""
                            >Disgust</p>
                            <div style=""width:480px; margin: auto;"">
                                <img src=""images/28_Disgust_med_lo_1_tab20c_decend_lgsm_dot.png"" width=""480"" height=""420"" style=""object-fit:contain;"">
                            </div>
                        </div>","-199","html-slider-response",146,312331,"0.0-140.0","zqn7kjv1ok",27,"","","","","","",0,"",NA,"","Disgust","images/28_Disgust_med_lo_1_tab20c_decend_lgsm_dot.png",NA,NA
NA,"<div style=""width:500px;"">
                            <p style=""font-size:50px; font-weight:bold;""
                            >Disgust</p>
                            <div style=""width:480px; margin: auto;"">
                                <img src=""images/28_Disgust_med_med_1_tab20b_ascend_smlg_dot.png"" width=""480"" height=""420"" style=""object-fit:contain;"">
                            </div>
                        </div>","-199","html-slider-response",147,313780,"0.0-141.0","zqn7kjv1ok",27,"","","","","","",0,"",NA,"","Disgust","images/28_Disgust_med_med_1_tab20b_ascend_smlg_dot.png",NA,NA
NA,"<div style=""width:500px;"">
                            <p style=""font-size:50px; font-weight:bold;""
                            >Disgust</p>
                            <div style=""width:480px; margin: auto;"">
                                <img src=""images/28_Disgust_hi_lo_3_Paired_ascend_lgsm_dot.png"" width=""480"" height=""420"" style=""object-fit:contain;"">
                            </div>
                        </div>","-199","html-slider-response",148,314847,"0.0-142.0","zqn7kjv1ok",27,"","","","","","",0,"",NA,"","Disgust","images/28_Disgust_hi_lo_3_Paired_ascend_lgsm_dot.png",NA,NA
NA,"<div style=""width:500px;"">
                            <p style=""font-size:50px; font-weight:bold;""
                            >Disgust</p>
                            <div style=""width:480px; margin: auto;"">
                                <img src=""images/28_Disgust_med_med_1_tab20b_decend_smlg_dot.png"" width=""480"" height=""420"" style=""object-fit:contain;"">
                            </div>
                        </div>","-199","html-slider-response",149,315964,"0.0-143.0","zqn7kjv1ok",27,"","","","","","",0,"",NA,"","Disgust","images/28_Disgust_med_med_1_tab20b_decend_smlg_dot.png",NA,NA
NA,"<div style=""width:500px;"">
                            <p style=""font-size:50px; font-weight:bold;""
                            >Disgust</p>
                            <div style=""width:480px; margin: auto;"">
                                <img src=""images/28_Disgust_med_med_2_tab20_decend_lgsm_dot.png"" width=""480"" height=""420"" style=""object-fit:contain;"">
                            </div>
                        </div>","-199","html-slider-response",150,317064,"0.0-144.0","zqn7kjv1ok",27,"","","","","","",0,"",NA,"","Disgust","images/28_Disgust_med_med_2_tab20_decend_lgsm_dot.png",NA,NA
NA,"<div style=""width:500px;"">
                            <p style=""font-size:50px; font-weight:bold;""
                            >Disgust</p>
                            <div style=""width:480px; margin: auto;"">
                                <img src=""images/28_Disgust_hi_hi_1_tab20b_decend_smlg_dot.png"" width=""480"" height=""420"" style=""object-fit:contain;"">
                            </div>
                        </div>","-199","html-slider-response",151,318013,"0.0-145.0","zqn7kjv1ok",27,"","","","","","",0,"",NA,"","Disgust","images/28_Disgust_hi_hi_1_tab20b_decend_smlg_dot.png",NA,NA
NA,"<div style=""width:500px;"">
                            <p style=""font-size:50px; font-weight:bold;""
                            >Disgust</p>
                            <div style=""width:480px; margin: auto;"">
                                <img src=""images/28_Disgust_lo_lo_1_tab20c_ascend_smlg_dot.png"" width=""480"" height=""420"" style=""object-fit:contain;"">
                            </div>
                        </div>","-199","html-slider-response",152,319047,"0.0-146.0","zqn7kjv1ok",27,"","","","","","",0,"",NA,"","Disgust","images/28_Disgust_lo_lo_1_tab20c_ascend_smlg_dot.png",NA,NA
NA,"<div style=""width:500px;"">
                            <p style=""font-size:50px; font-weight:bold;""
                            >Disgust</p>
                            <div style=""width:480px; margin: auto;"">
                                <img src=""images/28_Disgust_hi_lo_1_tab20b_ascend_smlg_dot.png"" width=""480"" height=""420"" style=""object-fit:contain;"">
                            </div>
                        </div>","-199","html-slider-response",153,320182,"0.0-147.0","zqn7kjv1ok",27,"","","","","","",0,"",NA,"","Disgust","images/28_Disgust_hi_lo_1_tab20b_ascend_smlg_dot.png",NA,NA
NA,"<div style=""width:500px;"">
                            <p style=""font-size:50px; font-weight:bold;""
                            >Disgust</p>
                            <div style=""width:480px; margin: auto;"">
                                <img src=""images/28_Disgust_hi_hi_2_tab20_decend_lgsm_dot.png"" width=""480"" height=""420"" style=""object-fit:contain;"">
                            </div>
                        </div>","-198","html-slider-response",154,321314,"0.0-148.0","zqn7kjv1ok",27,"","","","","","",0,"",NA,"","Disgust","images/28_Disgust_hi_hi_2_tab20_decend_lgsm_dot.png",NA,NA
NA,"<div style=""width:500px;"">
                            <p style=""font-size:50px; font-weight:bold;""
                            >Disgust</p>
                            <div style=""width:480px; margin: auto;"">
                                <img src=""images/28_Disgust_med_med_2_tab20_ascend_lgsm_dot.png"" width=""480"" height=""420"" style=""object-fit:contain;"">
                            </div>
                        </div>","-198","html-slider-response",155,322366,"0.0-149.0","zqn7kjv1ok",27,"","","","","","",0,"",NA,"","Disgust","images/28_Disgust_med_med_2_tab20_ascend_lgsm_dot.png",NA,NA
NA,"<div style=""width:500px;"">
                            <p style=""font-size:50px; font-weight:bold;""
                            >Disgust</p>
                            <div style=""width:480px; margin: auto;"">
                                <img src=""images/28_Disgust_med_lo_2_tab20_decend_smlg_dot.png"" width=""480"" height=""420"" style=""object-fit:contain;"">
                            </div>
                        </div>","-198","html-slider-response",156,323430,"0.0-150.0","zqn7kjv1ok",27,"","","","","","",0,"",NA,"","Disgust","images/28_Disgust_med_lo_2_tab20_decend_smlg_dot.png",NA,NA
NA,"<div style=""width:500px;"">
                            <p style=""font-size:50px; font-weight:bold;""
                            >Disgust</p>
                            <div style=""width:480px; margin: auto;"">
                                <img src=""images/28_Disgust_lo_lo_3_tab20_ascend_lgsm_dot.png"" width=""480"" height=""420"" style=""object-fit:contain;"">
                            </div>
                        </div>","-198","html-slider-response",157,324664,"0.0-151.0","zqn7kjv1ok",27,"","","","","","",0,"",NA,"","Disgust","images/28_Disgust_lo_lo_3_tab20_ascend_lgsm_dot.png",NA,NA
NA,"<div style=""width:500px;"">
                            <p style=""font-size:50px; font-weight:bold;""
                            >Disgust</p>
                            <div style=""width:480px; margin: auto;"">
                                <img src=""images/28_Disgust_hi_md_3_tab20_ascend_lgsm_dot.png"" width=""480"" height=""420"" style=""object-fit:contain;"">
                            </div>
                        </div>","-198","html-slider-response",158,325765,"0.0-152.0","zqn7kjv1ok",27,"","","","","","",0,"",NA,"","Disgust","images/28_Disgust_hi_md_3_tab20_ascend_lgsm_dot.png",NA,NA
NA,"<div style=""width:500px;"">
                            <p style=""font-size:50px; font-weight:bold;""
                            >Disgust</p>
                            <div style=""width:480px; margin: auto;"">
                                <img src=""images/28_Disgust_hi_hi_2_tab20_ascend_smlg_dot.png"" width=""480"" height=""420"" style=""object-fit:contain;"">
                            </div>
                        </div>","-198","html-slider-response",159,326881,"0.0-153.0","zqn7kjv1ok",27,"","","","","","",0,"",NA,"","Disgust","images/28_Disgust_hi_hi_2_tab20_ascend_smlg_dot.png",NA,NA
NA,"<div style=""width:500px;"">
                            <p style=""font-size:50px; font-weight:bold;""
                            >Disgust</p>
                            <div style=""width:480px; margin: auto;"">
                                <img src=""images/28_Disgust_med_med_2_tab20_decend_smlg_dot.png"" width=""480"" height=""420"" style=""object-fit:contain;"">
                            </div>
                        </div>","-198","html-slider-response",160,327897,"0.0-154.0","zqn7kjv1ok",27,"","","","","","",0,"",NA,"","Disgust","images/28_Disgust_med_med_2_tab20_decend_smlg_dot.png",NA,NA
NA,"<div style=""width:500px;"">
                            <p style=""font-size:50px; font-weight:bold;""
                            >Disgust</p>
                            <div style=""width:480px; margin: auto;"">
                                <img src=""images/28_Disgust_med_lo_1_tab20c_ascend_lgsm_dot.png"" width=""480"" height=""420"" style=""object-fit:contain;"">
                            </div>
                        </div>","-198","html-slider-response",161,328964,"0.0-155.0","zqn7kjv1ok",27,"","","","","","",0,"",NA,"","Disgust","images/28_Disgust_med_lo_1_tab20c_ascend_lgsm_dot.png",NA,NA
NA,"<div style=""width:500px;"">
                            <p style=""font-size:50px; font-weight:bold;""
                            >Disgust</p>
                            <div style=""width:480px; margin: auto;"">
                                <img src=""images/28_Disgust_hi_md_2_Dark2_decend_lgsm_dot.png"" width=""480"" height=""420"" style=""object-fit:contain;"">
                            </div>
                        </div>","-198","html-slider-response",162,329880,"0.0-156.0","zqn7kjv1ok",27,"","","","","","",0,"",NA,"","Disgust","images/28_Disgust_hi_md_2_Dark2_decend_lgsm_dot.png",NA,NA
NA,"<div style=""width:500px;"">
                            <p style=""font-size:50px; font-weight:bold;""
                            >Disgust</p>
                            <div style=""width:480px; margin: auto;"">
                                <img src=""images/28_Disgust_med_lo_2_tab20_ascend_smlg_dot.png"" width=""480"" height=""420"" style=""object-fit:contain;"">
                            </div>
                        </div>","-198","html-slider-response",163,330914,"0.0-157.0","zqn7kjv1ok",27,"","","","","","",0,"",NA,"","Disgust","images/28_Disgust_med_lo_2_tab20_ascend_smlg_dot.png",NA,NA
NA,"<div style=""width:500px;"">
                            <p style=""font-size:50px; font-weight:bold;""
                            >Disgust</p>
                            <div style=""width:480px; margin: auto;"">
                                <img src=""images/28_Disgust_med_med_3_Paired_ascend_smlg_dot.png"" width=""480"" height=""420"" style=""object-fit:contain;"">
                            </div>
                        </div>","-198","html-slider-response",164,331929,"0.0-158.0","zqn7kjv1ok",27,"","","","","","",0,"",NA,"","Disgust","images/28_Disgust_med_med_3_Paired_ascend_smlg_dot.png",NA,NA
NA,"<div style=""width:500px;"">
                            <p style=""font-size:50px; font-weight:bold;""
                            >Disgust</p>
                            <div style=""width:480px; margin: auto;"">
                                <img src=""images/28_Disgust_hi_lo_3_Paired_ascend_smlg_dot.png"" width=""480"" height=""420"" style=""object-fit:contain;"">
                            </div>
                        </div>","-198","html-slider-response",165,332898,"0.0-159.0","zqn7kjv1ok",27,"","","","","","",0,"",NA,"","Disgust","images/28_Disgust_hi_lo_3_Paired_ascend_smlg_dot.png",NA,NA
2419,"<p>Great Job! You've finished block 2.<br></br> You have 3 block(s) left to go.<br></br></p>","0","html-button-response",166,335820,"0.0-160.0","zqn7kjv1ok",27,"","","","","","",NA,"",NA,"","","",NA,NA
965,"<p>In this block of trials, you will be asked to rate how much you associate each texture with the concept</p >
                        <p style = 'font-size:150%; font-weight: bold'>Happy</p><br></br>","0","html-button-response",167,336786,"0.0-161.0","zqn7kjv1ok",27,"","","","","","",NA,"",NA,"","","",NA,NA
NA,"<div style=""width:500px;"">
