"success","timeout","failed_images","failed_audio","failed_video","trial_type","trial_index","time_elapsed","internal_node_id","subject_id","condition_num","rt","stimulus","response","question_order","slider_start","practiceTrial","practiceTrialNum","correct","image_path","concept","repetition","map_id","map_num","scale_name","orientation_code","mapping_code","rotation_code","ishihara_plate","correct_response"
"true","false","[]","[]","[]","preload","0","614","0.0-0.0","0bg0dd79wq","12","","","","","","","","","","","","","","","","","","",""
"","","","","","html-button-response","1","1747","0.0-1.0","0bg0dd79wq","12","1130","Welcome to our experiment!<p>At the bottom of this screen, you will see a button that says ""Begin Experiment"".<br>Please only click that button when you are ready to complete the 30 minute experiment in one sitting.</p><p> Once you click that button, it will not be possible to restart the experiment.","0","","","","","","","","","","","","","","","",""
"true","","","","","fullscreen","2","4316","0.0-2.0","0bg0dd79wq","12","1565","","","","","","","","","","","","","","","","","",""
"","","","","","survey-multi-select","3","18449","0.0-3.0","0bg0dd79wq","12","14129","","{""Consent"":[""<strong>I consent</strong>""]}","[0]","","","","","","","","","","","","","","",""
"","","","","","html-button-response","4","19530","0.0-4.0","0bg0dd79wq","12","1079","Welcome! <p> This experiment involves two parts: demographic information, followed by the experimental task.<p> It will take about 30 minutes to complete both parts.","0","","","","","","","","","","","","","","","",""
"","","","","","survey-text","5","35280","0.0-5.0","0bg0dd79wq","12","15737","","{""Age"":""19"",""Gender"":""Male"",""Race/ethnicity"":""Middle Eastern"",""Languages"":""English, Hebrew""}","","","","","","","","","","","","","","","",""
"","","","","","html-slider-response","6","53046","0.0-6.0","0bg0dd79wq","12","17764","<div style='text-align:left; font-size:20px; line-height:25px; width: 1000px;'>
                                During this experiment you will be asked to rate how much you associate maps with                    different concepts.<br> Below, you can see some examples of the maps you will be asked to rate. Above the maps
                    is the list of concepts.<br>You will be asked                    to rate how much you associate each map with each concept on a scale from 'not at all' to 'very much' like the
                    one below. <br><br>
                    Now, please look at the list of concepts and maps. For each concept, think about the map you associate 'very
                    much' with the concept.<br>                     When you see that map during the experiment, please rate it near the 'very much' endpoint of the
                    scale.<br>Now, please think about which map you associate 'not at all'                     with each concept. When you see that map during the experiment, please rate it near the 'not at all' endpoint
                    of the scale.<br>
                    Please use the full range of the scale. That is, if a map is somewhat associated with the concept, you would
                    click partway between the middle point and right side of the scale.                    You will be asked to rate each map for a given concept before moving on to the next concept.<br>Press the
                    'Continue' button for instructions on how to use the slider.                    <br>
                </div>

                <div style=""width: 500px; margin: 0 auto;"">
                    <!-- Centered text paragraphs -->
                    <div style=""text-align: center; width: 500px;"">
                        <p style=""font-size:25px; line-height:15px;"">
                            disgust&nbsp;&nbsp;&nbsp;&nbsp;
                            angry&nbsp;&nbsp;&nbsp;&nbsp;
                            sad&nbsp;&nbsp;&nbsp;&nbsp;
                            fearful&nbsp;&nbsp;&nbsp;&nbsp;
                            happy
                        </p>
                        <!-- <p style=""font-size:20px; line-height:15px;"">angry</p>
                        <p style=""font-size:20px;line-height:15px;"">sad</p>
                        <p style=""font-size:20px;line-height:15px;"">fearful</p>
                        <p style=""font-size:20px;line-height:15px;"">happy</p> -->
                    </div>
            

                    <!-- Grid section -->
                   <div style=""display: flex; justify-content: center; padding-top: 15px;"">
                    <div style=""display: grid; grid-template-columns: repeat(10, 55px); grid-gap: 5px; width: auto;"">
                        <img src=""images/map02_seismic_scaleDef_orientDef_000.png"" alt=""map"" style=""width: 100%;""><img src=""images/map23_PiYG_scaleRev_orientDef_270.png"" alt=""map"" style=""width: 100%;""><img src=""images/map13_BuPu_scaleDef_orientMir_000.png"" alt=""map"" style=""width: 100%;""><img src=""images/map23_PRGn_scaleDef_orientMir_000.png"" alt=""map"" style=""width: 100%;""><img src=""images/map15_PuBu_scaleDef_orientDef_000.png"" alt=""map"" style=""width: 100%;""><img src=""images/map05_viridis_scaleDef_orientMir_000.png"" alt=""map"" style=""width: 100%;""><img src=""images/map07_Greys_scaleDef_orientMir_180.png"" alt=""map"" style=""width: 100%;""><img src=""images/map26_PuOr_scaleRev_orientDef_090.png"" alt=""map"" style=""width: 100%;""><img src=""images/map10_Oranges_scaleDef_orientMir_180.png"" alt=""map"" style=""width: 100%;""><img src=""images/map12_YlOrRd_scaleRev_orientMir_090.png"" alt=""map"" style=""width: 100%;""><img src=""images/map02_berlin_scaleDef_orientDef_180.png"" alt=""map"" style=""width: 100%;""><img src=""images/map05_turbo_scaleRev_orientDef_270.png"" alt=""map"" style=""width: 100%;""><img src=""images/map10_Greens_scaleDef_orientMir_000.png"" alt=""map"" style=""width: 100%;""><img src=""images/map02_managua_scaleDef_orientMir_000.png"" alt=""map"" style=""width: 100%;""><img src=""images/map05_gist_earth_scaleRev_orientDef_090.png"" alt=""map"" style=""width: 100%;""><img src=""images/map26_RdGy_scaleRev_orientDef_270.png"" alt=""map"" style=""width: 100%;""><img src=""images/map12_YlOrBr_scaleDef_orientDef_180.png"" alt=""map"" style=""width: 100%;""><img src=""images/map26_RdYlBu_scaleRev_orientMir_270.png"" alt=""map"" style=""width: 100%;""><img src=""images/map07_inferno_scaleDef_orientDef_000.png"" alt=""map"" style=""width: 100%;""><img src=""images/map26_RdBu_scaleDef_orientMir_000.png"" alt=""map"" style=""width: 100%;""><img src=""images/map27_Spectral_scaleDef_orientDef_180.png"" alt=""map"" style=""width: 100%;""><img src=""images/map15_BuGn_scaleDef_orientMir_180.png"" alt=""map"" style=""width: 100%;""><img src=""images/map02_vanimo_scaleDef_orientMir_180.png"" alt=""map"" style=""width: 100%;""><img src=""images/map10_Purples_scaleDef_orientDef_000.png"" alt=""map"" style=""width: 100%;""><img src=""images/map27_RdYlGn_scaleDef_orientDef_000.png"" alt=""map"" style=""width: 100%;""><img src=""images/map15_YlGnBu_scaleRev_orientDef_270.png"" alt=""map"" style=""width: 100%;""><img src=""images/map12_Reds_scaleRev_orientDef_090.png"" alt=""map"" style=""width: 100%;""><img src=""images/map23_YlGn_scaleDef_orientDef_000.png"" alt=""map"" style=""width: 100%;""><img src=""images/map27_bwr_scaleDef_orientMir_180.png"" alt=""map"" style=""width: 100%;""><img src=""images/map13_RdPu_scaleDef_orientDef_180.png"" alt=""map"" style=""width: 100%;""><img src=""images/map27_coolwarm_scaleRev_orientMir_090.png"" alt=""map"" style=""width: 100%;""><img src=""images/map13_GnBu_scaleDef_orientMir_180.png"" alt=""map"" style=""width: 100%;""><img src=""images/map15_PuBuGn_scaleDef_orientMir_000.png"" alt=""map"" style=""width: 100%;""><img src=""images/map12_OrRd_scaleDef_orientMir_180.png"" alt=""map"" style=""width: 100%;""><img src=""images/map07_cividis_scaleRev_orientMir_090.png"" alt=""map"" style=""width: 100%;""><img src=""images/map10_Blues_scaleDef_orientDef_180.png"" alt=""map"" style=""width: 100%;""><img src=""images/map05_plasma_scaleRev_orientMir_270.png"" alt=""map"" style=""width: 100%;""><img src=""images/map23_BrBG_scaleRev_orientMir_270.png"" alt=""map"" style=""width: 100%;""><img src=""images/map07_magma_scaleDef_orientDef_180.png"" alt=""map"" style=""width: 100%;""><img src=""images/map13_PuRd_scaleDef_orientDef_000.png"" alt=""map"" style=""width: 100%;"">
                    </div>
                </div>

                    <!-- Clear floats -->
                    <div style=""clear: both;""></div>
                </div>
                            ","-6","","0","true","","","","","","","","","","","","",""
"","","","","","html-button-response","7","54446","0.0-7.0","0bg0dd79wq","12","1398","<div style=""width:800px;""><p style=""text-align:left"">To move the slider, click and drag your cursor to the location of the scale where you would like to make your rating and then let go. When you let go of the slider, your response will be recorded and the next trial will begin. <br>
                    We are interested in your initial impressions of each map for the given concept, so please go with your first intuition. <br>
                    Before you begin the experiment, there will be four training trials for you to practice using the scale. <br>
                     When you are ready to start the training trials, please click ""Continue"".</p><br></div>","0","","","","","","","","","","","","","","","",""
"","","","","","html-slider-response","8","57742","0.0-8.0-0.0","0bg0dd79wq","12","NaN","<div style=""width:500px;"">
                                    <p style=""font-size:25px;"">Please move the slider all the way to the <br> right endpoint of the scale</p>

                                    </div>
                                </div>","200","","0","true","0","true","","","","","","","","","","",""
"","","","","","html-button-response","9","59147","0.0-8.0-1.0","0bg0dd79wq","12","901","<p align='center'><b>Good job!</b> Click on 'Continue' to proceed.</p>","0","","","","","","","","","","","","","","","",""
"","","","","","html-slider-response","10","60690","0.0-9.0-0.0","0bg0dd79wq","12","NaN","<div style=""width:500px;"">
                                    <p style=""font-size:25px;"">Please move the slider all the way to the <br> left endpoint of the scale</p>

                                    </div>
                                </div>","-200","","0","true","1","true","","","","","","","","","","",""
"","","","","","html-button-response","11","62129","0.0-9.0-1.0","0bg0dd79wq","12","936","<p align='center'><b>Good job!</b> Click on 'Continue' to proceed.</p>","0","","","","","","","","","","","","","","","",""
"","","","","","html-slider-response","12","65041","0.0-10.0-0.0","0bg0dd79wq","12","NaN","<div style=""width:500px;"">
                                    <p style=""font-size:25px;"">Please move the slider halfway between the center and right endpoint of the scale</p>

                                    </div>
                                </div>","103","","0","true","2","true","","","","","","","","","","",""
"","","","","","html-button-response","13","65963","0.0-10.0-1.0","0bg0dd79wq","12","420","<p align='center'><b>Good job!</b> Click on 'Continue' to proceed.</p>","0","","","","","","","","","","","","","","","",""
"","","","","","html-slider-response","14","67974","0.0-11.0-0.0","0bg0dd79wq","12","NaN","<div style=""width:500px;"">
                                    <p style=""font-size:25px;"">Please move the slider halfway between the center and left endpoint of the scale</p>

                                    </div>
                                </div>","-107","","0","true","3","true","","","","","","","","","","",""
"","","","","","html-button-response","15","68945","0.0-11.0-1.0","0bg0dd79wq","12","469","<p align='center'><b>Good job!</b> Click on 'Continue' to proceed.</p>","0","","","","","","","","","","","","","","","",""
"","","","","","html-button-response","16","69879","0.0-12.0","0bg0dd79wq","12","933","<p>Great job! You've completed the practice trials. Now you will begin the main task.</p>","0","","","","","","","","","","","","","","","",""
"","","","","","html-button-response","17","73912","0.0-13.0","0bg0dd79wq","12","4032","<p>In this block of trials, you will be asked to rate how much you associate each map with:</p > <p style = 'font-size:150%; font-weight: bold'>disgust</p><br></br>","0","","","","","","","","","","","","","","","",""
"","","","","","html-slider-response","18","75557","0.0-14.0","0bg0dd79wq","12","NaN","<div style=""width:500px;"">
                            <p style=""font-size:50px; font-weight:bold;""
                            >disgust</p>
                            <div style=""width:240px; margin: auto;"">
                                <img src=""images/map23_PRGn_scaleRev_orientMir_090.png"" style= ""width:200px""alt=""img"">
                            </div>
                        </div>","183","","0","","","","images/map23_PRGn_scaleRev_orientMir_090.png","disgust","1","23","23","PRGn","orientMir","scaleRev","090","",""
"","","","","","html-slider-response","19","77525","0.0-15.0","0bg0dd79wq","12","NaN","<div style=""width:500px;"">
                            <p style=""font-size:50px; font-weight:bold;""
                            >disgust</p>
                            <div style=""width:240px; margin: auto;"">
                                <img src=""images/map07_inferno_scaleRev_orientDef_090.png"" style= ""width:200px""alt=""img"">
                            </div>
                        </div>","122","","0","","","","images/map07_inferno_scaleRev_orientDef_090.png","disgust","1","07","07","inferno","orientDef","scaleRev","090","",""
"","","","","","html-slider-response","20","79225","0.0-16.0","0bg0dd79wq","12","NaN","<div style=""width:500px;"">
                            <p style=""font-size:50px; font-weight:bold;""
                            >disgust</p>
                            <div style=""width:240px; margin: auto;"">
                                <img src=""images/map15_PuBu_scaleRev_orientDef_090.png"" style= ""width:200px""alt=""img"">
                            </div>
                        </div>","-114","","0","","","","images/map15_PuBu_scaleRev_orientDef_090.png","disgust","1","15","15","PuBu","orientDef","scaleRev","090","",""
"","","","","","html-slider-response","21","82241","0.0-17.0","0bg0dd79wq","12","NaN","<div style=""width:500px;"">
                            <p style=""font-size:50px; font-weight:bold;""
                            >disgust</p>
                            <div style=""width:240px; margin: auto;"">
                                <img src=""images/map02_managua_scaleRev_orientMir_090.png"" style= ""width:200px""alt=""img"">
                            </div>
                        </div>","-51","","0","","","","images/map02_managua_scaleRev_orientMir_090.png","disgust","1","02","02","managua","orientMir","scaleRev","090","",""
"","","","","","html-slider-response","22","84225","0.0-18.0","0bg0dd79wq","12","NaN","<div style=""width:500px;"">
                            <p style=""font-size:50px; font-weight:bold;""
                            >disgust</p>
                            <div style=""width:240px; margin: auto;"">
                                <img src=""images/map27_bwr_scaleDef_orientMir_180.png"" style= ""width:200px""alt=""img"">
                            </div>
                        </div>","-134","","0","","","","images/map27_bwr_scaleDef_orientMir_180.png","disgust","1","27","27","bwr","orientMir","scaleDef","180","",""
"","","","","","html-slider-response","23","86090","0.0-19.0","0bg0dd79wq","12","NaN","<div style=""width:500px;"">
                            <p style=""font-size:50px; font-weight:bold;""
                            >disgust</p>
                            <div style=""width:240px; margin: auto;"">
                                <img src=""images/map07_inferno_scaleDef_orientDef_000.png"" style= ""width:200px""alt=""img"">
                            </div>
                        </div>","-106","","0","","","","images/map07_inferno_scaleDef_orientDef_000.png","disgust","1","07","07","inferno","orientDef","scaleDef","000","",""
"","","","","","html-slider-response","24","87758","0.0-20.0","0bg0dd79wq","12","NaN","<div style=""width:500px;"">
                            <p style=""font-size:50px; font-weight:bold;""
                            >disgust</p>
                            <div style=""width:240px; margin: auto;"">
                                <img src=""images/map26_RdGy_scaleDef_orientDef_180.png"" style= ""width:200px""alt=""img"">
                            </div>
                        </div>","129","","0","","","","images/map26_RdGy_scaleDef_orientDef_180.png","disgust","1","26","26","RdGy","orientDef","scaleDef","180","",""
"","","","","","html-slider-response","25","89607","0.0-21.0","0bg0dd79wq","12","NaN","<div style=""width:500px;"">
                            <p style=""font-size:50px; font-weight:bold;""
                            >disgust</p>
                            <div style=""width:240px; margin: auto;"">
                                <img src=""images/map15_YlGnBu_scaleRev_orientDef_270.png"" style= ""width:200px""alt=""img"">
                            </div>
                        </div>","-145","","0","","","","images/map15_YlGnBu_scaleRev_orientDef_270.png","disgust","1","15","15","YlGnBu","orientDef","scaleRev","270","",""
"","","","","","html-slider-response","26","91690","0.0-22.0","0bg0dd79wq","12","NaN","<div style=""width:500px;"">
                            <p style=""font-size:50px; font-weight:bold;""
                            >disgust</p>
                            <div style=""width:240px; margin: auto;"">
                                <img src=""images/map05_turbo_scaleDef_orientDef_180.png"" style= ""width:200px""alt=""img"">
                            </div>
                        </div>","-30","","0","","","","images/map05_turbo_scaleDef_orientDef_180.png","disgust","1","05","05","turbo","orientDef","scaleDef","180","",""
"","","","","","html-slider-response","27","93274","0.0-23.0","0bg0dd79wq","12","NaN","<div style=""width:500px;"">
                            <p style=""font-size:50px; font-weight:bold;""
                            >disgust</p>
                            <div style=""width:240px; margin: auto;"">
                                <img src=""images/map27_Spectral_scaleRev_orientDef_270.png"" style= ""width:200px""alt=""img"">
                            </div>
                        </div>","58","","0","","","","images/map27_Spectral_scaleRev_orientDef_270.png","disgust","1","27","27","Spectral","orientDef","scaleRev","270","",""
"","","","","","html-slider-response","28","95124","0.0-24.0","0bg0dd79wq","12","NaN","<div style=""width:500px;"">
                            <p style=""font-size:50px; font-weight:bold;""
                            >disgust</p>
                            <div style=""width:240px; margin: auto;"">
                                <img src=""images/map05_viridis_scaleDef_orientMir_000.png"" style= ""width:200px""alt=""img"">
                            </div>
                        </div>","79","","0","","","","images/map05_viridis_scaleDef_orientMir_000.png","disgust","1","05","05","viridis","orientMir","scaleDef","000","",""
"","","","","","html-slider-response","29","96939","0.0-25.0","0bg0dd79wq","12","NaN","<div style=""width:500px;"">
                            <p style=""font-size:50px; font-weight:bold;""
                            >disgust</p>
                            <div style=""width:240px; margin: auto;"">
                                <img src=""images/map02_managua_scaleDef_orientMir_000.png"" style= ""width:200px""alt=""img"">
                            </div>
                        </div>","-67","","0","","","","images/map02_managua_scaleDef_orientMir_000.png","disgust","1","02","02","managua","orientMir","scaleDef","000","",""
"","","","","","html-slider-response","30","99675","0.0-26.0","0bg0dd79wq","12","NaN","<div style=""width:500px;"">
                            <p style=""font-size:50px; font-weight:bold;""
                            >disgust</p>
                            <div style=""width:240px; margin: auto;"">
                                <img src=""images/map27_RdYlGn_scaleRev_orientDef_090.png"" style= ""width:200px""alt=""img"">
                            </div>
                        </div>","70","","0","","","","images/map27_RdYlGn_scaleRev_orientDef_090.png","disgust","1","27","27","RdYlGn","orientDef","scaleRev","090","",""
"","","","","","html-slider-response","31","102074","0.0-27.0","0bg0dd79wq","12","NaN","<div style=""width:500px;"">
                            <p style=""font-size:50px; font-weight:bold;""
                            >disgust</p>
                            <div style=""width:240px; margin: auto;"">
                                <img src=""images/map15_PuBuGn_scaleRev_orientMir_090.png"" style= ""width:200px""alt=""img"">
                            </div>
                        </div>","74","","0","","","","images/map15_PuBuGn_scaleRev_orientMir_090.png","disgust","1","15","15","PuBuGn","orientMir","scaleRev","090","",""
"","","","","","html-slider-response","32","103824","0.0-28.0","0bg0dd79wq","12","NaN","<div style=""width:500px;"">
                            <p style=""font-size:50px; font-weight:bold;""
                            >disgust</p>
                            <div style=""width:240px; margin: auto;"">
                                <img src=""images/map07_Greys_scaleDef_orientMir_180.png"" style= ""width:200px""alt=""img"">
                            </div>
                        </div>","51","","0","","","","images/map07_Greys_scaleDef_orientMir_180.png","disgust","1","07","07","Greys","orientMir","scaleDef","180","",""
"","","","","","html-slider-response","33","106457","0.0-29.0","0bg0dd79wq","12","NaN","<div style=""width:500px;"">
                            <p style=""font-size:50px; font-weight:bold;""
                            >disgust</p>
                            <div style=""width:240px; margin: auto;"">
                                <img src=""images/map07_cividis_scaleRev_orientMir_090.png"" style= ""width:200px""alt=""img"">
                            </div>
                        </div>","-85","","0","","","","images/map07_cividis_scaleRev_orientMir_090.png","disgust","1","07","07","cividis","orientMir","scaleRev","090","",""
"","","","","","html-slider-response","34","108758","0.0-30.0","0bg0dd79wq","12","NaN","<div style=""width:500px;"">
                            <p style=""font-size:50px; font-weight:bold;""
                            >disgust</p>
                            <div style=""width:240px; margin: auto;"">
                                <img src=""images/map15_PuBuGn_scaleDef_orientMir_000.png"" style= ""width:200px""alt=""img"">
                            </div>
                        </div>","135","","0","","","","images/map15_PuBuGn_scaleDef_orientMir_000.png","disgust","1","15","15","PuBuGn","orientMir","scaleDef","000","",""
"","","","","","html-slider-response","35","110641","0.0-31.0","0bg0dd79wq","12","NaN","<div style=""width:500px;"">
                            <p style=""font-size:50px; font-weight:bold;""
                            >disgust</p>
                            <div style=""width:240px; margin: auto;"">
                                <img src=""images/map27_Spectral_scaleDef_orientDef_180.png"" style= ""width:200px""alt=""img"">
                            </div>
                        </div>","-97","","0","","","","images/map27_Spectral_scaleDef_orientDef_180.png","disgust","1","27","27","Spectral","orientDef","scaleDef","180","",""
"","","","","","html-slider-response","36","113043","0.0-32.0","0bg0dd79wq","12","NaN","<div style=""width:500px;"">
                            <p style=""font-size:50px; font-weight:bold;""
                            >disgust</p>
                            <div style=""width:240px; margin: auto;"">
                                <img src=""images/map07_cividis_scaleDef_orientMir_000.png"" style= ""width:200px""alt=""img"">
                            </div>
                        </div>","-71","","0","","","","images/map07_cividis_scaleDef_orientMir_000.png","disgust","1","07","07","cividis","orientMir","scaleDef","000","",""
"","","","","","html-slider-response","37","114741","0.0-33.0","0bg0dd79wq","12","NaN","<div style=""width:500px;"">
                            <p style=""font-size:50px; font-weight:bold;""
                            >disgust</p>
                            <div style=""width:240px; margin: auto;"">
                                <img src=""images/map10_Greens_scaleRev_orientMir_090.png"" style= ""width:200px""alt=""img"">
                            </div>
                        </div>","88","","0","","","","images/map10_Greens_scaleRev_orientMir_090.png","disgust","1","10","10","Greens","orientMir","scaleRev","090","",""
"","","","","","html-slider-response","38","116806","0.0-34.0","0bg0dd79wq","12","NaN","<div style=""width:500px;"">
                            <p style=""font-size:50px; font-weight:bold;""
                            >disgust</p>
                            <div style=""width:240px; margin: auto;"">
                                <img src=""images/map10_Oranges_scaleRev_orientMir_270.png"" style= ""width:200px""alt=""img"">
                            </div>
                        </div>","-93","","0","","","","images/map10_Oranges_scaleRev_orientMir_270.png","disgust","1","10","10","Oranges","orientMir","scaleRev","270","",""
"","","","","","html-slider-response","39","118856","0.0-35.0","0bg0dd79wq","12","NaN","<div style=""width:500px;"">
                            <p style=""font-size:50px; font-weight:bold;""
                            >disgust</p>
                            <div style=""width:240px; margin: auto;"">
                                <img src=""images/map15_YlGnBu_scaleDef_orientDef_180.png"" style= ""width:200px""alt=""img"">
                            </div>
                        </div>","-72","","0","","","","images/map15_YlGnBu_scaleDef_orientDef_180.png","disgust","1","15","15","YlGnBu","orientDef","scaleDef","180","",""
"","","","","","html-slider-response","40","120591","0.0-36.0","0bg0dd79wq","12","NaN","<div style=""width:500px;"">
                            <p style=""font-size:50px; font-weight:bold;""
                            >disgust</p>
                            <div style=""width:240px; margin: auto;"">
                                <img src=""images/map13_GnBu_scaleRev_orientMir_270.png"" style= ""width:200px""alt=""img"">
                            </div>
                        </div>","78","","0","","","","images/map13_GnBu_scaleRev_orientMir_270.png","disgust","1","13","13","GnBu","orientMir","scaleRev","270","",""
"","","","","","html-slider-response","41","122092","0.0-37.0","0bg0dd79wq","12","NaN","<div style=""width:500px;"">
                            <p style=""font-size:50px; font-weight:bold;""
                            >disgust</p>
                            <div style=""width:240px; margin: auto;"">
                                <img src=""images/map12_YlOrRd_scaleDef_orientMir_000.png"" style= ""width:200px""alt=""img"">
                            </div>
                        </div>","106","","0","","","","images/map12_YlOrRd_scaleDef_orientMir_000.png","disgust","1","12","12","YlOrRd","orientMir","scaleDef","000","",""
"","","","","","html-slider-response","42","124123","0.0-38.0","0bg0dd79wq","12","NaN","<div style=""width:500px;"">
                            <p style=""font-size:50px; font-weight:bold;""
                            >disgust</p>
                            <div style=""width:240px; margin: auto;"">
                                <img src=""images/map23_PiYG_scaleRev_orientDef_270.png"" style= ""width:200px""alt=""img"">
                            </div>
                        </div>","162","","0","","","","images/map23_PiYG_scaleRev_orientDef_270.png","disgust","1","23","23","PiYG","orientDef","scaleRev","270","",""
"","","","","","html-slider-response","43","125908","0.0-39.0","0bg0dd79wq","12","NaN","<div style=""width:500px;"">
                            <p style=""font-size:50px; font-weight:bold;""
                            >disgust</p>
                            <div style=""width:240px; margin: auto;"">
                                <img src=""images/map23_BrBG_scaleDef_orientMir_180.png"" style= ""width:200px""alt=""img"">
                            </div>
                        </div>","36","","0","","","","images/map23_BrBG_scaleDef_orientMir_180.png","disgust","1","23","23","BrBG","orientMir","scaleDef","180","",""
"","","","","","html-slider-response","44","127608","0.0-40.0","0bg0dd79wq","12","NaN","<div style=""width:500px;"">
                            <p style=""font-size:50px; font-weight:bold;""
                            >disgust</p>
                            <div style=""width:240px; margin: auto;"">
                                <img src=""images/map13_RdPu_scaleRev_orientDef_270.png"" style= ""width:200px""alt=""img"">
                            </div>
                        </div>","-30","","0","","","","images/map13_RdPu_scaleRev_orientDef_270.png","disgust","1","13","13","RdPu","orientDef","scaleRev","270","",""
"","","","","","html-slider-response","45","128957","0.0-41.0","0bg0dd79wq","12","NaN","<div style=""width:500px;"">
                            <p style=""font-size:50px; font-weight:bold;""
                            >disgust</p>
                            <div style=""width:240px; margin: auto;"">
                                <img src=""images/map12_OrRd_scaleDef_orientMir_180.png"" style= ""width:200px""alt=""img"">
                            </div>
                        </div>","-51","","0","","","","images/map12_OrRd_scaleDef_orientMir_180.png","disgust","1","12","12","OrRd","orientMir","scaleDef","180","",""
"","","","","","html-slider-response","46","130540","0.0-42.0","0bg0dd79wq","12","NaN","<div style=""width:500px;"">
                            <p style=""font-size:50px; font-weight:bold;""
                            >disgust</p>
                            <div style=""width:240px; margin: auto;"">
                                <img src=""images/map13_BuPu_scaleRev_orientMir_090.png"" style= ""width:200px""alt=""img"">
                            </div>
                        </div>","-111","","0","","","","images/map13_BuPu_scaleRev_orientMir_090.png","disgust","1","13","13","BuPu","orientMir","scaleRev","090","",""
"","","","","","html-slider-response","47","132108","0.0-43.0","0bg0dd79wq","12","NaN","<div style=""width:500px;"">
                            <p style=""font-size:50px; font-weight:bold;""
                            >disgust</p>
                            <div style=""width:240px; margin: auto;"">
                                <img src=""images/map05_gist_earth_scaleDef_orientDef_000.png"" style= ""width:200px""alt=""img"">
                            </div>
                        </div>","87","","0","","","","images/map05_gist_earth_scaleDef_orientDef_000.png","disgust","1","05","05","gist","scaleDef","earth","orientDef","",""
"","","","","","html-slider-response","48","133042","0.0-44.0","0bg0dd79wq","12","NaN","<div style=""width:500px;"">
                            <p style=""font-size:50px; font-weight:bold;""
                            >disgust</p>
                            <div style=""width:240px; margin: auto;"">
                                <img src=""images/map27_bwr_scaleRev_orientMir_270.png"" style= ""width:200px""alt=""img"">
                            </div>
                        </div>","103","","0","","","","images/map27_bwr_scaleRev_orientMir_270.png","disgust","1","27","27","bwr","orientMir","scaleRev","270","",""
"","","","","","html-slider-response","49","134741","0.0-45.0","0bg0dd79wq","12","NaN","<div style=""width:500px;"">
                            <p style=""font-size:50px; font-weight:bold;""
                            >disgust</p>
                            <div style=""width:240px; margin: auto;"">
                                <img src=""images/map12_YlOrBr_scaleDef_orientDef_180.png"" style= ""width:200px""alt=""img"">
                            </div>
                        </div>","37","","0","","","","images/map12_YlOrBr_scaleDef_orientDef_180.png","disgust","1","12","12","YlOrBr","orientDef","scaleDef","180","",""
"","","","","","html-slider-response","50","136476","0.0-46.0","0bg0dd79wq","12","NaN","<div style=""width:500px;"">
                            <p style=""font-size:50px; font-weight:bold;""
                            >disgust</p>
                            <div style=""width:240px; margin: auto;"">
                                <img src=""images/map23_PRGn_scaleDef_orientMir_000.png"" style= ""width:200px""alt=""img"">
                            </div>
                        </div>","152","","0","","","","images/map23_PRGn_scaleDef_orientMir_000.png","disgust","1","23","23","PRGn","orientMir","scaleDef","000","",""
"","","","","","html-slider-response","51","138159","0.0-47.0","0bg0dd79wq","12","NaN","<div style=""width:500px;"">
                            <p style=""font-size:50px; font-weight:bold;""
                            >disgust</p>
                            <div style=""width:240px; margin: auto;"">
                                <img src=""images/map05_gist_earth_scaleRev_orientDef_090.png"" style= ""width:200px""alt=""img"">
                            </div>
                        </div>","77","","0","","","","images/map05_gist_earth_scaleRev_orientDef_090.png","disgust","1","05","05","gist","scaleRev","earth","orientDef","",""
"","","","","","html-slider-response","52","139441","0.0-48.0","0bg0dd79wq","12","NaN","<div style=""width:500px;"">
                            <p style=""font-size:50px; font-weight:bold;""
                            >disgust</p>
                            <div style=""width:240px; margin: auto;"">
                                <img src=""images/map10_Oranges_scaleDef_orientMir_180.png"" style= ""width:200px""alt=""img"">
                            </div>
                        </div>","-92","","0","","","","images/map10_Oranges_scaleDef_orientMir_180.png","disgust","1","10","10","Oranges","orientMir","scaleDef","180","",""
"","","","","","html-slider-response","53","140991","0.0-49.0","0bg0dd79wq","12","NaN","<div style=""width:500px;"">
                            <p style=""font-size:50px; font-weight:bold;""
                            >disgust</p>
                            <div style=""width:240px; margin: auto;"">
                                <img src=""images/map26_RdBu_scaleRev_orientMir_090.png"" style= ""width:200px""alt=""img"">
                            </div>
                        </div>","-55","","0","","","","images/map26_RdBu_scaleRev_orientMir_090.png","disgust","1","26","26","RdBu","orientMir","scaleRev","090","",""
"","","","","","html-slider-response","54","142742","0.0-50.0","0bg0dd79wq","12","NaN","<div style=""width:500px;"">
                            <p style=""font-size:50px; font-weight:bold;""
                            >disgust</p>
                            <div style=""width:240px; margin: auto;"">
                                <img src=""images/map07_magma_scaleRev_orientDef_270.png"" style= ""width:200px""alt=""img"">
                            </div>
                        </div>","61","","0","","","","images/map07_magma_scaleRev_orientDef_270.png","disgust","1","07","07","magma","orientDef","scaleRev","270","",""
"","","","","","html-slider-response","55","144110","0.0-51.0","0bg0dd79wq","12","NaN","<div style=""width:500px;"">
                            <p style=""font-size:50px; font-weight:bold;""
                            >disgust</p>
                            <div style=""width:240px; margin: auto;"">
                                <img src=""images/map05_plasma_scaleRev_orientMir_270.png"" style= ""width:200px""alt=""img"">
                            </div>
                        </div>","45","","0","","","","images/map05_plasma_scaleRev_orientMir_270.png","disgust","1","05","05","plasma","orientMir","scaleRev","270","",""
"","","","","","html-slider-response","56","146041","0.0-52.0","0bg0dd79wq","12","NaN","<div style=""width:500px;"">
                            <p style=""font-size:50px; font-weight:bold;""
                            >disgust</p>
                            <div style=""width:240px; margin: auto;"">
                                <img src=""images/map26_RdYlBu_scaleRev_orientMir_270.png"" style= ""width:200px""alt=""img"">
                            </div>
                        </div>","14","","0","","","","images/map26_RdYlBu_scaleRev_orientMir_270.png","disgust","1","26","26","RdYlBu","orientMir","scaleRev","270","",""
"","","","","","html-slider-response","57","147393","0.0-53.0","0bg0dd79wq","12","NaN","<div style=""width:500px;"">
                            <p style=""font-size:50px; font-weight:bold;""
                            >disgust</p>
                            <div style=""width:240px; margin: auto;"">
                                <img src=""images/map15_PuBu_scaleDef_orientDef_000.png"" style= ""width:200px""alt=""img"">
                            </div>
                        </div>","-8","","0","","","","images/map15_PuBu_scaleDef_orientDef_000.png","disgust","1","15","15","PuBu","orientDef","scaleDef","000","",""
"","","","","","html-button-response","58","151381","0.0-54.0","0bg0dd79wq","12","3485","<p>You are doing great!<br></br> You are halway done with the current block. When you are ready to continue, click the 'Continue' button.</p>","0","","","","","","","","","","","","","","","",""
"","","","","","html-slider-response","59","152674","0.0-55.0","0bg0dd79wq","12","NaN","<div style=""width:500px;"">
                            <p style=""font-size:50px; font-weight:bold;""
                            >disgust</p>
                            <div style=""width:240px; margin: auto;"">
                                <img src=""images/map02_berlin_scaleDef_orientDef_180.png"" style= ""width:200px""alt=""img"">
                            </div>
                        </div>","61","","0","","","","images/map02_berlin_scaleDef_orientDef_180.png","disgust","1","02","02","berlin","orientDef","scaleDef","180","",""
"","","","","","html-slider-response","60","154313","0.0-56.0","0bg0dd79wq","12","NaN","<div style=""width:500px;"">
                            <p style=""font-size:50px; font-weight:bold;""
                            >disgust</p>
                            <div style=""width:240px; margin: auto;"">
                                <img src=""images/map05_turbo_scaleRev_orientDef_270.png"" style= ""width:200px""alt=""img"">
                            </div>
                        </div>","-43","","0","","","","images/map05_turbo_scaleRev_orientDef_270.png","disgust","1","05","05","turbo","orientDef","scaleRev","270","",""
"","","","","","html-slider-response","61","155559","0.0-57.0","0bg0dd79wq","12","NaN","<div style=""width:500px;"">
                            <p style=""font-size:50px; font-weight:bold;""
                            >disgust</p>
                            <div style=""width:240px; margin: auto;"">
                                <img src=""images/map07_Greys_scaleRev_orientMir_270.png"" style= ""width:200px""alt=""img"">
                            </div>
                        </div>","-34","","0","","","","images/map07_Greys_scaleRev_orientMir_270.png","disgust","1","07","07","Greys","orientMir","scaleRev","270","",""
"","","","","","html-slider-response","62","156256","0.0-58.0","0bg0dd79wq","12","NaN","<div style=""width:500px;"">
                            <p style=""font-size:50px; font-weight:bold;""
                            >disgust</p>
                            <div style=""width:240px; margin: auto;"">
                                <img src=""images/map02_seismic_scaleDef_orientDef_000.png"" style= ""width:200px""alt=""img"">
                            </div>
                        </div>","74","","0","","","","images/map02_seismic_scaleDef_orientDef_000.png","disgust","1","02","02","seismic","orientDef","scaleDef","000","",""
"","","","","","html-slider-response","63","157142","0.0-59.0","0bg0dd79wq","12","NaN","<div style=""width:500px;"">
                            <p style=""font-size:50px; font-weight:bold;""
                            >disgust</p>
                            <div style=""width:240px; margin: auto;"">
                                <img src=""images/map02_vanimo_scaleRev_orientMir_270.png"" style= ""width:200px""alt=""img"">
                            </div>
                        </div>","-57","","0","","","","images/map02_vanimo_scaleRev_orientMir_270.png","disgust","1","02","02","vanimo","orientMir","scaleRev","270","",""
"","","","","","html-slider-response","64","157926","0.0-60.0","0bg0dd79wq","12","NaN","<div style=""width:500px;"">
                            <p style=""font-size:50px; font-weight:bold;""
                            >disgust</p>
                            <div style=""width:240px; margin: auto;"">
                                <img src=""images/map05_viridis_scaleRev_orientMir_090.png"" style= ""width:200px""alt=""img"">
                            </div>
                        </div>","73","","0","","","","images/map05_viridis_scaleRev_orientMir_090.png","disgust","1","05","05","viridis","orientMir","scaleRev","090","",""
"","","","","","html-slider-response","65","158725","0.0-61.0","0bg0dd79wq","12","NaN","<div style=""width:500px;"">
                            <p style=""font-size:50px; font-weight:bold;""
                            >disgust</p>
                            <div style=""width:240px; margin: auto;"">
                                <img src=""images/map26_RdYlBu_scaleDef_orientMir_180.png"" style= ""width:200px""alt=""img"">
                            </div>
                        </div>","91","","0","","","","images/map26_RdYlBu_scaleDef_orientMir_180.png","disgust","1","26","26","RdYlBu","orientMir","scaleDef","180","",""
"","","","","","html-slider-response","66","160142","0.0-62.0","0bg0dd79wq","12","NaN","<div style=""width:500px;"">
                            <p style=""font-size:50px; font-weight:bold;""
                            >disgust</p>
                            <div style=""width:240px; margin: auto;"">
                                <img src=""images/map13_PuRd_scaleRev_orientDef_090.png"" style= ""width:200px""alt=""img"">
                            </div>
                        </div>","142","","0","","","","images/map13_PuRd_scaleRev_orientDef_090.png","disgust","1","13","13","PuRd","orientDef","scaleRev","090","",""
"","","","","","html-slider-response","67","161724","0.0-63.0","0bg0dd79wq","12","NaN","<div style=""width:500px;"">
                            <p style=""font-size:50px; font-weight:bold;""
                            >disgust</p>
                            <div style=""width:240px; margin: auto;"">
                                <img src=""images/map15_BuGn_scaleRev_orientMir_270.png"" style= ""width:200px""alt=""img"">
                            </div>
                        </div>","110","","0","","","","images/map15_BuGn_scaleRev_orientMir_270.png","disgust","1","15","15","BuGn","orientMir","scaleRev","270","",""
"","","","","","html-slider-response","68","163092","0.0-64.0","0bg0dd79wq","12","NaN","<div style=""width:500px;"">
                            <p style=""font-size:50px; font-weight:bold;""
                            >disgust</p>
                            <div style=""width:240px; margin: auto;"">
                                <img src=""images/map12_Reds_scaleRev_orientDef_090.png"" style= ""width:200px""alt=""img"">
                            </div>
                        </div>","68","","0","","","","images/map12_Reds_scaleRev_orientDef_090.png","disgust","1","12","12","Reds","orientDef","scaleRev","090","",""
"","","","","","html-slider-response","69","164241","0.0-65.0","0bg0dd79wq","12","NaN","<div style=""width:500px;"">
                            <p style=""font-size:50px; font-weight:bold;""
                            >disgust</p>
                            <div style=""width:240px; margin: auto;"">
                                <img src=""images/map12_OrRd_scaleRev_orientMir_270.png"" style= ""width:200px""alt=""img"">
                            </div>
                        </div>","-53","","0","","","","images/map12_OrRd_scaleRev_orientMir_270.png","disgust","1","12","12","OrRd","orientMir","scaleRev","270","",""
"","","","","","html-slider-response","70","165724","0.0-66.0","0bg0dd79wq","12","NaN","<div style=""width:500px;"">
                            <p style=""font-size:50px; font-weight:bold;""
                            >disgust</p>
                            <div style=""width:240px; margin: auto;"">
                                <img src=""images/map13_RdPu_scaleDef_orientDef_180.png"" style= ""width:200px""alt=""img"">
                            </div>
                        </div>","105","","0","","","","images/map13_RdPu_scaleDef_orientDef_180.png","disgust","1","13","13","RdPu","orientDef","scaleDef","180","",""
"","","","","","html-slider-response","71","167110","0.0-67.0","0bg0dd79wq","12","NaN","<div style=""width:500px;"">
                            <p style=""font-size:50px; font-weight:bold;""
                            >disgust</p>
                            <div style=""width:240px; margin: auto;"">
                                <img src=""images/map10_Blues_scaleRev_orientDef_270.png"" style= ""width:200px""alt=""img"">
                            </div>
                        </div>","-62","","0","","","","images/map10_Blues_scaleRev_orientDef_270.png","disgust","1","10","10","Blues","orientDef","scaleRev","270","",""
"","","","","","html-slider-response","72","168174","0.0-68.0","0bg0dd79wq","12","NaN","<div style=""width:500px;"">
                            <p style=""font-size:50px; font-weight:bold;""
                            >disgust</p>
                            <div style=""width:240px; margin: auto;"">
                                <img src=""images/map05_plasma_scaleDef_orientMir_180.png"" style= ""width:200px""alt=""img"">
                            </div>
                        </div>","-146","","0","","","","images/map05_plasma_scaleDef_orientMir_180.png","disgust","1","05","05","plasma","orientMir","scaleDef","180","",""
"","","","","","html-slider-response","73","169541","0.0-69.0","0bg0dd79wq","12","NaN","<div style=""width:500px;"">
                            <p style=""font-size:50px; font-weight:bold;""
                            >disgust</p>
                            <div style=""width:240px; margin: auto;"">
                                <img src=""images/map23_PiYG_scaleDef_orientDef_180.png"" style= ""width:200px""alt=""img"">
                            </div>
                        </div>","150","","0","","","","images/map23_PiYG_scaleDef_orientDef_180.png","disgust","1","23","23","PiYG","orientDef","scaleDef","180","",""
"","","","","","html-slider-response","74","170758","0.0-70.0","0bg0dd79wq","12","NaN","<div style=""width:500px;"">
                            <p style=""font-size:50px; font-weight:bold;""
                            >disgust</p>
                            <div style=""width:240px; margin: auto;"">
                                <img src=""images/map26_PuOr_scaleRev_orientDef_090.png"" style= ""width:200px""alt=""img"">
                            </div>
                        </div>","-98","","0","","","","images/map26_PuOr_scaleRev_orientDef_090.png","disgust","1","26","26","PuOr","orientDef","scaleRev","090","",""
"","","","","","html-slider-response","75","171558","0.0-71.0","0bg0dd79wq","12","NaN","<div style=""width:500px;"">
                            <p style=""font-size:50px; font-weight:bold;""
                            >disgust</p>
                            <div style=""width:240px; margin: auto;"">
                                <img src=""images/map12_YlOrBr_scaleRev_orientDef_270.png"" style= ""width:200px""alt=""img"">
                            </div>
                        </div>","99","","0","","","","images/map12_YlOrBr_scaleRev_orientDef_270.png","disgust","1","12","12","YlOrBr","orientDef","scaleRev","270","",""
"","","","","","html-slider-response","76","172242","0.0-72.0","0bg0dd79wq","12","NaN","<div style=""width:500px;"">
                            <p style=""font-size:50px; font-weight:bold;""
                            >disgust</p>
                            <div style=""width:240px; margin: auto;"">
                                <img src=""images/map23_YlGn_scaleRev_orientDef_090.png"" style= ""width:200px""alt=""img"">
                            </div>
                        </div>","-41","","0","","","","images/map23_YlGn_scaleRev_orientDef_090.png","disgust","1","23","23","YlGn","orientDef","scaleRev","090","",""
"","","","","","html-slider-response","77","173075","0.0-73.0","0bg0dd79wq","12","NaN","<div style=""width:500px;"">
                            <p style=""font-size:50px; font-weight:bold;""
                            >disgust</p>
                            <div style=""width:240px; margin: auto;"">
                                <img src=""images/map15_BuGn_scaleDef_orientMir_180.png"" style= ""width:200px""alt=""img"">
                            </div>
                        </div>","102","","0","","","","images/map15_BuGn_scaleDef_orientMir_180.png","disgust","1","15","15","BuGn","orientMir","scaleDef","180","",""
"","","","","","html-slider-response","78","173924","0.0-74.0","0bg0dd79wq","12","NaN","<div style=""width:500px;"">
                            <p style=""font-size:50px; font-weight:bold;""
                            >disgust</p>
                            <div style=""width:240px; margin: auto;"">
                                <img src=""images/map12_YlOrRd_scaleRev_orientMir_090.png"" style= ""width:200px""alt=""img"">
                            </div>
                        </div>","150","","0","","","","images/map12_YlOrRd_scaleRev_orientMir_090.png","disgust","1","12","12","YlOrRd","orientMir","scaleRev","090","",""
"","","","","","html-slider-response","79","174992","0.0-75.0","0bg0dd79wq","12","NaN","<div style=""width:500px;"">
                            <p style=""font-size:50px; font-weight:bold;""
                            >disgust</p>
                            <div style=""width:240px; margin: auto;"">
                                <img src=""images/map10_Purples_scaleDef_orientDef_000.png"" style= ""width:200px""alt=""img"">
                            </div>
                        </div>","-23","","0","","","","images/map10_Purples_scaleDef_orientDef_000.png","disgust","1","10","10","Purples","orientDef","scaleDef","000","",""
"","","","","","html-slider-response","80","175942","0.0-76.0","0bg0dd79wq","12","NaN","<div style=""width:500px;"">
                            <p style=""font-size:50px; font-weight:bold;""
                            >disgust</p>
                            <div style=""width:240px; margin: auto;"">
                                <img src=""images/map23_BrBG_scaleRev_orientMir_270.png"" style= ""width:200px""alt=""img"">
                            </div>
                        </div>","-134","","0","","","","images/map23_BrBG_scaleRev_orientMir_270.png","disgust","1","23","23","BrBG","orientMir","scaleRev","270","",""
"","","","","","html-slider-response","81","178341","0.0-77.0","0bg0dd79wq","12","NaN","<div style=""width:500px;"">
                            <p style=""font-size:50px; font-weight:bold;""
                            >disgust</p>
                            <div style=""width:240px; margin: auto;"">
                                <img src=""images/map26_RdGy_scaleRev_orientDef_270.png"" style= ""width:200px""alt=""img"">
                            </div>
                        </div>","-182","","0","","","","images/map26_RdGy_scaleRev_orientDef_270.png","disgust","1","26","26","RdGy","orientDef","scaleRev","270","",""
"","","","","","html-slider-response","82","179722","0.0-78.0","0bg0dd79wq","12","NaN","<div style=""width:500px;"">
                            <p style=""font-size:50px; font-weight:bold;""
                            >disgust</p>
                            <div style=""width:240px; margin: auto;"">
                                <img src=""images/map07_magma_scaleDef_orientDef_180.png"" style= ""width:200px""alt=""img"">
                            </div>
                        </div>","-114","","0","","","","images/map07_magma_scaleDef_orientDef_180.png","disgust","1","07","07","magma","orientDef","scaleDef","180","",""
"","","","","","html-slider-response","83","181256","0.0-79.0","0bg0dd79wq","12","NaN","<div style=""width:500px;"">
                            <p style=""font-size:50px; font-weight:bold;""
                            >disgust</p>
                            <div style=""width:240px; margin: auto;"">
                                <img src=""images/map02_vanimo_scaleDef_orientMir_180.png"" style= ""width:200px""alt=""img"">
                            </div>
                        </div>","158","","0","","","","images/map02_vanimo_scaleDef_orientMir_180.png","disgust","1","02","02","vanimo","orientMir","scaleDef","180","",""
"","","","","","html-slider-response","84","182474","0.0-80.0","0bg0dd79wq","12","NaN","<div style=""width:500px;"">
                            <p style=""font-size:50px; font-weight:bold;""
                            >disgust</p>
                            <div style=""width:240px; margin: auto;"">
                                <img src=""images/map10_Purples_scaleRev_orientDef_090.png"" style= ""width:200px""alt=""img"">
                            </div>
                        </div>","-63","","0","","","","images/map10_Purples_scaleRev_orientDef_090.png","disgust","1","10","10","Purples","orientDef","scaleRev","090","",""
"","","","","","html-slider-response","85","183774","0.0-81.0","0bg0dd79wq","12","NaN","<div style=""width:500px;"">
                            <p style=""font-size:50px; font-weight:bold;""
                            >disgust</p>
                            <div style=""width:240px; margin: auto;"">
                                <img src=""images/map27_coolwarm_scaleDef_orientMir_000.png"" style= ""width:200px""alt=""img"">
                            </div>
                        </div>","-71","","0","","","","images/map27_coolwarm_scaleDef_orientMir_000.png","disgust","1","27","27","coolwarm","orientMir","scaleDef","000","",""
"","","","","","html-slider-response","86","184492","0.0-82.0","0bg0dd79wq","12","NaN","<div style=""width:500px;"">
                            <p style=""font-size:50px; font-weight:bold;""
                            >disgust</p>
                            <div style=""width:240px; margin: auto;"">
                                <img src=""images/map27_coolwarm_scaleRev_orientMir_090.png"" style= ""width:200px""alt=""img"">
                            </div>
                        </div>","113","","0","","","","images/map27_coolwarm_scaleRev_orientMir_090.png","disgust","1","27","27","coolwarm","orientMir","scaleRev","090","",""
"","","","","","html-slider-response","87","185493","0.0-83.0","0bg0dd79wq","12","NaN","<div style=""width:500px;"">
                            <p style=""font-size:50px; font-weight:bold;""
                            >disgust</p>
                            <div style=""width:240px; margin: auto;"">
                                <img src=""images/map27_RdYlGn_scaleDef_orientDef_000.png"" style= ""width:200px""alt=""img"">
                            </div>
                        </div>","-75","","0","","","","images/map27_RdYlGn_scaleDef_orientDef_000.png","disgust","1","27","27","RdYlGn","orientDef","scaleDef","000","",""
"","","","","","html-slider-response","88","187357","0.0-84.0","0bg0dd79wq","12","NaN","<div style=""width:500px;"">
                            <p style=""font-size:50px; font-weight:bold;""
                            >disgust</p>
                            <div style=""width:240px; margin: auto;"">
                                <img src=""images/map02_seismic_scaleRev_orientDef_090.png"" style= ""width:200px""alt=""img"">
                            </div>
                        </div>","155","","0","","","","images/map02_seismic_scaleRev_orientDef_090.png","disgust","1","02","02","seismic","orientDef","scaleRev","090","",""
"","","","","","html-slider-response","89","188707","0.0-85.0","0bg0dd79wq","12","NaN","<div style=""width:500px;"">
                            <p style=""font-size:50px; font-weight:bold;""
                            >disgust</p>
                            <div style=""width:240px; margin: auto;"">
                                <img src=""images/map13_PuRd_scaleDef_orientDef_000.png"" style= ""width:200px""alt=""img"">
                            </div>
                        </div>","122","","0","","","","images/map13_PuRd_scaleDef_orientDef_000.png","disgust","1","13","13","PuRd","orientDef","scaleDef","000","",""
"","","","","","html-slider-response","90","190425","0.0-86.0","0bg0dd79wq","12","NaN","<div style=""width:500px;"">
                            <p style=""font-size:50px; font-weight:bold;""
                            >disgust</p>
                            <div style=""width:240px; margin: auto;"">
                                <img src=""images/map23_YlGn_scaleDef_orientDef_000.png"" style= ""width:200px""alt=""img"">
                            </div>
                        </div>","103","","0","","","","images/map23_YlGn_scaleDef_orientDef_000.png","disgust","1","23","23","YlGn","orientDef","scaleDef","000","",""
"","","","","","html-slider-response","91","191757","0.0-87.0","0bg0dd79wq","12","NaN","<div style=""width:500px;"">
                            <p style=""font-size:50px; font-weight:bold;""
                            >disgust</p>
                            <div style=""width:240px; margin: auto;"">
                                <img src=""images/map26_RdBu_scaleDef_orientMir_000.png"" style= ""width:200px""alt=""img"">
                            </div>
                        </div>","-90","","0","","","","images/map26_RdBu_scaleDef_orientMir_000.png","disgust","1","26","26","RdBu","orientMir","scaleDef","000","",""
"","","","","","html-slider-response","92","193492","0.0-88.0","0bg0dd79wq","12","NaN","<div style=""width:500px;"">
                            <p style=""font-size:50px; font-weight:bold;""
                            >disgust</p>
                            <div style=""width:240px; margin: auto;"">
                                <img src=""images/map26_PuOr_scaleDef_orientDef_000.png"" style= ""width:200px""alt=""img"">
                            </div>
                        </div>","132","","0","","","","images/map26_PuOr_scaleDef_orientDef_000.png","disgust","1","26","26","PuOr","orientDef","scaleDef","000","",""
"","","","","","html-slider-response","93","195958","0.0-89.0","0bg0dd79wq","12","NaN","<div style=""width:500px;"">
                            <p style=""font-size:50px; font-weight:bold;""
                            >disgust</p>
                            <div style=""width:240px; margin: auto;"">
                                <img src=""images/map10_Greens_scaleDef_orientMir_000.png"" style= ""width:200px""alt=""img"">
                            </div>
                        </div>","198","","0","","","","images/map10_Greens_scaleDef_orientMir_000.png","disgust","1","10","10","Greens","orientMir","scaleDef","000","",""
"","","","","","html-slider-response","94","197327","0.0-90.0","0bg0dd79wq","12","NaN","<div style=""width:500px;"">
                            <p style=""font-size:50px; font-weight:bold;""
                            >disgust</p>
                            <div style=""width:240px; margin: auto;"">
                                <img src=""images/map12_Reds_scaleDef_orientDef_000.png"" style= ""width:200px""alt=""img"">
                            </div>
                        </div>","-55","","0","","","","images/map12_Reds_scaleDef_orientDef_000.png","disgust","1","12","12","Reds","orientDef","scaleDef","000","",""
"","","","","","html-slider-response","95","198842","0.0-91.0","0bg0dd79wq","12","NaN","<div style=""width:500px;"">
                            <p style=""font-size:50px; font-weight:bold;""
                            >disgust</p>
                            <div style=""width:240px; margin: auto;"">
                                <img src=""images/map13_GnBu_scaleDef_orientMir_180.png"" style= ""width:200px""alt=""img"">
                            </div>
                        </div>","-42","","0","","","","images/map13_GnBu_scaleDef_orientMir_180.png","disgust","1","13","13","GnBu","orientMir","scaleDef","180","",""
"","","","","","html-slider-response","96","200043","0.0-92.0","0bg0dd79wq","12","NaN","<div style=""width:500px;"">
                            <p style=""font-size:50px; font-weight:bold;""
                            >disgust</p>
                            <div style=""width:240px; margin: auto;"">
                                <img src=""images/map13_BuPu_scaleDef_orientMir_000.png"" style= ""width:200px""alt=""img"">
                            </div>
                        </div>","106","","0","","","","images/map13_BuPu_scaleDef_orientMir_000.png","disgust","1","13","13","BuPu","orientMir","scaleDef","000","",""
"","","","","","html-slider-response","97","201009","0.0-93.0","0bg0dd79wq","12","NaN","<div style=""width:500px;"">
                            <p style=""font-size:50px; font-weight:bold;""
                            >disgust</p>
                            <div style=""width:240px; margin: auto;"">
                                <img src=""images/map02_berlin_scaleRev_orientDef_270.png"" style= ""width:200px""alt=""img"">
                            </div>
                        </div>","-114","","0","","","","images/map02_berlin_scaleRev_orientDef_270.png","disgust","1","02","02","berlin","orientDef","scaleRev","270","",""
"","","","","","html-slider-response","98","202024","0.0-94.0","0bg0dd79wq","12","NaN","<div style=""width:500px;"">
                            <p style=""font-size:50px; font-weight:bold;""
                            >disgust</p>
                            <div style=""width:240px; margin: auto;"">
                                <img src=""images/map10_Blues_scaleDef_orientDef_180.png"" style= ""width:200px""alt=""img"">
                            </div>
                        </div>","-70","","0","","","","images/map10_Blues_scaleDef_orientDef_180.png","disgust","1","10","10","Blues","orientDef","scaleDef","180","",""
"","","","","","html-button-response","99","204947","0.0-95.0","0bg0dd79wq","12","2421","<p>Great Job! You've finished block 1.<br></br> You have 4 block(s) left to go.<br></br></p>","0","","","","","","","","","","","","","","","",""
"","","","","","html-button-response","100","454001","0.0-96.0","0bg0dd79wq","12","249048","<p>In this block of trials, you will be asked to rate how much you associate each map with:</p > <p style = 'font-size:150%; font-weight: bold'>angry</p><br></br>","0","","","","","","","","","","","","","","","",""
"","","","","","html-slider-response","101","456060","0.0-97.0","0bg0dd79wq","12","NaN","<div style=""width:500px;"">
                            <p style=""font-size:50px; font-weight:bold;""
                            >angry</p>
                            <div style=""width:240px; margin: auto;"">
                                <img src=""images/map12_Reds_scaleDef_orientDef_000.png"" style= ""width:200px""alt=""img"">
                            </div>
                        </div>","138","","0","","","","images/map12_Reds_scaleDef_orientDef_000.png","angry","1","12","12","Reds","orientDef","scaleDef","000","",""
"","","","","","html-slider-response","102","457393","0.0-98.0","0bg0dd79wq","12","NaN","<div style=""width:500px;"">
                            <p style=""font-size:50px; font-weight:bold;""
                            >angry</p>
                            <div style=""width:240px; margin: auto;"">
                                <img src=""images/map05_gist_earth_scaleDef_orientDef_000.png"" style= ""width:200px""alt=""img"">
                            </div>
                        </div>","-66","","0","","","","images/map05_gist_earth_scaleDef_orientDef_000.png","angry","1","05","05","gist","scaleDef","earth","orientDef","",""
"","","","","","html-slider-response","103","458760","0.0-99.0","0bg0dd79wq","12","NaN","<div style=""width:500px;"">
                            <p style=""font-size:50px; font-weight:bold;""
                            >angry</p>
                            <div style=""width:240px; margin: auto;"">
                                <img src=""images/map26_RdBu_scaleDef_orientMir_000.png"" style= ""width:200px""alt=""img"">
                            </div>
                        </div>","107","","0","","","","images/map26_RdBu_scaleDef_orientMir_000.png","angry","1","26","26","RdBu","orientMir","scaleDef","000","",""
"","","","","","html-slider-response","104","459893","0.0-100.0","0bg0dd79wq","12","NaN","<div style=""width:500px;"">
                            <p style=""font-size:50px; font-weight:bold;""
                            >angry</p>
                            <div style=""width:240px; margin: auto;"">
                                <img src=""images/map27_Spectral_scaleRev_orientDef_270.png"" style= ""width:200px""alt=""img"">
                            </div>
                        </div>","84","","0","","","","images/map27_Spectral_scaleRev_orientDef_270.png","angry","1","27","27","Spectral","orientDef","scaleRev","270","",""
"","","","","","html-slider-response","105","460843","0.0-101.0","0bg0dd79wq","12","NaN","<div style=""width:500px;"">
                            <p style=""font-size:50px; font-weight:bold;""
                            >angry</p>
                            <div style=""width:240px; margin: auto;"">
                                <img src=""images/map02_managua_scaleDef_orientMir_000.png"" style= ""width:200px""alt=""img"">
                            </div>
                        </div>","-83","","0","","","","images/map02_managua_scaleDef_orientMir_000.png","angry","1","02","02","managua","orientMir","scaleDef","000","",""
"","","","","","html-slider-response","106","461693","0.0-102.0","0bg0dd79wq","12","NaN","<div style=""width:500px;"">
                            <p style=""font-size:50px; font-weight:bold;""
                            >angry</p>
                            <div style=""width:240px; margin: auto;"">
                                <img src=""images/map10_Oranges_scaleRev_orientMir_270.png"" style= ""width:200px""alt=""img"">
                            </div>
                        </div>","-91","","0","","","","images/map10_Oranges_scaleRev_orientMir_270.png","angry","1","10","10","Oranges","orientMir","scaleRev","270","",""
"","","","","","html-slider-response","107","462475","0.0-103.0","0bg0dd79wq","12","NaN","<div style=""width:500px;"">
                            <p style=""font-size:50px; font-weight:bold;""
                            >angry</p>
                            <div style=""width:240px; margin: auto;"">
                                <img src=""images/map26_PuOr_scaleRev_orientDef_090.png"" style= ""width:200px""alt=""img"">
                            </div>
                        </div>","102","","0","","","","images/map26_PuOr_scaleRev_orientDef_090.png","angry","1","26","26","PuOr","orientDef","scaleRev","090","",""
"","","","","","html-slider-response","108","463193","0.0-104.0","0bg0dd79wq","12","NaN","<div style=""width:500px;"">
                            <p style=""font-size:50px; font-weight:bold;""
                            >angry</p>
                            <div style=""width:240px; margin: auto;"">
                                <img src=""images/map15_PuBuGn_scaleDef_orientMir_000.png"" style= ""width:200px""alt=""img"">
                            </div>
                        </div>","107","","0","","","","images/map15_PuBuGn_scaleDef_orientMir_000.png","angry","1","15","15","PuBuGn","orientMir","scaleDef","000","",""
"","","","","","html-slider-response","109","463909","0.0-105.0","0bg0dd79wq","12","NaN","<div style=""width:500px;"">
                            <p style=""font-size:50px; font-weight:bold;""
                            >angry</p>
                            <div style=""width:240px; margin: auto;"">
                                <img src=""images/map27_coolwarm_scaleRev_orientMir_090.png"" style= ""width:200px""alt=""img"">
                            </div>
                        </div>","-66","","0","","","","images/map27_coolwarm_scaleRev_orientMir_090.png","angry","1","27","27","coolwarm","orientMir","scaleRev","090","",""
"","","","","","html-slider-response","110","464710","0.0-106.0","0bg0dd79wq","12","NaN","<div style=""width:500px;"">
                            <p style=""font-size:50px; font-weight:bold;""
                            >angry</p>
                            <div style=""width:240px; margin: auto;"">
                                <img src=""images/map13_PuRd_scaleRev_orientDef_090.png"" style= ""width:200px""alt=""img"">
                            </div>
                        </div>","-126","","0","","","","images/map13_PuRd_scaleRev_orientDef_090.png","angry","1","13","13","PuRd","orientDef","scaleRev","090","",""
"","","","","","html-slider-response","111","465909","0.0-107.0","0bg0dd79wq","12","NaN","<div style=""width:500px;"">
                            <p style=""font-size:50px; font-weight:bold;""
                            >angry</p>
                            <div style=""width:240px; margin: auto;"">
                                <img src=""images/map02_vanimo_scaleDef_orientMir_180.png"" style= ""width:200px""alt=""img"">
                            </div>
                        </div>","-135","","0","","","","images/map02_vanimo_scaleDef_orientMir_180.png","angry","1","02","02","vanimo","orientMir","scaleDef","180","",""
"","","","","","html-slider-response","112","466976","0.0-108.0","0bg0dd79wq","12","NaN","<div style=""width:500px;"">
                            <p style=""font-size:50px; font-weight:bold;""
                            >angry</p>
                            <div style=""width:240px; margin: auto;"">
                                <img src=""images/map15_YlGnBu_scaleRev_orientDef_270.png"" style= ""width:200px""alt=""img"">
                            </div>
                        </div>","-33","","0","","","","images/map15_YlGnBu_scaleRev_orientDef_270.png","angry","1","15","15","YlGnBu","orientDef","scaleRev","270","",""
"","","","","","html-slider-response","113","468525","0.0-109.0","0bg0dd79wq","12","NaN","<div style=""width:500px;"">
                            <p style=""font-size:50px; font-weight:bold;""
                            >angry</p>
                            <div style=""width:240px; margin: auto;"">
                                <img src=""images/map26_RdYlBu_scaleDef_orientMir_180.png"" style= ""width:200px""alt=""img"">
                            </div>
                        </div>","24","","0","","","","images/map26_RdYlBu_scaleDef_orientMir_180.png","angry","1","26","26","RdYlBu","orientMir","scaleDef","180","",""
"","","","","","html-slider-response","114","469611","0.0-110.0","0bg0dd79wq","12","NaN","<div style=""width:500px;"">
                            <p style=""font-size:50px; font-weight:bold;""
                            >angry</p>
                            <div style=""width:240px; margin: auto;"">
                                <img src=""images/map05_plasma_scaleDef_orientMir_180.png"" style= ""width:200px""alt=""img"">
                            </div>
                        </div>","62","","0","","","","images/map05_plasma_scaleDef_orientMir_180.png","angry","1","05","05","plasma","orientMir","scaleDef","180","",""
"","","","","","html-slider-response","115","470827","0.0-111.0","0bg0dd79wq","12","NaN","<div style=""width:500px;"">
                            <p style=""font-size:50px; font-weight:bold;""
                            >angry</p>
                            <div style=""width:240px; margin: auto;"">
                                <img src=""images/map05_turbo_scaleRev_orientDef_270.png"" style= ""width:200px""alt=""img"">
                            </div>
                        </div>","-103","","0","","","","images/map05_turbo_scaleRev_orientDef_270.png","angry","1","05","05","turbo","orientDef","scaleRev","270","",""
"","","","","","html-slider-response","116","471743","0.0-112.0","0bg0dd79wq","12","NaN","<div style=""width:500px;"">
                            <p style=""font-size:50px; font-weight:bold;""
                            >angry</p>
                            <div style=""width:240px; margin: auto;"">
                                <img src=""images/map15_PuBu_scaleDef_orientDef_000.png"" style= ""width:200px""alt=""img"">
                            </div>
                        </div>","92","","0","","","","images/map15_PuBu_scaleDef_orientDef_000.png","angry","1","15","15","PuBu","orientDef","scaleDef","000","",""
"","","","","","html-slider-response","117","473127","0.0-113.0","0bg0dd79wq","12","NaN","<div style=""width:500px;"">
                            <p style=""font-size:50px; font-weight:bold;""
                            >angry</p>
                            <div style=""width:240px; margin: auto;"">
                                <img src=""images/map05_plasma_scaleRev_orientMir_270.png"" style= ""width:200px""alt=""img"">
                            </div>
                        </div>","153","","0","","","","images/map05_plasma_scaleRev_orientMir_270.png","angry","1","05","05","plasma","orientMir","scaleRev","270","",""
"","","","","","html-slider-response","118","474659","0.0-114.0","0bg0dd79wq","12","NaN","<div style=""width:500px;"">
                            <p style=""font-size:50px; font-weight:bold;""
                            >angry</p>
                            <div style=""width:240px; margin: auto;"">
                                <img src=""images/map02_vanimo_scaleRev_orientMir_270.png"" style= ""width:200px""alt=""img"">
                            </div>
                        </div>","72","","0","","","","images/map02_vanimo_scaleRev_orientMir_270.png","angry","1","02","02","vanimo","orientMir","scaleRev","270","",""
"","","","","","html-slider-response","119","475908","0.0-115.0","0bg0dd79wq","12","NaN","<div style=""width:500px;"">
                            <p style=""font-size:50px; font-weight:bold;""
                            >angry</p>
                            <div style=""width:240px; margin: auto;"">
                                <img src=""images/map13_BuPu_scaleRev_orientMir_090.png"" style= ""width:200px""alt=""img"">
                            </div>
                        </div>","-95","","0","","","","images/map13_BuPu_scaleRev_orientMir_090.png","angry","1","13","13","BuPu","orientMir","scaleRev","090","",""
"","","","","","html-slider-response","120","477026","0.0-116.0","0bg0dd79wq","12","NaN","<div style=""width:500px;"">
                            <p style=""font-size:50px; font-weight:bold;""
                            >angry</p>
                            <div style=""width:240px; margin: auto;"">
                                <img src=""images/map15_PuBuGn_scaleRev_orientMir_090.png"" style= ""width:200px""alt=""img"">
                            </div>
                        </div>","-134","","0","","","","images/map15_PuBuGn_scaleRev_orientMir_090.png","angry","1","15","15","PuBuGn","orientMir","scaleRev","090","",""
"","","","","","html-slider-response","121","478461","0.0-117.0","0bg0dd79wq","12","NaN","<div style=""width:500px;"">
                            <p style=""font-size:50px; font-weight:bold;""
                            >angry</p>
                            <div style=""width:240px; margin: auto;"">
                                <img src=""images/map15_BuGn_scaleDef_orientMir_180.png"" style= ""width:200px""alt=""img"">
                            </div>
                        </div>","-77","","0","","","","images/map15_BuGn_scaleDef_orientMir_180.png","angry","1","15","15","BuGn","orientMir","scaleDef","180","",""
"","","","","","html-slider-response","122","479776","0.0-118.0","0bg0dd79wq","12","NaN","<div style=""width:500px;"">
                            <p style=""font-size:50px; font-weight:bold;""
                            >angry</p>
                            <div style=""width:240px; margin: auto;"">
                                <img src=""images/map05_viridis_scaleRev_orientMir_090.png"" style= ""width:200px""alt=""img"">
                            </div>
                        </div>","-34","","0","","","","images/map05_viridis_scaleRev_orientMir_090.png","angry","1","05","05","viridis","orientMir","scaleRev","090","",""
"","","","","","html-slider-response","123","481894","0.0-119.0","0bg0dd79wq","12","NaN","<div style=""width:500px;"">
                            <p style=""font-size:50px; font-weight:bold;""
                            >angry</p>
                            <div style=""width:240px; margin: auto;"">
                                <img src=""images/map23_PRGn_scaleRev_orientMir_090.png"" style= ""width:200px""alt=""img"">
                            </div>
                        </div>","30","","0","","","","images/map23_PRGn_scaleRev_orientMir_090.png","angry","1","23","23","PRGn","orientMir","scaleRev","090","",""
"","","","","","html-slider-response","124","483611","0.0-120.0","0bg0dd79wq","12","NaN","<div style=""width:500px;"">
                            <p style=""font-size:50px; font-weight:bold;""
                            >angry</p>
                            <div style=""width:240px; margin: auto;"">
                                <img src=""images/map10_Greens_scaleDef_orientMir_000.png"" style= ""width:200px""alt=""img"">
                            </div>
                        </div>","-36","","0","","","","images/map10_Greens_scaleDef_orientMir_000.png","angry","1","10","10","Greens","orientMir","scaleDef","000","",""
"","","","","","html-slider-response","125","484893","0.0-121.0","0bg0dd79wq","12","NaN","<div style=""width:500px;"">
                            <p style=""font-size:50px; font-weight:bold;""
                            >angry</p>
                            <div style=""width:240px; margin: auto;"">
                                <img src=""images/map02_seismic_scaleDef_orientDef_000.png"" style= ""width:200px""alt=""img"">
                            </div>
                        </div>","98","","0","","","","images/map02_seismic_scaleDef_orientDef_000.png","angry","1","02","02","seismic","orientDef","scaleDef","000","",""
"","","","","","html-slider-response","126","486961","0.0-122.0","0bg0dd79wq","12","NaN","<div style=""width:500px;"">
                            <p style=""font-size:50px; font-weight:bold;""
                            >angry</p>
                            <div style=""width:240px; margin: auto;"">
                                <img src=""images/map02_seismic_scaleRev_orientDef_090.png"" style= ""width:200px""alt=""img"">
                            </div>
                        </div>","158","","0","","","","images/map02_seismic_scaleRev_orientDef_090.png","angry","1","02","02","seismic","orientDef","scaleRev","090","",""
"","","","","","html-slider-response","127","489543","0.0-123.0","0bg0dd79wq","12","NaN","<div style=""width:500px;"">
                            <p style=""font-size:50px; font-weight:bold;""
                            >angry</p>
                            <div style=""width:240px; margin: auto;"">
                                <img src=""images/map10_Purples_scaleRev_orientDef_090.png"" style= ""width:200px""alt=""img"">
                            </div>
                        </div>","-100","","0","","","","images/map10_Purples_scaleRev_orientDef_090.png","angry","1","10","10","Purples","orientDef","scaleRev","090","",""
"","","","","","html-slider-response","128","491010","0.0-124.0","0bg0dd79wq","12","NaN","<div style=""width:500px;"">
                            <p style=""font-size:50px; font-weight:bold;""
                            >angry</p>
                            <div style=""width:240px; margin: auto;"">
                                <img src=""images/map13_GnBu_scaleDef_orientMir_180.png"" style= ""width:200px""alt=""img"">
                            </div>
                        </div>","80","","0","","","","images/map13_GnBu_scaleDef_orientMir_180.png","angry","1","13","13","GnBu","orientMir","scaleDef","180","",""
"","","","","","html-slider-response","129","492344","0.0-125.0","0bg0dd79wq","12","NaN","<div style=""width:500px;"">
                            <p style=""font-size:50px; font-weight:bold;""
                            >angry</p>
                            <div style=""width:240px; margin: auto;"">
                                <img src=""images/map23_BrBG_scaleRev_orientMir_270.png"" style= ""width:200px""alt=""img"">
                            </div>
                        </div>","-76","","0","","","","images/map23_BrBG_scaleRev_orientMir_270.png","angry","1","23","23","BrBG","orientMir","scaleRev","270","",""
"","","","","","html-slider-response","130","493494","0.0-126.0","0bg0dd79wq","12","NaN","<div style=""width:500px;"">
                            <p style=""font-size:50px; font-weight:bold;""
                            >angry</p>
                            <div style=""width:240px; margin: auto;"">
                                <img src=""images/map26_RdGy_scaleDef_orientDef_180.png"" style= ""width:200px""alt=""img"">
                            </div>
                        </div>","-51","","0","","","","images/map26_RdGy_scaleDef_orientDef_180.png","angry","1","26","26","RdGy","orientDef","scaleDef","180","",""
"","","","","","html-slider-response","131","494394","0.0-127.0","0bg0dd79wq","12","NaN","<div style=""width:500px;"">
                            <p style=""font-size:50px; font-weight:bold;""
                            >angry</p>
                            <div style=""width:240px; margin: auto;"">
                                <img src=""images/map13_GnBu_scaleRev_orientMir_270.png"" style= ""width:200px""alt=""img"">
                            </div>
                        </div>","67","","0","","","","images/map13_GnBu_scaleRev_orientMir_270.png","angry","1","13","13","GnBu","orientMir","scaleRev","270","",""
"","","","","","html-slider-response","132","495109","0.0-128.0","0bg0dd79wq","12","NaN","<div style=""width:500px;"">
                            <p style=""font-size:50px; font-weight:bold;""
                            >angry</p>
                            <div style=""width:240px; margin: auto;"">
                                <img src=""images/map23_PiYG_scaleDef_orientDef_180.png"" style= ""width:200px""alt=""img"">
                            </div>
                        </div>","-66","","0","","","","images/map23_PiYG_scaleDef_orientDef_180.png","angry","1","23","23","PiYG","orientDef","scaleDef","180","",""
"","","","","","html-slider-response","133","496026","0.0-129.0","0bg0dd79wq","12","NaN","<div style=""width:500px;"">
                            <p style=""font-size:50px; font-weight:bold;""
                            >angry</p>
                            <div style=""width:240px; margin: auto;"">
                                <img src=""images/map26_RdYlBu_scaleRev_orientMir_270.png"" style= ""width:200px""alt=""img"">
                            </div>
                        </div>","-112","","0","","","","images/map26_RdYlBu_scaleRev_orientMir_270.png","angry","1","26","26","RdYlBu","orientMir","scaleRev","270","",""
"","","","","","html-slider-response","134","497944","0.0-130.0","0bg0dd79wq","12","NaN","<div style=""width:500px;"">
                            <p style=""font-size:50px; font-weight:bold;""
                            >angry</p>
                            <div style=""width:240px; margin: auto;"">
                                <img src=""images/map27_coolwarm_scaleDef_orientMir_000.png"" style= ""width:200px""alt=""img"">
                            </div>
                        </div>","106","","0","","","","images/map27_coolwarm_scaleDef_orientMir_000.png","angry","1","27","27","coolwarm","orientMir","scaleDef","000","",""
"","","","","","html-slider-response","135","499543","0.0-131.0","0bg0dd79wq","12","NaN","<div style=""width:500px;"">
                            <p style=""font-size:50px; font-weight:bold;""
                            >angry</p>
                            <div style=""width:240px; margin: auto;"">
                                <img src=""images/map07_inferno_scaleRev_orientDef_090.png"" style= ""width:200px""alt=""img"">
                            </div>
                        </div>","172","","0","","","","images/map07_inferno_scaleRev_orientDef_090.png","angry","1","07","07","inferno","orientDef","scaleRev","090","",""
"","","","","","html-slider-response","136","501043","0.0-132.0","0bg0dd79wq","12","NaN","<div style=""width:500px;"">
                            <p style=""font-size:50px; font-weight:bold;""
                            >angry</p>
                            <div style=""width:240px; margin: auto;"">
                                <img src=""images/map26_RdGy_scaleRev_orientDef_270.png"" style= ""width:200px""alt=""img"">
                            </div>
                        </div>","102","","0","","","","images/map26_RdGy_scaleRev_orientDef_270.png","angry","1","26","26","RdGy","orientDef","scaleRev","270","",""
"","","","","","html-slider-response","137","502743","0.0-133.0","0bg0dd79wq","12","NaN","<div style=""width:500px;"">
                            <p style=""font-size:50px; font-weight:bold;""
                            >angry</p>
                            <div style=""width:240px; margin: auto;"">
                                <img src=""images/map10_Oranges_scaleDef_orientMir_180.png"" style= ""width:200px""alt=""img"">
                            </div>
                        </div>","-9","","0","","","","images/map10_Oranges_scaleDef_orientMir_180.png","angry","1","10","10","Oranges","orientMir","scaleDef","180","",""
"","","","","","html-slider-response","138","504109","0.0-134.0","0bg0dd79wq","12","NaN","<div style=""width:500px;"">
                            <p style=""font-size:50px; font-weight:bold;""
                            >angry</p>
                            <div style=""width:240px; margin: auto;"">
                                <img src=""images/map23_YlGn_scaleDef_orientDef_000.png"" style= ""width:200px""alt=""img"">
                            </div>
                        </div>","-45","","0","","","","images/map23_YlGn_scaleDef_orientDef_000.png","angry","1","23","23","YlGn","orientDef","scaleDef","000","",""
"","","","","","html-slider-response","139","505359","0.0-135.0","0bg0dd79wq","12","NaN","<div style=""width:500px;"">
                            <p style=""font-size:50px; font-weight:bold;""
                            >angry</p>
                            <div style=""width:240px; margin: auto;"">
                                <img src=""images/map05_viridis_scaleDef_orientMir_000.png"" style= ""width:200px""alt=""img"">
                            </div>
                        </div>","-46","","0","","","","images/map05_viridis_scaleDef_orientMir_000.png","angry","1","05","05","viridis","orientMir","scaleDef","000","",""
"","","","","","html-slider-response","140","506228","0.0-136.0","0bg0dd79wq","12","NaN","<div style=""width:500px;"">
                            <p style=""font-size:50px; font-weight:bold;""
                            >angry</p>
                            <div style=""width:240px; margin: auto;"">
                                <img src=""images/map02_berlin_scaleRev_orientDef_270.png"" style= ""width:200px""alt=""img"">
                            </div>
                        </div>","90","","0","","","","images/map02_berlin_scaleRev_orientDef_270.png","angry","1","02","02","berlin","orientDef","scaleRev","270","",""
"","","","","","html-button-response","141","509299","0.0-137.0","0bg0dd79wq","12","2569","<p>You are doing great!<br></br> You are halway done with the current block. When you are ready to continue, click the 'Continue' button.</p>","0","","","","","","","","","","","","","","","",""
"","","","","","html-slider-response","142","512493","0.0-138.0","0bg0dd79wq","12","NaN","<div style=""width:500px;"">
                            <p style=""font-size:50px; font-weight:bold;""
                            >angry</p>
                            <div style=""width:240px; margin: auto;"">
                                <img src=""images/map23_BrBG_scaleDef_orientMir_180.png"" style= ""width:200px""alt=""img"">
                            </div>
                        </div>","-88","","0","","","","images/map23_BrBG_scaleDef_orientMir_180.png","angry","1","23","23","BrBG","orientMir","scaleDef","180","",""
"","","","","","html-slider-response","143","513308","0.0-139.0","0bg0dd79wq","12","NaN","<div style=""width:500px;"">
                            <p style=""font-size:50px; font-weight:bold;""
                            >angry</p>
                            <div style=""width:240px; margin: auto;"">
                                <img src=""images/map13_BuPu_scaleDef_orientMir_000.png"" style= ""width:200px""alt=""img"">
                            </div>
                        </div>","136","","0","","","","images/map13_BuPu_scaleDef_orientMir_000.png","angry","1","13","13","BuPu","orientMir","scaleDef","000","",""
"","","","","","html-slider-response","144","513994","0.0-140.0","0bg0dd79wq","12","NaN","<div style=""width:500px;"">
                            <p style=""font-size:50px; font-weight:bold;""
                            >angry</p>
                            <div style=""width:240px; margin: auto;"">
                                <img src=""images/map15_YlGnBu_scaleDef_orientDef_180.png"" style= ""width:200px""alt=""img"">
                            </div>
                        </div>","-94","","0","","","","images/map15_YlGnBu_scaleDef_orientDef_180.png","angry","1","15","15","YlGnBu","orientDef","scaleDef","180","",""
"","","","","","html-slider-response","145","514626","0.0-141.0","0bg0dd79wq","12","NaN","<div style=""width:500px;"">
                            <p style=""font-size:50px; font-weight:bold;""
                            >angry</p>
                            <div style=""width:240px; margin: auto;"">
                                <img src=""images/map27_RdYlGn_scaleRev_orientDef_090.png"" style= ""width:200px""alt=""img"">
                            </div>
                        </div>","-49","","0","","","","images/map27_RdYlGn_scaleRev_orientDef_090.png","angry","1","27","27","RdYlGn","orientDef","scaleRev","090","",""
"","","","","","html-slider-response","146","515760","0.0-142.0","0bg0dd79wq","12","NaN","<div style=""width:500px;"">
                            <p style=""font-size:50px; font-weight:bold;""
                            >angry</p>
                            <div style=""width:240px; margin: auto;"">
                                <img src=""images/map10_Blues_scaleDef_orientDef_180.png"" style= ""width:200px""alt=""img"">
                            </div>
                        </div>","81","","0","","","","images/map10_Blues_scaleDef_orientDef_180.png","angry","1","10","10","Blues","orientDef","scaleDef","180","",""
"","","","","","html-slider-response","147","516761","0.0-143.0","0bg0dd79wq","12","NaN","<div style=""width:500px;"">
                            <p style=""font-size:50px; font-weight:bold;""
                            >angry</p>
                            <div style=""width:240px; margin: auto;"">
                                <img src=""images/map12_Reds_scaleRev_orientDef_090.png"" style= ""width:200px""alt=""img"">
                            </div>
                        </div>","-58","","0","","","","images/map12_Reds_scaleRev_orientDef_090.png","angry","1","12","12","Reds","orientDef","scaleRev","090","",""
"","","","","","html-slider-response","148","517711","0.0-144.0","0bg0dd79wq","12","NaN","<div style=""width:500px;"">
                            <p style=""font-size:50px; font-weight:bold;""
                            >angry</p>
                            <div style=""width:240px; margin: auto;"">
                                <img src=""images/map12_YlOrRd_scaleDef_orientMir_000.png"" style= ""width:200px""alt=""img"">
                            </div>
                        </div>","-58","","0","","","","images/map12_YlOrRd_scaleDef_orientMir_000.png","angry","1","12","12","YlOrRd","orientMir","scaleDef","000","",""
"","","","","","html-slider-response","149","518460","0.0-145.0","0bg0dd79wq","12","NaN","<div style=""width:500px;"">
                            <p style=""font-size:50px; font-weight:bold;""
                            >angry</p>
                            <div style=""width:240px; margin: auto;"">
                                <img src=""images/map12_YlOrRd_scaleRev_orientMir_090.png"" style= ""width:200px""alt=""img"">
                            </div>
                        </div>","-91","","0","","","","images/map12_YlOrRd_scaleRev_orientMir_090.png","angry","1","12","12","YlOrRd","orientMir","scaleRev","090","",""
"","","","","","html-slider-response","150","519344","0.0-146.0","0bg0dd79wq","12","NaN","<div style=""width:500px;"">
                            <p style=""font-size:50px; font-weight:bold;""
                            >angry</p>
                            <div style=""width:240px; margin: auto;"">
                                <img src=""images/map23_YlGn_scaleRev_orientDef_090.png"" style= ""width:200px""alt=""img"">
                            </div>
                        </div>","196","","0","","","","images/map23_YlGn_scaleRev_orientDef_090.png","angry","1","23","23","YlGn","orientDef","scaleRev","090","",""
"","","","","","html-slider-response","151","520526","0.0-147.0","0bg0dd79wq","12","NaN","<div style=""width:500px;"">
                            <p style=""font-size:50px; font-weight:bold;""
                            >angry</p>
                            <div style=""width:240px; margin: auto;"">
                                <img src=""images/map02_managua_scaleRev_orientMir_090.png"" style= ""width:200px""alt=""img"">
                            </div>
                        </div>","-157","","0","","","","images/map02_managua_scaleRev_orientMir_090.png","angry","1","02","02","managua","orientMir","scaleRev","090","",""
"","","","","","html-slider-response","152","521393","0.0-148.0","0bg0dd79wq","12","NaN","<div style=""width:500px;"">
                            <p style=""font-size:50px; font-weight:bold;""
                            >angry</p>
                            <div style=""width:240px; margin: auto;"">
                                <img src=""images/map13_RdPu_scaleRev_orientDef_270.png"" style= ""width:200px""alt=""img"">
                            </div>
                        </div>","90","","0","","","","images/map13_RdPu_scaleRev_orientDef_270.png","angry","1","13","13","RdPu","orientDef","scaleRev","270","",""
"","","","","","html-slider-response","153","522210","0.0-149.0","0bg0dd79wq","12","NaN","<div style=""width:500px;"">
                            <p style=""font-size:50px; font-weight:bold;""
                            >angry</p>
                            <div style=""width:240px; margin: auto;"">
                                <img src=""images/map07_cividis_scaleRev_orientMir_090.png"" style= ""width:200px""alt=""img"">
                            </div>
                        </div>","123","","0","","","","images/map07_cividis_scaleRev_orientMir_090.png","angry","1","07","07","cividis","orientMir","scaleRev","090","",""
"","","","","","html-slider-response","154","523511","0.0-150.0","0bg0dd79wq","12","NaN","<div style=""width:500px;"">
                            <p style=""font-size:50px; font-weight:bold;""
                            >angry</p>
                            <div style=""width:240px; margin: auto;"">
                                <img src=""images/map10_Purples_scaleDef_orientDef_000.png"" style= ""width:200px""alt=""img"">
                            </div>
                        </div>","-94","","0","","","","images/map10_Purples_scaleDef_orientDef_000.png","angry","1","10","10","Purples","orientDef","scaleDef","000","",""
"","","","","","html-slider-response","155","524793","0.0-151.0","0bg0dd79wq","12","NaN","<div style=""width:500px;"">
                            <p style=""font-size:50px; font-weight:bold;""
                            >angry</p>
                            <div style=""width:240px; margin: auto;"">
                                <img src=""images/map27_Spectral_scaleDef_orientDef_180.png"" style= ""width:200px""alt=""img"">
                            </div>
                        </div>","117","","0","","","","images/map27_Spectral_scaleDef_orientDef_180.png","angry","1","27","27","Spectral","orientDef","scaleDef","180","",""
"","","","","","html-slider-response","156","526344","0.0-152.0","0bg0dd79wq","12","NaN","<div style=""width:500px;"">
                            <p style=""font-size:50px; font-weight:bold;""
                            >angry</p>
                            <div style=""width:240px; margin: auto;"">
                                <img src=""images/map23_PiYG_scaleRev_orientDef_270.png"" style= ""width:200px""alt=""img"">
                            </div>
                        </div>","129","","0","","","","images/map23_PiYG_scaleRev_orientDef_270.png","angry","1","23","23","PiYG","orientDef","scaleRev","270","",""
"","","","","","html-slider-response","157","528244","0.0-153.0","0bg0dd79wq","12","NaN","<div style=""width:500px;"">
                            <p style=""font-size:50px; font-weight:bold;""
                            >angry</p>
                            <div style=""width:240px; margin: auto;"">
                                <img src=""images/map13_RdPu_scaleDef_orientDef_180.png"" style= ""width:200px""alt=""img"">
