"success","timeout","failed_images","failed_audio","failed_video","trial_type","trial_index","time_elapsed","internal_node_id","subject_id","condition_num","rt","stimulus","response","question_order","slider_start","practiceTrial","practiceTrialNum","correct","image_path","concept","repetition","map_id","map_num","scale_name","orientation_code","mapping_code","rotation_code","ishihara_plate","correct_response"
"true","false","[]","[]","[]","preload","0","530","0.0-0.0","0u0wt8dfbv","20","","","","","","","","","","","","","","","","","","",""
"","","","","","html-button-response","1","9120","0.0-1.0","0u0wt8dfbv","20","8588","Welcome to our experiment!<p>At the bottom of this screen, you will see a button that says ""Begin Experiment"".<br>Please only click that button when you are ready to complete the 30 minute experiment in one sitting.</p><p> Once you click that button, it will not be possible to restart the experiment.","0","","","","","","","","","","","","","","","",""
"true","","","","","fullscreen","2","12337","0.0-2.0","0u0wt8dfbv","20","2213","","","","","","","","","","","","","","","","","",""
"","","","","","survey-multi-select","3","79944","0.0-3.0","0u0wt8dfbv","20","67598","","{""Consent"":[""<strong>I consent</strong>""]}","[0]","","","","","","","","","","","","","","",""
"","","","","","html-button-response","4","85837","0.0-4.0","0u0wt8dfbv","20","5890","Welcome! <p> This experiment involves two parts: demographic information, followed by the experimental task.<p> It will take about 30 minutes to complete both parts.","0","","","","","","","","","","","","","","","",""
"","","","","","survey-text","5","109827","0.0-5.0","0u0wt8dfbv","20","23969","","{""Age"":""19"",""Gender"":""Female"",""Race/ethnicity"":""White"",""Languages"":""English, German""}","","","","","","","","","","","","","","","",""
"","","","","","html-slider-response","6","139620","0.0-6.0","0u0wt8dfbv","20","29788","<div style='text-align:left; font-size:20px; line-height:25px; width: 1000px;'>
                                During this experiment you will be asked to rate how much you associate maps with                    different concepts.<br> Below, you can see some examples of the maps you will be asked to rate. Above the maps
                    is the list of concepts.<br>You will be asked                    to rate how much you associate each map with each concept on a scale from 'not at all' to 'very much' like the
                    one below. <br><br>
                    Now, please look at the list of concepts and maps. For each concept, think about the map you associate 'very
                    much' with the concept.<br>                     When you see that map during the experiment, please rate it near the 'very much' endpoint of the
                    scale.<br>Now, please think about which map you associate 'not at all'                     with each concept. When you see that map during the experiment, please rate it near the 'not at all' endpoint
                    of the scale.<br>
                    Please use the full range of the scale. That is, if a map is somewhat associated with the concept, you would
                    click partway between the middle point and right side of the scale.                    You will be asked to rate each map for a given concept before moving on to the next concept.<br>Press the
                    'Continue' button for instructions on how to use the slider.                    <br>
                </div>

                <div style=""width: 500px; margin: 0 auto;"">
                    <!-- Centered text paragraphs -->
                    <div style=""text-align: center; width: 500px;"">
                        <p style=""font-size:25px; line-height:15px;"">
                            angry&nbsp;&nbsp;&nbsp;&nbsp;
                            fearful&nbsp;&nbsp;&nbsp;&nbsp;
                            happy&nbsp;&nbsp;&nbsp;&nbsp;
                            sad&nbsp;&nbsp;&nbsp;&nbsp;
                            disgust
                        </p>
                        <!-- <p style=""font-size:20px; line-height:15px;"">fearful</p>
                        <p style=""font-size:20px;line-height:15px;"">happy</p>
                        <p style=""font-size:20px;line-height:15px;"">sad</p>
                        <p style=""font-size:20px;line-height:15px;"">disgust</p> -->
                    </div>
            

                    <!-- Grid section -->
                   <div style=""display: flex; justify-content: center; padding-top: 15px;"">
                    <div style=""display: grid; grid-template-columns: repeat(10, 55px); grid-gap: 5px; width: auto;"">
                        <img src=""images/map13_Reds_scaleRev_orientDef_090.png"" alt=""map"" style=""width: 100%;""><img src=""images/map07_gist_earth_scaleRev_orientDef_090.png"" alt=""map"" style=""width: 100%;""><img src=""images/map27_RdGy_scaleDef_orientDef_180.png"" alt=""map"" style=""width: 100%;""><img src=""images/map05_managua_scaleRev_orientMir_090.png"" alt=""map"" style=""width: 100%;""><img src=""images/map12_Greens_scaleRev_orientMir_090.png"" alt=""map"" style=""width: 100%;""><img src=""images/map07_viridis_scaleDef_orientMir_000.png"" alt=""map"" style=""width: 100%;""><img src=""images/map23_BuGn_scaleRev_orientMir_270.png"" alt=""map"" style=""width: 100%;""><img src=""images/map26_YlGn_scaleRev_orientDef_090.png"" alt=""map"" style=""width: 100%;""><img src=""images/map02_coolwarm_scaleRev_orientMir_090.png"" alt=""map"" style=""width: 100%;""><img src=""images/map02_bwr_scaleDef_orientMir_180.png"" alt=""map"" style=""width: 100%;""><img src=""images/map13_YlOrRd_scaleDef_orientMir_000.png"" alt=""map"" style=""width: 100%;""><img src=""images/map15_BuPu_scaleDef_orientMir_000.png"" alt=""map"" style=""width: 100%;""><img src=""images/map23_PuBu_scaleRev_orientDef_090.png"" alt=""map"" style=""width: 100%;""><img src=""images/map23_PuBuGn_scaleDef_orientMir_000.png"" alt=""map"" style=""width: 100%;""><img src=""images/map26_PiYG_scaleDef_orientDef_180.png"" alt=""map"" style=""width: 100%;""><img src=""images/map05_berlin_scaleRev_orientDef_270.png"" alt=""map"" style=""width: 100%;""><img src=""images/map26_PRGn_scaleDef_orientMir_000.png"" alt=""map"" style=""width: 100%;""><img src=""images/map07_plasma_scaleRev_orientMir_270.png"" alt=""map"" style=""width: 100%;""><img src=""images/map13_YlOrBr_scaleDef_orientDef_180.png"" alt=""map"" style=""width: 100%;""><img src=""images/map05_seismic_scaleDef_orientDef_000.png"" alt=""map"" style=""width: 100%;""><img src=""images/map26_BrBG_scaleDef_orientMir_180.png"" alt=""map"" style=""width: 100%;""><img src=""images/map05_vanimo_scaleRev_orientMir_270.png"" alt=""map"" style=""width: 100%;""><img src=""images/map10_magma_scaleRev_orientDef_270.png"" alt=""map"" style=""width: 100%;""><img src=""images/map12_Oranges_scaleDef_orientMir_180.png"" alt=""map"" style=""width: 100%;""><img src=""images/map15_RdPu_scaleDef_orientDef_180.png"" alt=""map"" style=""width: 100%;""><img src=""images/map12_Purples_scaleRev_orientDef_090.png"" alt=""map"" style=""width: 100%;""><img src=""images/map23_YlGnBu_scaleDef_orientDef_180.png"" alt=""map"" style=""width: 100%;""><img src=""images/map02_RdYlGn_scaleDef_orientDef_000.png"" alt=""map"" style=""width: 100%;""><img src=""images/map27_RdBu_scaleRev_orientMir_090.png"" alt=""map"" style=""width: 100%;""><img src=""images/map15_PuRd_scaleRev_orientDef_090.png"" alt=""map"" style=""width: 100%;""><img src=""images/map13_OrRd_scaleRev_orientMir_270.png"" alt=""map"" style=""width: 100%;""><img src=""images/map27_PuOr_scaleDef_orientDef_000.png"" alt=""map"" style=""width: 100%;""><img src=""images/map02_Spectral_scaleDef_orientDef_180.png"" alt=""map"" style=""width: 100%;""><img src=""images/map10_Greys_scaleRev_orientMir_270.png"" alt=""map"" style=""width: 100%;""><img src=""images/map07_turbo_scaleDef_orientDef_180.png"" alt=""map"" style=""width: 100%;""><img src=""images/map27_RdYlBu_scaleRev_orientMir_270.png"" alt=""map"" style=""width: 100%;""><img src=""images/map15_GnBu_scaleRev_orientMir_270.png"" alt=""map"" style=""width: 100%;""><img src=""images/map10_cividis_scaleDef_orientMir_000.png"" alt=""map"" style=""width: 100%;""><img src=""images/map10_inferno_scaleRev_orientDef_090.png"" alt=""map"" style=""width: 100%;""><img src=""images/map12_Blues_scaleDef_orientDef_180.png"" alt=""map"" style=""width: 100%;"">
                    </div>
                </div>

                    <!-- Clear floats -->
                    <div style=""clear: both;""></div>
                </div>
                            ","-106","","0","true","","","","","","","","","","","","",""
"","","","","","html-button-response","7","147074","0.0-7.0","0u0wt8dfbv","20","7450","<div style=""width:800px;""><p style=""text-align:left"">To move the slider, click and drag your cursor to the location of the scale where you would like to make your rating and then let go. When you let go of the slider, your response will be recorded and the next trial will begin. <br>
                    We are interested in your initial impressions of each map for the given concept, so please go with your first intuition. <br>
                    Before you begin the experiment, there will be four training trials for you to practice using the scale. <br>
                     When you are ready to start the training trials, please click ""Continue"".</p><br></div>","0","","","","","","","","","","","","","","","",""
"","","","","","html-slider-response","8","150732","0.0-8.0-0.0","0u0wt8dfbv","20","NaN","<div style=""width:500px;"">
                                    <p style=""font-size:25px;"">Please move the slider all the way to the <br> right endpoint of the scale</p>

                                    </div>
                                </div>","200","","0","true","0","true","","","","","","","","","","",""
"","","","","","html-button-response","9","152534","0.0-8.0-1.0","0u0wt8dfbv","20","1296","<p align='center'><b>Good job!</b> Click on 'Continue' to proceed.</p>","0","","","","","","","","","","","","","","","",""
"","","","","","html-slider-response","10","154216","0.0-9.0-0.0","0u0wt8dfbv","20","NaN","<div style=""width:500px;"">
                                    <p style=""font-size:25px;"">Please move the slider all the way to the <br> left endpoint of the scale</p>

                                    </div>
                                </div>","-200","","0","true","1","true","","","","","","","","","","",""
"","","","","","html-button-response","11","156085","0.0-9.0-1.0","0u0wt8dfbv","20","1362","<p align='center'><b>Good job!</b> Click on 'Continue' to proceed.</p>","0","","","","","","","","","","","","","","","",""
"","","","","","html-slider-response","12","163531","0.0-10.0-0.0","0u0wt8dfbv","20","NaN","<div style=""width:500px;"">
                                    <p style=""font-size:25px;"">Please move the slider halfway between the center and right endpoint of the scale</p>

                                    </div>
                                </div>","104","","0","true","2","true","","","","","","","","","","",""
"","","","","","html-button-response","13","165386","0.0-10.0-1.0","0u0wt8dfbv","20","1345","<p align='center'><b>Good job!</b> Click on 'Continue' to proceed.</p>","0","","","","","","","","","","","","","","","",""
"","","","","","html-slider-response","14","167283","0.0-11.0-0.0","0u0wt8dfbv","20","NaN","<div style=""width:500px;"">
                                    <p style=""font-size:25px;"">Please move the slider halfway between the center and left endpoint of the scale</p>

                                    </div>
                                </div>","-101","","0","true","3","true","","","","","","","","","","",""
"","","","","","html-button-response","15","168969","0.0-11.0-1.0","0u0wt8dfbv","20","1179","<p align='center'><b>Good job!</b> Click on 'Continue' to proceed.</p>","0","","","","","","","","","","","","","","","",""
"","","","","","html-button-response","16","170036","0.0-12.0","0u0wt8dfbv","20","1065","<p>Great job! You've completed the practice trials. Now you will begin the main task.</p>","0","","","","","","","","","","","","","","","",""
"","","","","","html-button-response","17","172486","0.0-13.0","0u0wt8dfbv","20","2448","<p>In this block of trials, you will be asked to rate how much you associate each map with:</p > <p style = 'font-size:150%; font-weight: bold'>angry</p><br></br>","0","","","","","","","","","","","","","","","",""
"","","","","","html-slider-response","18","175397","0.0-14.0","0u0wt8dfbv","20","NaN","<div style=""width:500px;"">
                            <p style=""font-size:50px; font-weight:bold;""
                            >angry</p>
                            <div style=""width:240px; margin: auto;"">
                                <img src=""images/map26_PiYG_scaleDef_orientDef_180.png"" style= ""width:200px""alt=""img"">
                            </div>
                        </div>","92","","0","","","","images/map26_PiYG_scaleDef_orientDef_180.png","angry","1","26","26","PiYG","orientDef","scaleDef","180","",""
"","","","","","html-slider-response","19","177896","0.0-15.0","0u0wt8dfbv","20","NaN","<div style=""width:500px;"">
                            <p style=""font-size:50px; font-weight:bold;""
                            >angry</p>
                            <div style=""width:240px; margin: auto;"">
                                <img src=""images/map26_BrBG_scaleDef_orientMir_180.png"" style= ""width:200px""alt=""img"">
                            </div>
                        </div>","166","","0","","","","images/map26_BrBG_scaleDef_orientMir_180.png","angry","1","26","26","BrBG","orientMir","scaleDef","180","",""
"","","","","","html-slider-response","20","180014","0.0-16.0","0u0wt8dfbv","20","NaN","<div style=""width:500px;"">
                            <p style=""font-size:50px; font-weight:bold;""
                            >angry</p>
                            <div style=""width:240px; margin: auto;"">
                                <img src=""images/map10_magma_scaleDef_orientDef_180.png"" style= ""width:200px""alt=""img"">
                            </div>
                        </div>","200","","0","","","","images/map10_magma_scaleDef_orientDef_180.png","angry","1","10","10","magma","orientDef","scaleDef","180","",""
"","","","","","html-slider-response","21","182216","0.0-17.0","0u0wt8dfbv","20","NaN","<div style=""width:500px;"">
                            <p style=""font-size:50px; font-weight:bold;""
                            >angry</p>
                            <div style=""width:240px; margin: auto;"">
                                <img src=""images/map15_GnBu_scaleDef_orientMir_180.png"" style= ""width:200px""alt=""img"">
                            </div>
                        </div>","-125","","0","","","","images/map15_GnBu_scaleDef_orientMir_180.png","angry","1","15","15","GnBu","orientMir","scaleDef","180","",""
"","","","","","html-slider-response","22","184466","0.0-18.0","0u0wt8dfbv","20","NaN","<div style=""width:500px;"">
                            <p style=""font-size:50px; font-weight:bold;""
                            >angry</p>
                            <div style=""width:240px; margin: auto;"">
                                <img src=""images/map10_inferno_scaleRev_orientDef_090.png"" style= ""width:200px""alt=""img"">
                            </div>
                        </div>","200","","0","","","","images/map10_inferno_scaleRev_orientDef_090.png","angry","1","10","10","inferno","orientDef","scaleRev","090","",""
"","","","","","html-slider-response","23","186482","0.0-19.0","0u0wt8dfbv","20","NaN","<div style=""width:500px;"">
                            <p style=""font-size:50px; font-weight:bold;""
                            >angry</p>
                            <div style=""width:240px; margin: auto;"">
                                <img src=""images/map27_RdGy_scaleRev_orientDef_270.png"" style= ""width:200px""alt=""img"">
                            </div>
                        </div>","153","","0","","","","images/map27_RdGy_scaleRev_orientDef_270.png","angry","1","27","27","RdGy","orientDef","scaleRev","270","",""
"","","","","","html-slider-response","24","189132","0.0-20.0","0u0wt8dfbv","20","NaN","<div style=""width:500px;"">
                            <p style=""font-size:50px; font-weight:bold;""
                            >angry</p>
                            <div style=""width:240px; margin: auto;"">
                                <img src=""images/map27_RdGy_scaleDef_orientDef_180.png"" style= ""width:200px""alt=""img"">
                            </div>
                        </div>","165","","0","","","","images/map27_RdGy_scaleDef_orientDef_180.png","angry","1","27","27","RdGy","orientDef","scaleDef","180","",""
"","","","","","html-slider-response","25","191147","0.0-21.0","0u0wt8dfbv","20","NaN","<div style=""width:500px;"">
                            <p style=""font-size:50px; font-weight:bold;""
                            >angry</p>
                            <div style=""width:240px; margin: auto;"">
                                <img src=""images/map10_inferno_scaleDef_orientDef_000.png"" style= ""width:200px""alt=""img"">
                            </div>
                        </div>","179","","0","","","","images/map10_inferno_scaleDef_orientDef_000.png","angry","1","10","10","inferno","orientDef","scaleDef","000","",""
"","","","","","html-slider-response","26","193214","0.0-22.0","0u0wt8dfbv","20","NaN","<div style=""width:500px;"">
                            <p style=""font-size:50px; font-weight:bold;""
                            >angry</p>
                            <div style=""width:240px; margin: auto;"">
                                <img src=""images/map02_bwr_scaleRev_orientMir_270.png"" style= ""width:200px""alt=""img"">
                            </div>
                        </div>","83","","0","","","","images/map02_bwr_scaleRev_orientMir_270.png","angry","1","02","02","bwr","orientMir","scaleRev","270","",""
"","","","","","html-slider-response","27","195381","0.0-23.0","0u0wt8dfbv","20","NaN","<div style=""width:500px;"">
                            <p style=""font-size:50px; font-weight:bold;""
                            >angry</p>
                            <div style=""width:240px; margin: auto;"">
                                <img src=""images/map10_Greys_scaleRev_orientMir_270.png"" style= ""width:200px""alt=""img"">
                            </div>
                        </div>","45","","0","","","","images/map10_Greys_scaleRev_orientMir_270.png","angry","1","10","10","Greys","orientMir","scaleRev","270","",""
"","","","","","html-slider-response","28","197238","0.0-24.0","0u0wt8dfbv","20","NaN","<div style=""width:500px;"">
                            <p style=""font-size:50px; font-weight:bold;""
                            >angry</p>
                            <div style=""width:240px; margin: auto;"">
                                <img src=""images/map27_PuOr_scaleDef_orientDef_000.png"" style= ""width:200px""alt=""img"">
                            </div>
                        </div>","28","","0","","","","images/map27_PuOr_scaleDef_orientDef_000.png","angry","1","27","27","PuOr","orientDef","scaleDef","000","",""
"","","","","","html-slider-response","29","199317","0.0-25.0","0u0wt8dfbv","20","NaN","<div style=""width:500px;"">
                            <p style=""font-size:50px; font-weight:bold;""
                            >angry</p>
                            <div style=""width:240px; margin: auto;"">
                                <img src=""images/map02_RdYlGn_scaleDef_orientDef_000.png"" style= ""width:200px""alt=""img"">
                            </div>
                        </div>","117","","0","","","","images/map02_RdYlGn_scaleDef_orientDef_000.png","angry","1","02","02","RdYlGn","orientDef","scaleDef","000","",""
"","","","","","html-slider-response","30","201339","0.0-26.0","0u0wt8dfbv","20","NaN","<div style=""width:500px;"">
                            <p style=""font-size:50px; font-weight:bold;""
                            >angry</p>
                            <div style=""width:240px; margin: auto;"">
                                <img src=""images/map27_RdYlBu_scaleDef_orientMir_180.png"" style= ""width:200px""alt=""img"">
                            </div>
                        </div>","76","","0","","","","images/map27_RdYlBu_scaleDef_orientMir_180.png","angry","1","27","27","RdYlBu","orientMir","scaleDef","180","",""
"","","","","","html-slider-response","31","203265","0.0-27.0","0u0wt8dfbv","20","NaN","<div style=""width:500px;"">
                            <p style=""font-size:50px; font-weight:bold;""
                            >angry</p>
                            <div style=""width:240px; margin: auto;"">
                                <img src=""images/map23_PuBuGn_scaleRev_orientMir_090.png"" style= ""width:200px""alt=""img"">
                            </div>
                        </div>","-87","","0","","","","images/map23_PuBuGn_scaleRev_orientMir_090.png","angry","1","23","23","PuBuGn","orientMir","scaleRev","090","",""
"","","","","","html-slider-response","32","205117","0.0-28.0","0u0wt8dfbv","20","NaN","<div style=""width:500px;"">
                            <p style=""font-size:50px; font-weight:bold;""
                            >angry</p>
                            <div style=""width:240px; margin: auto;"">
                                <img src=""images/map02_Spectral_scaleDef_orientDef_180.png"" style= ""width:200px""alt=""img"">
                            </div>
                        </div>","64","","0","","","","images/map02_Spectral_scaleDef_orientDef_180.png","angry","1","02","02","Spectral","orientDef","scaleDef","180","",""
"","","","","","html-slider-response","33","206746","0.0-29.0","0u0wt8dfbv","20","NaN","<div style=""width:500px;"">
                            <p style=""font-size:50px; font-weight:bold;""
                            >angry</p>
                            <div style=""width:240px; margin: auto;"">
                                <img src=""images/map26_YlGn_scaleRev_orientDef_090.png"" style= ""width:200px""alt=""img"">
                            </div>
                        </div>","-171","","0","","","","images/map26_YlGn_scaleRev_orientDef_090.png","angry","1","26","26","YlGn","orientDef","scaleRev","090","",""
"","","","","","html-slider-response","34","208714","0.0-30.0","0u0wt8dfbv","20","NaN","<div style=""width:500px;"">
                            <p style=""font-size:50px; font-weight:bold;""
                            >angry</p>
                            <div style=""width:240px; margin: auto;"">
                                <img src=""images/map05_berlin_scaleRev_orientDef_270.png"" style= ""width:200px""alt=""img"">
                            </div>
                        </div>","159","","0","","","","images/map05_berlin_scaleRev_orientDef_270.png","angry","1","05","05","berlin","orientDef","scaleRev","270","",""
"","","","","","html-slider-response","35","210615","0.0-31.0","0u0wt8dfbv","20","NaN","<div style=""width:500px;"">
                            <p style=""font-size:50px; font-weight:bold;""
                            >angry</p>
                            <div style=""width:240px; margin: auto;"">
                                <img src=""images/map10_magma_scaleRev_orientDef_270.png"" style= ""width:200px""alt=""img"">
                            </div>
                        </div>","139","","0","","","","images/map10_magma_scaleRev_orientDef_270.png","angry","1","10","10","magma","orientDef","scaleRev","270","",""
"","","","","","html-slider-response","36","212548","0.0-32.0","0u0wt8dfbv","20","NaN","<div style=""width:500px;"">
                            <p style=""font-size:50px; font-weight:bold;""
                            >angry</p>
                            <div style=""width:240px; margin: auto;"">
                                <img src=""images/map27_RdYlBu_scaleRev_orientMir_270.png"" style= ""width:200px""alt=""img"">
                            </div>
                        </div>","126","","0","","","","images/map27_RdYlBu_scaleRev_orientMir_270.png","angry","1","27","27","RdYlBu","orientMir","scaleRev","270","",""
"","","","","","html-slider-response","37","214151","0.0-33.0","0u0wt8dfbv","20","NaN","<div style=""width:500px;"">
                            <p style=""font-size:50px; font-weight:bold;""
                            >angry</p>
                            <div style=""width:240px; margin: auto;"">
                                <img src=""images/map23_YlGnBu_scaleRev_orientDef_270.png"" style= ""width:200px""alt=""img"">
                            </div>
                        </div>","-158","","0","","","","images/map23_YlGnBu_scaleRev_orientDef_270.png","angry","1","23","23","YlGnBu","orientDef","scaleRev","270","",""
"","","","","","html-slider-response","38","215914","0.0-34.0","0u0wt8dfbv","20","NaN","<div style=""width:500px;"">
                            <p style=""font-size:50px; font-weight:bold;""
                            >angry</p>
                            <div style=""width:240px; margin: auto;"">
                                <img src=""images/map10_cividis_scaleDef_orientMir_000.png"" style= ""width:200px""alt=""img"">
                            </div>
                        </div>","-131","","0","","","","images/map10_cividis_scaleDef_orientMir_000.png","angry","1","10","10","cividis","orientMir","scaleDef","000","",""
"","","","","","html-slider-response","39","217715","0.0-35.0","0u0wt8dfbv","20","NaN","<div style=""width:500px;"">
                            <p style=""font-size:50px; font-weight:bold;""
                            >angry</p>
                            <div style=""width:240px; margin: auto;"">
                                <img src=""images/map10_Greys_scaleDef_orientMir_180.png"" style= ""width:200px""alt=""img"">
                            </div>
                        </div>","76","","0","","","","images/map10_Greys_scaleDef_orientMir_180.png","angry","1","10","10","Greys","orientMir","scaleDef","180","",""
"","","","","","html-slider-response","40","219548","0.0-36.0","0u0wt8dfbv","20","NaN","<div style=""width:500px;"">
                            <p style=""font-size:50px; font-weight:bold;""
                            >angry</p>
                            <div style=""width:240px; margin: auto;"">
                                <img src=""images/map12_Blues_scaleRev_orientDef_270.png"" style= ""width:200px""alt=""img"">
                            </div>
                        </div>","-92","","0","","","","images/map12_Blues_scaleRev_orientDef_270.png","angry","1","12","12","Blues","orientDef","scaleRev","270","",""
"","","","","","html-slider-response","41","221482","0.0-37.0","0u0wt8dfbv","20","NaN","<div style=""width:500px;"">
                            <p style=""font-size:50px; font-weight:bold;""
                            >angry</p>
                            <div style=""width:240px; margin: auto;"">
                                <img src=""images/map26_PiYG_scaleRev_orientDef_270.png"" style= ""width:200px""alt=""img"">
                            </div>
                        </div>","52","","0","","","","images/map26_PiYG_scaleRev_orientDef_270.png","angry","1","26","26","PiYG","orientDef","scaleRev","270","",""
"","","","","","html-slider-response","42","223748","0.0-38.0","0u0wt8dfbv","20","NaN","<div style=""width:500px;"">
                            <p style=""font-size:50px; font-weight:bold;""
                            >angry</p>
                            <div style=""width:240px; margin: auto;"">
                                <img src=""images/map15_PuRd_scaleRev_orientDef_090.png"" style= ""width:200px""alt=""img"">
                            </div>
                        </div>","-64","","0","","","","images/map15_PuRd_scaleRev_orientDef_090.png","angry","1","15","15","PuRd","orientDef","scaleRev","090","",""
"","","","","","html-slider-response","43","225564","0.0-39.0","0u0wt8dfbv","20","NaN","<div style=""width:500px;"">
                            <p style=""font-size:50px; font-weight:bold;""
                            >angry</p>
                            <div style=""width:240px; margin: auto;"">
                                <img src=""images/map23_PuBuGn_scaleDef_orientMir_000.png"" style= ""width:200px""alt=""img"">
                            </div>
                        </div>","-143","","0","","","","images/map23_PuBuGn_scaleDef_orientMir_000.png","angry","1","23","23","PuBuGn","orientMir","scaleDef","000","",""
"","","","","","html-slider-response","44","227464","0.0-40.0","0u0wt8dfbv","20","NaN","<div style=""width:500px;"">
                            <p style=""font-size:50px; font-weight:bold;""
                            >angry</p>
                            <div style=""width:240px; margin: auto;"">
                                <img src=""images/map07_gist_earth_scaleRev_orientDef_090.png"" style= ""width:200px""alt=""img"">
                            </div>
                        </div>","-77","","0","","","","images/map07_gist_earth_scaleRev_orientDef_090.png","angry","1","07","07","gist","scaleRev","earth","orientDef","",""
"","","","","","html-slider-response","45","230380","0.0-41.0","0u0wt8dfbv","20","NaN","<div style=""width:500px;"">
                            <p style=""font-size:50px; font-weight:bold;""
                            >angry</p>
                            <div style=""width:240px; margin: auto;"">
                                <img src=""images/map05_vanimo_scaleRev_orientMir_270.png"" style= ""width:200px""alt=""img"">
                            </div>
                        </div>","110","","0","","","","images/map05_vanimo_scaleRev_orientMir_270.png","angry","1","05","05","vanimo","orientMir","scaleRev","270","",""
"","","","","","html-slider-response","46","232564","0.0-42.0","0u0wt8dfbv","20","NaN","<div style=""width:500px;"">
                            <p style=""font-size:50px; font-weight:bold;""
                            >angry</p>
                            <div style=""width:240px; margin: auto;"">
                                <img src=""images/map07_plasma_scaleRev_orientMir_270.png"" style= ""width:200px""alt=""img"">
                            </div>
                        </div>","144","","0","","","","images/map07_plasma_scaleRev_orientMir_270.png","angry","1","07","07","plasma","orientMir","scaleRev","270","",""
"","","","","","html-slider-response","47","234514","0.0-43.0","0u0wt8dfbv","20","NaN","<div style=""width:500px;"">
                            <p style=""font-size:50px; font-weight:bold;""
                            >angry</p>
                            <div style=""width:240px; margin: auto;"">
                                <img src=""images/map13_YlOrBr_scaleRev_orientDef_270.png"" style= ""width:200px""alt=""img"">
                            </div>
                        </div>","146","","0","","","","images/map13_YlOrBr_scaleRev_orientDef_270.png","angry","1","13","13","YlOrBr","orientDef","scaleRev","270","",""
"","","","","","html-slider-response","48","237272","0.0-44.0","0u0wt8dfbv","20","NaN","<div style=""width:500px;"">
                            <p style=""font-size:50px; font-weight:bold;""
                            >angry</p>
                            <div style=""width:240px; margin: auto;"">
                                <img src=""images/map05_managua_scaleDef_orientMir_000.png"" style= ""width:200px""alt=""img"">
                            </div>
                        </div>","154","","0","","","","images/map05_managua_scaleDef_orientMir_000.png","angry","1","05","05","managua","orientMir","scaleDef","000","",""
"","","","","","html-slider-response","49","238864","0.0-45.0","0u0wt8dfbv","20","NaN","<div style=""width:500px;"">
                            <p style=""font-size:50px; font-weight:bold;""
                            >angry</p>
                            <div style=""width:240px; margin: auto;"">
                                <img src=""images/map23_PuBu_scaleDef_orientDef_000.png"" style= ""width:200px""alt=""img"">
                            </div>
                        </div>","-197","","0","","","","images/map23_PuBu_scaleDef_orientDef_000.png","angry","1","23","23","PuBu","orientDef","scaleDef","000","",""
"","","","","","html-slider-response","50","240748","0.0-46.0","0u0wt8dfbv","20","NaN","<div style=""width:500px;"">
                            <p style=""font-size:50px; font-weight:bold;""
                            >angry</p>
                            <div style=""width:240px; margin: auto;"">
                                <img src=""images/map15_BuPu_scaleRev_orientMir_090.png"" style= ""width:200px""alt=""img"">
                            </div>
                        </div>","-122","","0","","","","images/map15_BuPu_scaleRev_orientMir_090.png","angry","1","15","15","BuPu","orientMir","scaleRev","090","",""
"","","","","","html-slider-response","51","242446","0.0-47.0","0u0wt8dfbv","20","NaN","<div style=""width:500px;"">
                            <p style=""font-size:50px; font-weight:bold;""
                            >angry</p>
                            <div style=""width:240px; margin: auto;"">
                                <img src=""images/map07_turbo_scaleDef_orientDef_180.png"" style= ""width:200px""alt=""img"">
                            </div>
                        </div>","116","","0","","","","images/map07_turbo_scaleDef_orientDef_180.png","angry","1","07","07","turbo","orientDef","scaleDef","180","",""
"","","","","","html-slider-response","52","244300","0.0-48.0","0u0wt8dfbv","20","NaN","<div style=""width:500px;"">
                            <p style=""font-size:50px; font-weight:bold;""
                            >angry</p>
                            <div style=""width:240px; margin: auto;"">
                                <img src=""images/map13_OrRd_scaleDef_orientMir_180.png"" style= ""width:200px""alt=""img"">
                            </div>
                        </div>","10","","0","","","","images/map13_OrRd_scaleDef_orientMir_180.png","angry","1","13","13","OrRd","orientMir","scaleDef","180","",""
"","","","","","html-slider-response","53","246315","0.0-49.0","0u0wt8dfbv","20","NaN","<div style=""width:500px;"">
                            <p style=""font-size:50px; font-weight:bold;""
                            >angry</p>
                            <div style=""width:240px; margin: auto;"">
                                <img src=""images/map07_gist_earth_scaleDef_orientDef_000.png"" style= ""width:200px""alt=""img"">
                            </div>
                        </div>","-114","","0","","","","images/map07_gist_earth_scaleDef_orientDef_000.png","angry","1","07","07","gist","scaleDef","earth","orientDef","",""
"","","","","","html-slider-response","54","247930","0.0-50.0","0u0wt8dfbv","20","NaN","<div style=""width:500px;"">
                            <p style=""font-size:50px; font-weight:bold;""
                            >angry</p>
                            <div style=""width:240px; margin: auto;"">
                                <img src=""images/map12_Purples_scaleDef_orientDef_000.png"" style= ""width:200px""alt=""img"">
                            </div>
                        </div>","-86","","0","","","","images/map12_Purples_scaleDef_orientDef_000.png","angry","1","12","12","Purples","orientDef","scaleDef","000","",""
"","","","","","html-slider-response","55","250764","0.0-51.0","0u0wt8dfbv","20","NaN","<div style=""width:500px;"">
                            <p style=""font-size:50px; font-weight:bold;""
                            >angry</p>
                            <div style=""width:240px; margin: auto;"">
                                <img src=""images/map13_YlOrRd_scaleRev_orientMir_090.png"" style= ""width:200px""alt=""img"">
                            </div>
                        </div>","200","","0","","","","images/map13_YlOrRd_scaleRev_orientMir_090.png","angry","1","13","13","YlOrRd","orientMir","scaleRev","090","",""
"","","","","","html-slider-response","56","252598","0.0-52.0","0u0wt8dfbv","20","NaN","<div style=""width:500px;"">
                            <p style=""font-size:50px; font-weight:bold;""
                            >angry</p>
                            <div style=""width:240px; margin: auto;"">
                                <img src=""images/map12_Blues_scaleDef_orientDef_180.png"" style= ""width:200px""alt=""img"">
                            </div>
                        </div>","-200","","0","","","","images/map12_Blues_scaleDef_orientDef_180.png","angry","1","12","12","Blues","orientDef","scaleDef","180","",""
"","","","","","html-slider-response","57","254247","0.0-53.0","0u0wt8dfbv","20","NaN","<div style=""width:500px;"">
                            <p style=""font-size:50px; font-weight:bold;""
                            >angry</p>
                            <div style=""width:240px; margin: auto;"">
                                <img src=""images/map13_Reds_scaleDef_orientDef_000.png"" style= ""width:200px""alt=""img"">
                            </div>
                        </div>","90","","0","","","","images/map13_Reds_scaleDef_orientDef_000.png","angry","1","13","13","Reds","orientDef","scaleDef","000","",""
"","","","","","html-button-response","58","256225","0.0-54.0","0u0wt8dfbv","20","1471","<p>You are doing great!<br></br> You are halway done with the current block. When you are ready to continue, click the 'Continue' button.</p>","0","","","","","","","","","","","","","","","",""
"","","","","","html-slider-response","59","257698","0.0-55.0","0u0wt8dfbv","20","NaN","<div style=""width:500px;"">
                            <p style=""font-size:50px; font-weight:bold;""
                            >angry</p>
                            <div style=""width:240px; margin: auto;"">
                                <img src=""images/map13_OrRd_scaleRev_orientMir_270.png"" style= ""width:200px""alt=""img"">
                            </div>
                        </div>","188","","0","","","","images/map13_OrRd_scaleRev_orientMir_270.png","angry","1","13","13","OrRd","orientMir","scaleRev","270","",""
"","","","","","html-slider-response","60","259480","0.0-56.0","0u0wt8dfbv","20","NaN","<div style=""width:500px;"">
                            <p style=""font-size:50px; font-weight:bold;""
                            >angry</p>
                            <div style=""width:240px; margin: auto;"">
                                <img src=""images/map02_Spectral_scaleRev_orientDef_270.png"" style= ""width:200px""alt=""img"">
                            </div>
                        </div>","103","","0","","","","images/map02_Spectral_scaleRev_orientDef_270.png","angry","1","02","02","Spectral","orientDef","scaleRev","270","",""
"","","","","","html-slider-response","61","261115","0.0-57.0","0u0wt8dfbv","20","NaN","<div style=""width:500px;"">
                            <p style=""font-size:50px; font-weight:bold;""
                            >angry</p>
                            <div style=""width:240px; margin: auto;"">
                                <img src=""images/map15_GnBu_scaleRev_orientMir_270.png"" style= ""width:200px""alt=""img"">
                            </div>
                        </div>","-125","","0","","","","images/map15_GnBu_scaleRev_orientMir_270.png","angry","1","15","15","GnBu","orientMir","scaleRev","270","",""
"","","","","","html-slider-response","62","262922","0.0-58.0","0u0wt8dfbv","20","NaN","<div style=""width:500px;"">
                            <p style=""font-size:50px; font-weight:bold;""
                            >angry</p>
                            <div style=""width:240px; margin: auto;"">
                                <img src=""images/map15_RdPu_scaleRev_orientDef_270.png"" style= ""width:200px""alt=""img"">
                            </div>
                        </div>","-76","","0","","","","images/map15_RdPu_scaleRev_orientDef_270.png","angry","1","15","15","RdPu","orientDef","scaleRev","270","",""
"","","","","","html-slider-response","63","264531","0.0-59.0","0u0wt8dfbv","20","NaN","<div style=""width:500px;"">
                            <p style=""font-size:50px; font-weight:bold;""
                            >angry</p>
                            <div style=""width:240px; margin: auto;"">
                                <img src=""images/map13_Reds_scaleRev_orientDef_090.png"" style= ""width:200px""alt=""img"">
                            </div>
                        </div>","16","","0","","","","images/map13_Reds_scaleRev_orientDef_090.png","angry","1","13","13","Reds","orientDef","scaleRev","090","",""
"","","","","","html-slider-response","64","266295","0.0-60.0","0u0wt8dfbv","20","NaN","<div style=""width:500px;"">
                            <p style=""font-size:50px; font-weight:bold;""
                            >angry</p>
                            <div style=""width:240px; margin: auto;"">
                                <img src=""images/map12_Purples_scaleRev_orientDef_090.png"" style= ""width:200px""alt=""img"">
                            </div>
                        </div>","-59","","0","","","","images/map12_Purples_scaleRev_orientDef_090.png","angry","1","12","12","Purples","orientDef","scaleRev","090","",""
"","","","","","html-slider-response","65","269134","0.0-61.0","0u0wt8dfbv","20","NaN","<div style=""width:500px;"">
                            <p style=""font-size:50px; font-weight:bold;""
                            >angry</p>
                            <div style=""width:240px; margin: auto;"">
                                <img src=""images/map02_coolwarm_scaleDef_orientMir_000.png"" style= ""width:200px""alt=""img"">
                            </div>
                        </div>","-93","","0","","","","images/map02_coolwarm_scaleDef_orientMir_000.png","angry","1","02","02","coolwarm","orientMir","scaleDef","000","",""
"","","","","","html-slider-response","66","270833","0.0-62.0","0u0wt8dfbv","20","NaN","<div style=""width:500px;"">
                            <p style=""font-size:50px; font-weight:bold;""
                            >angry</p>
                            <div style=""width:240px; margin: auto;"">
                                <img src=""images/map10_cividis_scaleRev_orientMir_090.png"" style= ""width:200px""alt=""img"">
                            </div>
                        </div>","-82","","0","","","","images/map10_cividis_scaleRev_orientMir_090.png","angry","1","10","10","cividis","orientMir","scaleRev","090","",""
"","","","","","html-slider-response","67","272580","0.0-63.0","0u0wt8dfbv","20","NaN","<div style=""width:500px;"">
                            <p style=""font-size:50px; font-weight:bold;""
                            >angry</p>
                            <div style=""width:240px; margin: auto;"">
                                <img src=""images/map07_plasma_scaleDef_orientMir_180.png"" style= ""width:200px""alt=""img"">
                            </div>
                        </div>","64","","0","","","","images/map07_plasma_scaleDef_orientMir_180.png","angry","1","07","07","plasma","orientMir","scaleDef","180","",""
"","","","","","html-slider-response","68","274248","0.0-64.0","0u0wt8dfbv","20","NaN","<div style=""width:500px;"">
                            <p style=""font-size:50px; font-weight:bold;""
                            >angry</p>
                            <div style=""width:240px; margin: auto;"">
                                <img src=""images/map26_PRGn_scaleRev_orientMir_090.png"" style= ""width:200px""alt=""img"">
                            </div>
                        </div>","-86","","0","","","","images/map26_PRGn_scaleRev_orientMir_090.png","angry","1","26","26","PRGn","orientMir","scaleRev","090","",""
"","","","","","html-slider-response","69","276414","0.0-65.0","0u0wt8dfbv","20","NaN","<div style=""width:500px;"">
                            <p style=""font-size:50px; font-weight:bold;""
                            >angry</p>
                            <div style=""width:240px; margin: auto;"">
                                <img src=""images/map05_managua_scaleRev_orientMir_090.png"" style= ""width:200px""alt=""img"">
                            </div>
                        </div>","157","","0","","","","images/map05_managua_scaleRev_orientMir_090.png","angry","1","05","05","managua","orientMir","scaleRev","090","",""
"","","","","","html-slider-response","70","277998","0.0-66.0","0u0wt8dfbv","20","NaN","<div style=""width:500px;"">
                            <p style=""font-size:50px; font-weight:bold;""
                            >angry</p>
                            <div style=""width:240px; margin: auto;"">
                                <img src=""images/map27_PuOr_scaleRev_orientDef_090.png"" style= ""width:200px""alt=""img"">
                            </div>
                        </div>","79","","0","","","","images/map27_PuOr_scaleRev_orientDef_090.png","angry","1","27","27","PuOr","orientDef","scaleRev","090","",""
"","","","","","html-slider-response","71","279798","0.0-67.0","0u0wt8dfbv","20","NaN","<div style=""width:500px;"">
                            <p style=""font-size:50px; font-weight:bold;""
                            >angry</p>
                            <div style=""width:240px; margin: auto;"">
                                <img src=""images/map07_viridis_scaleDef_orientMir_000.png"" style= ""width:200px""alt=""img"">
                            </div>
                        </div>","-106","","0","","","","images/map07_viridis_scaleDef_orientMir_000.png","angry","1","07","07","viridis","orientMir","scaleDef","000","",""
"","","","","","html-slider-response","72","281932","0.0-68.0","0u0wt8dfbv","20","NaN","<div style=""width:500px;"">
                            <p style=""font-size:50px; font-weight:bold;""
                            >angry</p>
                            <div style=""width:240px; margin: auto;"">
                                <img src=""images/map05_seismic_scaleRev_orientDef_090.png"" style= ""width:200px""alt=""img"">
                            </div>
                        </div>","189","","0","","","","images/map05_seismic_scaleRev_orientDef_090.png","angry","1","05","05","seismic","orientDef","scaleRev","090","",""
"","","","","","html-slider-response","73","284247","0.0-69.0","0u0wt8dfbv","20","NaN","<div style=""width:500px;"">
                            <p style=""font-size:50px; font-weight:bold;""
                            >angry</p>
                            <div style=""width:240px; margin: auto;"">
                                <img src=""images/map02_RdYlGn_scaleRev_orientDef_090.png"" style= ""width:200px""alt=""img"">
                            </div>
                        </div>","156","","0","","","","images/map02_RdYlGn_scaleRev_orientDef_090.png","angry","1","02","02","RdYlGn","orientDef","scaleRev","090","",""
"","","","","","html-slider-response","74","286152","0.0-70.0","0u0wt8dfbv","20","NaN","<div style=""width:500px;"">
                            <p style=""font-size:50px; font-weight:bold;""
                            >angry</p>
                            <div style=""width:240px; margin: auto;"">
                                <img src=""images/map13_YlOrRd_scaleDef_orientMir_000.png"" style= ""width:200px""alt=""img"">
                            </div>
                        </div>","159","","0","","","","images/map13_YlOrRd_scaleDef_orientMir_000.png","angry","1","13","13","YlOrRd","orientMir","scaleDef","000","",""
"","","","","","html-slider-response","75","287865","0.0-71.0","0u0wt8dfbv","20","NaN","<div style=""width:500px;"">
                            <p style=""font-size:50px; font-weight:bold;""
                            >angry</p>
                            <div style=""width:240px; margin: auto;"">
                                <img src=""images/map15_RdPu_scaleDef_orientDef_180.png"" style= ""width:200px""alt=""img"">
                            </div>
                        </div>","-70","","0","","","","images/map15_RdPu_scaleDef_orientDef_180.png","angry","1","15","15","RdPu","orientDef","scaleDef","180","",""
"","","","","","html-slider-response","76","289799","0.0-72.0","0u0wt8dfbv","20","NaN","<div style=""width:500px;"">
                            <p style=""font-size:50px; font-weight:bold;""
                            >angry</p>
                            <div style=""width:240px; margin: auto;"">
                                <img src=""images/map12_Greens_scaleRev_orientMir_090.png"" style= ""width:200px""alt=""img"">
                            </div>
                        </div>","-84","","0","","","","images/map12_Greens_scaleRev_orientMir_090.png","angry","1","12","12","Greens","orientMir","scaleRev","090","",""
"","","","","","html-slider-response","77","292451","0.0-73.0","0u0wt8dfbv","20","NaN","<div style=""width:500px;"">
                            <p style=""font-size:50px; font-weight:bold;""
                            >angry</p>
                            <div style=""width:240px; margin: auto;"">
                                <img src=""images/map15_PuRd_scaleDef_orientDef_000.png"" style= ""width:200px""alt=""img"">
                            </div>
                        </div>","-153","","0","","","","images/map15_PuRd_scaleDef_orientDef_000.png","angry","1","15","15","PuRd","orientDef","scaleDef","000","",""
"","","","","","html-slider-response","78","294498","0.0-74.0","0u0wt8dfbv","20","NaN","<div style=""width:500px;"">
                            <p style=""font-size:50px; font-weight:bold;""
                            >angry</p>
                            <div style=""width:240px; margin: auto;"">
                                <img src=""images/map12_Oranges_scaleDef_orientMir_180.png"" style= ""width:200px""alt=""img"">
                            </div>
                        </div>","-78","","0","","","","images/map12_Oranges_scaleDef_orientMir_180.png","angry","1","12","12","Oranges","orientMir","scaleDef","180","",""
"","","","","","html-slider-response","79","296165","0.0-75.0","0u0wt8dfbv","20","NaN","<div style=""width:500px;"">
                            <p style=""font-size:50px; font-weight:bold;""
                            >angry</p>
                            <div style=""width:240px; margin: auto;"">
                                <img src=""images/map05_berlin_scaleDef_orientDef_180.png"" style= ""width:200px""alt=""img"">
                            </div>
                        </div>","200","","0","","","","images/map05_berlin_scaleDef_orientDef_180.png","angry","1","05","05","berlin","orientDef","scaleDef","180","",""
"","","","","","html-slider-response","80","298313","0.0-76.0","0u0wt8dfbv","20","NaN","<div style=""width:500px;"">
                            <p style=""font-size:50px; font-weight:bold;""
                            >angry</p>
                            <div style=""width:240px; margin: auto;"">
                                <img src=""images/map26_BrBG_scaleRev_orientMir_270.png"" style= ""width:200px""alt=""img"">
                            </div>
                        </div>","-123","","0","","","","images/map26_BrBG_scaleRev_orientMir_270.png","angry","1","26","26","BrBG","orientMir","scaleRev","270","",""
"","","","","","html-slider-response","81","300180","0.0-77.0","0u0wt8dfbv","20","NaN","<div style=""width:500px;"">
                            <p style=""font-size:50px; font-weight:bold;""
                            >angry</p>
                            <div style=""width:240px; margin: auto;"">
                                <img src=""images/map27_RdBu_scaleRev_orientMir_090.png"" style= ""width:200px""alt=""img"">
                            </div>
                        </div>","74","","0","","","","images/map27_RdBu_scaleRev_orientMir_090.png","angry","1","27","27","RdBu","orientMir","scaleRev","090","",""
"","","","","","html-slider-response","82","302114","0.0-78.0","0u0wt8dfbv","20","NaN","<div style=""width:500px;"">
                            <p style=""font-size:50px; font-weight:bold;""
                            >angry</p>
                            <div style=""width:240px; margin: auto;"">
                                <img src=""images/map23_YlGnBu_scaleDef_orientDef_180.png"" style= ""width:200px""alt=""img"">
                            </div>
                        </div>","-158","","0","","","","images/map23_YlGnBu_scaleDef_orientDef_180.png","angry","1","23","23","YlGnBu","orientDef","scaleDef","180","",""
"","","","","","html-slider-response","83","304015","0.0-79.0","0u0wt8dfbv","20","NaN","<div style=""width:500px;"">
                            <p style=""font-size:50px; font-weight:bold;""
                            >angry</p>
                            <div style=""width:240px; margin: auto;"">
                                <img src=""images/map02_bwr_scaleDef_orientMir_180.png"" style= ""width:200px""alt=""img"">
                            </div>
                        </div>","47","","0","","","","images/map02_bwr_scaleDef_orientMir_180.png","angry","1","02","02","bwr","orientMir","scaleDef","180","",""
"","","","","","html-slider-response","84","306030","0.0-80.0","0u0wt8dfbv","20","NaN","<div style=""width:500px;"">
                            <p style=""font-size:50px; font-weight:bold;""
                            >angry</p>
                            <div style=""width:240px; margin: auto;"">
                                <img src=""images/map07_turbo_scaleRev_orientDef_270.png"" style= ""width:200px""alt=""img"">
                            </div>
                        </div>","155","","0","","","","images/map07_turbo_scaleRev_orientDef_270.png","angry","1","07","07","turbo","orientDef","scaleRev","270","",""
"","","","","","html-slider-response","85","307916","0.0-81.0","0u0wt8dfbv","20","NaN","<div style=""width:500px;"">
                            <p style=""font-size:50px; font-weight:bold;""
                            >angry</p>
                            <div style=""width:240px; margin: auto;"">
                                <img src=""images/map15_BuPu_scaleDef_orientMir_000.png"" style= ""width:200px""alt=""img"">
                            </div>
                        </div>","-69","","0","","","","images/map15_BuPu_scaleDef_orientMir_000.png","angry","1","15","15","BuPu","orientMir","scaleDef","000","",""
"","","","","","html-slider-response","86","310015","0.0-82.0","0u0wt8dfbv","20","NaN","<div style=""width:500px;"">
                            <p style=""font-size:50px; font-weight:bold;""
                            >angry</p>
                            <div style=""width:240px; margin: auto;"">
                                <img src=""images/map12_Oranges_scaleRev_orientMir_270.png"" style= ""width:200px""alt=""img"">
                            </div>
                        </div>","-48","","0","","","","images/map12_Oranges_scaleRev_orientMir_270.png","angry","1","12","12","Oranges","orientMir","scaleRev","270","",""
"","","","","","html-slider-response","87","311615","0.0-83.0","0u0wt8dfbv","20","NaN","<div style=""width:500px;"">
                            <p style=""font-size:50px; font-weight:bold;""
                            >angry</p>
                            <div style=""width:240px; margin: auto;"">
                                <img src=""images/map23_BuGn_scaleRev_orientMir_270.png"" style= ""width:200px""alt=""img"">
                            </div>
                        </div>","-126","","0","","","","images/map23_BuGn_scaleRev_orientMir_270.png","angry","1","23","23","BuGn","orientMir","scaleRev","270","",""
"","","","","","html-slider-response","88","313533","0.0-84.0","0u0wt8dfbv","20","NaN","<div style=""width:500px;"">
                            <p style=""font-size:50px; font-weight:bold;""
                            >angry</p>
                            <div style=""width:240px; margin: auto;"">
                                <img src=""images/map07_viridis_scaleRev_orientMir_090.png"" style= ""width:200px""alt=""img"">
                            </div>
                        </div>","-170","","0","","","","images/map07_viridis_scaleRev_orientMir_090.png","angry","1","07","07","viridis","orientMir","scaleRev","090","",""
"","","","","","html-slider-response","89","315332","0.0-85.0","0u0wt8dfbv","20","NaN","<div style=""width:500px;"">
                            <p style=""font-size:50px; font-weight:bold;""
                            >angry</p>
                            <div style=""width:240px; margin: auto;"">
                                <img src=""images/map05_vanimo_scaleDef_orientMir_180.png"" style= ""width:200px""alt=""img"">
                            </div>
                        </div>","-91","","0","","","","images/map05_vanimo_scaleDef_orientMir_180.png","angry","1","05","05","vanimo","orientMir","scaleDef","180","",""
"","","","","","html-slider-response","90","317181","0.0-86.0","0u0wt8dfbv","20","NaN","<div style=""width:500px;"">
                            <p style=""font-size:50px; font-weight:bold;""
                            >angry</p>
                            <div style=""width:240px; margin: auto;"">
                                <img src=""images/map23_PuBu_scaleRev_orientDef_090.png"" style= ""width:200px""alt=""img"">
                            </div>
                        </div>","-101","","0","","","","images/map23_PuBu_scaleRev_orientDef_090.png","angry","1","23","23","PuBu","orientDef","scaleRev","090","",""
"","","","","","html-slider-response","91","318831","0.0-87.0","0u0wt8dfbv","20","NaN","<div style=""width:500px;"">
                            <p style=""font-size:50px; font-weight:bold;""
                            >angry</p>
                            <div style=""width:240px; margin: auto;"">
                                <img src=""images/map27_RdBu_scaleDef_orientMir_000.png"" style= ""width:200px""alt=""img"">
                            </div>
                        </div>","68","","0","","","","images/map27_RdBu_scaleDef_orientMir_000.png","angry","1","27","27","RdBu","orientMir","scaleDef","000","",""
"","","","","","html-slider-response","92","320566","0.0-88.0","0u0wt8dfbv","20","NaN","<div style=""width:500px;"">
                            <p style=""font-size:50px; font-weight:bold;""
                            >angry</p>
                            <div style=""width:240px; margin: auto;"">
                                <img src=""images/map12_Greens_scaleDef_orientMir_000.png"" style= ""width:200px""alt=""img"">
                            </div>
                        </div>","-122","","0","","","","images/map12_Greens_scaleDef_orientMir_000.png","angry","1","12","12","Greens","orientMir","scaleDef","000","",""
"","","","","","html-slider-response","93","322482","0.0-89.0","0u0wt8dfbv","20","NaN","<div style=""width:500px;"">
                            <p style=""font-size:50px; font-weight:bold;""
                            >angry</p>
                            <div style=""width:240px; margin: auto;"">
                                <img src=""images/map23_BuGn_scaleDef_orientMir_180.png"" style= ""width:200px""alt=""img"">
                            </div>
                        </div>","-158","","0","","","","images/map23_BuGn_scaleDef_orientMir_180.png","angry","1","23","23","BuGn","orientMir","scaleDef","180","",""
"","","","","","html-slider-response","94","324415","0.0-90.0","0u0wt8dfbv","20","NaN","<div style=""width:500px;"">
                            <p style=""font-size:50px; font-weight:bold;""
                            >angry</p>
                            <div style=""width:240px; margin: auto;"">
                                <img src=""images/map05_seismic_scaleDef_orientDef_000.png"" style= ""width:200px""alt=""img"">
                            </div>
                        </div>","183","","0","","","","images/map05_seismic_scaleDef_orientDef_000.png","angry","1","05","05","seismic","orientDef","scaleDef","000","",""
"","","","","","html-slider-response","95","326182","0.0-91.0","0u0wt8dfbv","20","NaN","<div style=""width:500px;"">
                            <p style=""font-size:50px; font-weight:bold;""
                            >angry</p>
                            <div style=""width:240px; margin: auto;"">
                                <img src=""images/map26_YlGn_scaleDef_orientDef_000.png"" style= ""width:200px""alt=""img"">
                            </div>
                        </div>","-183","","0","","","","images/map26_YlGn_scaleDef_orientDef_000.png","angry","1","26","26","YlGn","orientDef","scaleDef","000","",""
"","","","","","html-slider-response","96","327867","0.0-92.0","0u0wt8dfbv","20","NaN","<div style=""width:500px;"">
                            <p style=""font-size:50px; font-weight:bold;""
                            >angry</p>
                            <div style=""width:240px; margin: auto;"">
                                <img src=""images/map26_PRGn_scaleDef_orientMir_000.png"" style= ""width:200px""alt=""img"">
                            </div>
                        </div>","-82","","0","","","","images/map26_PRGn_scaleDef_orientMir_000.png","angry","1","26","26","PRGn","orientMir","scaleDef","000","",""
"","","","","","html-slider-response","97","329598","0.0-93.0","0u0wt8dfbv","20","NaN","<div style=""width:500px;"">
                            <p style=""font-size:50px; font-weight:bold;""
                            >angry</p>
                            <div style=""width:240px; margin: auto;"">
                                <img src=""images/map13_YlOrBr_scaleDef_orientDef_180.png"" style= ""width:200px""alt=""img"">
                            </div>
                        </div>","-37","","0","","","","images/map13_YlOrBr_scaleDef_orientDef_180.png","angry","1","13","13","YlOrBr","orientDef","scaleDef","180","",""
"","","","","","html-slider-response","98","331182","0.0-94.0","0u0wt8dfbv","20","NaN","<div style=""width:500px;"">
                            <p style=""font-size:50px; font-weight:bold;""
                            >angry</p>
                            <div style=""width:240px; margin: auto;"">
                                <img src=""images/map02_coolwarm_scaleRev_orientMir_090.png"" style= ""width:200px""alt=""img"">
                            </div>
                        </div>","200","","0","","","","images/map02_coolwarm_scaleRev_orientMir_090.png","angry","1","02","02","coolwarm","orientMir","scaleRev","090","",""
"","","","","","html-button-response","99","333170","0.0-95.0","0u0wt8dfbv","20","1481","<p>Great Job! You've finished block 1.<br></br> You have 4 block(s) left to go.<br></br></p>","0","","","","","","","","","","","","","","","",""
"","","","","","html-button-response","100","334439","0.0-96.0","0u0wt8dfbv","20","1266","<p>In this block of trials, you will be asked to rate how much you associate each map with:</p > <p style = 'font-size:150%; font-weight: bold'>fearful</p><br></br>","0","","","","","","","","","","","","","","","",""
"","","","","","html-slider-response","101","336167","0.0-97.0","0u0wt8dfbv","20","NaN","<div style=""width:500px;"">
                            <p style=""font-size:50px; font-weight:bold;""
                            >fearful</p>
                            <div style=""width:240px; margin: auto;"">
                                <img src=""images/map12_Oranges_scaleRev_orientMir_270.png"" style= ""width:200px""alt=""img"">
                            </div>
                        </div>","-82","","0","","","","images/map12_Oranges_scaleRev_orientMir_270.png","fearful","1","12","12","Oranges","orientMir","scaleRev","270","",""
"","","","","","html-slider-response","102","338766","0.0-98.0","0u0wt8dfbv","20","NaN","<div style=""width:500px;"">
                            <p style=""font-size:50px; font-weight:bold;""
                            >fearful</p>
                            <div style=""width:240px; margin: auto;"">
                                <img src=""images/map15_RdPu_scaleRev_orientDef_270.png"" style= ""width:200px""alt=""img"">
                            </div>
                        </div>","60","","0","","","","images/map15_RdPu_scaleRev_orientDef_270.png","fearful","1","15","15","RdPu","orientDef","scaleRev","270","",""
"","","","","","html-slider-response","103","341047","0.0-99.0","0u0wt8dfbv","20","NaN","<div style=""width:500px;"">
                            <p style=""font-size:50px; font-weight:bold;""
                            >fearful</p>
                            <div style=""width:240px; margin: auto;"">
                                <img src=""images/map07_gist_earth_scaleRev_orientDef_090.png"" style= ""width:200px""alt=""img"">
                            </div>
                        </div>","-113","","0","","","","images/map07_gist_earth_scaleRev_orientDef_090.png","fearful","1","07","07","gist","scaleRev","earth","orientDef","",""
"","","","","","html-slider-response","104","343197","0.0-100.0","0u0wt8dfbv","20","NaN","<div style=""width:500px;"">
                            <p style=""font-size:50px; font-weight:bold;""
                            >fearful</p>
                            <div style=""width:240px; margin: auto;"">
                                <img src=""images/map27_RdBu_scaleDef_orientMir_000.png"" style= ""width:200px""alt=""img"">
                            </div>
                        </div>","188","","0","","","","images/map27_RdBu_scaleDef_orientMir_000.png","fearful","1","27","27","RdBu","orientMir","scaleDef","000","",""
"","","","","","html-slider-response","105","345332","0.0-101.0","0u0wt8dfbv","20","NaN","<div style=""width:500px;"">
                            <p style=""font-size:50px; font-weight:bold;""
                            >fearful</p>
                            <div style=""width:240px; margin: auto;"">
                                <img src=""images/map02_RdYlGn_scaleRev_orientDef_090.png"" style= ""width:200px""alt=""img"">
                            </div>
                        </div>","56","","0","","","","images/map02_RdYlGn_scaleRev_orientDef_090.png","fearful","1","02","02","RdYlGn","orientDef","scaleRev","090","",""
"","","","","","html-slider-response","106","347236","0.0-102.0","0u0wt8dfbv","20","NaN","<div style=""width:500px;"">
                            <p style=""font-size:50px; font-weight:bold;""
                            >fearful</p>
                            <div style=""width:240px; margin: auto;"">
                                <img src=""images/map27_RdBu_scaleRev_orientMir_090.png"" style= ""width:200px""alt=""img"">
                            </div>
                        </div>","200","","0","","","","images/map27_RdBu_scaleRev_orientMir_090.png","fearful","1","27","27","RdBu","orientMir","scaleRev","090","",""
"","","","","","html-slider-response","107","349532","0.0-103.0","0u0wt8dfbv","20","NaN","<div style=""width:500px;"">
                            <p style=""font-size:50px; font-weight:bold;""
                            >fearful</p>
                            <div style=""width:240px; margin: auto;"">
                                <img src=""images/map23_BuGn_scaleRev_orientMir_270.png"" style= ""width:200px""alt=""img"">
                            </div>
                        </div>","-200","","0","","","","images/map23_BuGn_scaleRev_orientMir_270.png","fearful","1","23","23","BuGn","orientMir","scaleRev","270","",""
"","","","","","html-slider-response","108","352099","0.0-104.0","0u0wt8dfbv","20","NaN","<div style=""width:500px;"">
                            <p style=""font-size:50px; font-weight:bold;""
                            >fearful</p>
                            <div style=""width:240px; margin: auto;"">
                                <img src=""images/map12_Blues_scaleRev_orientDef_270.png"" style= ""width:200px""alt=""img"">
                            </div>
                        </div>","150","","0","","","","images/map12_Blues_scaleRev_orientDef_270.png","fearful","1","12","12","Blues","orientDef","scaleRev","270","",""
"","","","","","html-slider-response","109","354414","0.0-105.0","0u0wt8dfbv","20","NaN","<div style=""width:500px;"">
                            <p style=""font-size:50px; font-weight:bold;""
                            >fearful</p>
                            <div style=""width:240px; margin: auto;"">
                                <img src=""images/map10_inferno_scaleDef_orientDef_000.png"" style= ""width:200px""alt=""img"">
                            </div>
                        </div>","-110","","0","","","","images/map10_inferno_scaleDef_orientDef_000.png","fearful","1","10","10","inferno","orientDef","scaleDef","000","",""
"","","","","","html-slider-response","110","356537","0.0-106.0","0u0wt8dfbv","20","NaN","<div style=""width:500px;"">
                            <p style=""font-size:50px; font-weight:bold;""
                            >fearful</p>
                            <div style=""width:240px; margin: auto;"">
                                <img src=""images/map02_coolwarm_scaleRev_orientMir_090.png"" style= ""width:200px""alt=""img"">
                            </div>
                        </div>","-73","","0","","","","images/map02_coolwarm_scaleRev_orientMir_090.png","fearful","1","02","02","coolwarm","orientMir","scaleRev","090","",""
"","","","","","html-slider-response","111","358744","0.0-107.0","0u0wt8dfbv","20","NaN","<div style=""width:500px;"">
                            <p style=""font-size:50px; font-weight:bold;""
                            >fearful</p>
                            <div style=""width:240px; margin: auto;"">
                                <img src=""images/map05_berlin_scaleRev_orientDef_270.png"" style= ""width:200px""alt=""img"">
                            </div>
                        </div>","159","","0","","","","images/map05_berlin_scaleRev_orientDef_270.png","fearful","1","05","05","berlin","orientDef","scaleRev","270","",""
"","","","","","html-slider-response","112","360664","0.0-108.0","0u0wt8dfbv","20","NaN","<div style=""width:500px;"">
                            <p style=""font-size:50px; font-weight:bold;""
                            >fearful</p>
                            <div style=""width:240px; margin: auto;"">
                                <img src=""images/map13_Reds_scaleRev_orientDef_090.png"" style= ""width:200px""alt=""img"">
                            </div>
                        </div>","-112","","0","","","","images/map13_Reds_scaleRev_orientDef_090.png","fearful","1","13","13","Reds","orientDef","scaleRev","090","",""
"","","","","","html-slider-response","113","362614","0.0-109.0","0u0wt8dfbv","20","NaN","<div style=""width:500px;"">
                            <p style=""font-size:50px; font-weight:bold;""
                            >fearful</p>
                            <div style=""width:240px; margin: auto;"">
                                <img src=""images/map26_PRGn_scaleRev_orientMir_090.png"" style= ""width:200px""alt=""img"">
                            </div>
                        </div>","127","","0","","","","images/map26_PRGn_scaleRev_orientMir_090.png","fearful","1","26","26","PRGn","orientMir","scaleRev","090","",""
"","","","","","html-slider-response","114","365380","0.0-110.0","0u0wt8dfbv","20","NaN","<div style=""width:500px;"">
                            <p style=""font-size:50px; font-weight:bold;""
                            >fearful</p>
                            <div style=""width:240px; margin: auto;"">
                                <img src=""images/map12_Blues_scaleDef_orientDef_180.png"" style= ""width:200px""alt=""img"">
                            </div>
                        </div>","112","","0","","","","images/map12_Blues_scaleDef_orientDef_180.png","fearful","1","12","12","Blues","orientDef","scaleDef","180","",""
"","","","","","html-slider-response","115","367816","0.0-111.0","0u0wt8dfbv","20","NaN","<div style=""width:500px;"">
                            <p style=""font-size:50px; font-weight:bold;""
                            >fearful</p>
                            <div style=""width:240px; margin: auto;"">
                                <img src=""images/map10_cividis_scaleRev_orientMir_090.png"" style= ""width:200px""alt=""img"">
                            </div>
                        </div>","-110","","0","","","","images/map10_cividis_scaleRev_orientMir_090.png","fearful","1","10","10","cividis","orientMir","scaleRev","090","",""
"","","","","","html-slider-response","116","373483","0.0-112.0","0u0wt8dfbv","20","NaN","<div style=""width:500px;"">
                            <p style=""font-size:50px; font-weight:bold;""
                            >fearful</p>
                            <div style=""width:240px; margin: auto;"">
                                <img src=""images/map12_Purples_scaleRev_orientDef_090.png"" style= ""width:200px""alt=""img"">
                            </div>
                        </div>","138","","0","","","","images/map12_Purples_scaleRev_orientDef_090.png","fearful","1","12","12","Purples","orientDef","scaleRev","090","",""
"","","","","","html-slider-response","117","376397","0.0-113.0","0u0wt8dfbv","20","NaN","<div style=""width:500px;"">
                            <p style=""font-size:50px; font-weight:bold;""
                            >fearful</p>
                            <div style=""width:240px; margin: auto;"">
                                <img src=""images/map26_BrBG_scaleRev_orientMir_270.png"" style= ""width:200px""alt=""img"">
                            </div>
                        </div>","81","","0","","","","images/map26_BrBG_scaleRev_orientMir_270.png","fearful","1","26","26","BrBG","orientMir","scaleRev","270","",""
"","","","","","html-slider-response","118","379050","0.0-114.0","0u0wt8dfbv","20","NaN","<div style=""width:500px;"">
                            <p style=""font-size:50px; font-weight:bold;""
                            >fearful</p>
                            <div style=""width:240px; margin: auto;"">
                                <img src=""images/map27_RdYlBu_scaleRev_orientMir_270.png"" style= ""width:200px""alt=""img"">
                            </div>
                        </div>","-148","","0","","","","images/map27_RdYlBu_scaleRev_orientMir_270.png","fearful","1","27","27","RdYlBu","orientMir","scaleRev","270","",""
"","","","","","html-slider-response","119","381485","0.0-115.0","0u0wt8dfbv","20","NaN","<div style=""width:500px;"">
                            <p style=""font-size:50px; font-weight:bold;""
                            >fearful</p>
                            <div style=""width:240px; margin: auto;"">
                                <img src=""images/map02_bwr_scaleRev_orientMir_270.png"" style= ""width:200px""alt=""img"">
                            </div>
                        </div>","55","","0","","","","images/map02_bwr_scaleRev_orientMir_270.png","fearful","1","02","02","bwr","orientMir","scaleRev","270","",""
"","","","","","html-slider-response","120","383420","0.0-116.0","0u0wt8dfbv","20","NaN","<div style=""width:500px;"">
                            <p style=""font-size:50px; font-weight:bold;""
                            >fearful</p>
                            <div style=""width:240px; margin: auto;"">
                                <img src=""images/map23_BuGn_scaleDef_orientMir_180.png"" style= ""width:200px""alt=""img"">
                            </div>
                        </div>","-117","","0","","","","images/map23_BuGn_scaleDef_orientMir_180.png","fearful","1","23","23","BuGn","orientMir","scaleDef","180","",""
"","","","","","html-slider-response","121","386146","0.0-117.0","0u0wt8dfbv","20","NaN","<div style=""width:500px;"">
                            <p style=""font-size:50px; font-weight:bold;""
                            >fearful</p>
                            <div style=""width:240px; margin: auto;"">
                                <img src=""images/map05_managua_scaleRev_orientMir_090.png"" style= ""width:200px""alt=""img"">
                            </div>
                        </div>","-129","","0","","","","images/map05_managua_scaleRev_orientMir_090.png","fearful","1","05","05","managua","orientMir","scaleRev","090","",""
"","","","","","html-slider-response","122","388199","0.0-118.0","0u0wt8dfbv","20","NaN","<div style=""width:500px;"">
                            <p style=""font-size:50px; font-weight:bold;""
                            >fearful</p>
                            <div style=""width:240px; margin: auto;"">
                                <img src=""images/map12_Purples_scaleDef_orientDef_000.png"" style= ""width:200px""alt=""img"">
                            </div>
                        </div>","92","","0","","","","images/map12_Purples_scaleDef_orientDef_000.png","fearful","1","12","12","Purples","orientDef","scaleDef","000","",""
"","","","","","html-slider-response","123","390132","0.0-119.0","0u0wt8dfbv","20","NaN","<div style=""width:500px;"">
                            <p style=""font-size:50px; font-weight:bold;""
                            >fearful</p>
                            <div style=""width:240px; margin: auto;"">
                                <img src=""images/map13_YlOrBr_scaleDef_orientDef_180.png"" style= ""width:200px""alt=""img"">
                            </div>
                        </div>","-116","","0","","","","images/map13_YlOrBr_scaleDef_orientDef_180.png","fearful","1","13","13","YlOrBr","orientDef","scaleDef","180","",""
"","","","","","html-slider-response","124","392967","0.0-120.0","0u0wt8dfbv","20","NaN","<div style=""width:500px;"">
                            <p style=""font-size:50px; font-weight:bold;""
                            >fearful</p>
                            <div style=""width:240px; margin: auto;"">
                                <img src=""images/map26_YlGn_scaleDef_orientDef_000.png"" style= ""width:200px""alt=""img"">
                            </div>
                        </div>","-112","","0","","","","images/map26_YlGn_scaleDef_orientDef_000.png","fearful","1","26","26","YlGn","orientDef","scaleDef","000","",""
"","","","","","html-slider-response","125","395415","0.0-121.0","0u0wt8dfbv","20","NaN","<div style=""width:500px;"">
                            <p style=""font-size:50px; font-weight:bold;""
                            >fearful</p>
                            <div style=""width:240px; margin: auto;"">
                                <img src=""images/map23_PuBuGn_scaleRev_orientMir_090.png"" style= ""width:200px""alt=""img"">
                            </div>
                        </div>","-78","","0","","","","images/map23_PuBuGn_scaleRev_orientMir_090.png","fearful","1","23","23","PuBuGn","orientMir","scaleRev","090","",""
"","","","","","html-slider-response","126","397285","0.0-122.0","0u0wt8dfbv","20","NaN","<div style=""width:500px;"">
                            <p style=""font-size:50px; font-weight:bold;""
                            >fearful</p>
                            <div style=""width:240px; margin: auto;"">
                                <img src=""images/map13_YlOrRd_scaleRev_orientMir_090.png"" style= ""width:200px""alt=""img"">
                            </div>
                        </div>","-102","","0","","","","images/map13_YlOrRd_scaleRev_orientMir_090.png","fearful","1","13","13","YlOrRd","orientMir","scaleRev","090","",""
"","","","","","html-slider-response","127","399065","0.0-123.0","0u0wt8dfbv","20","NaN","<div style=""width:500px;"">
                            <p style=""font-size:50px; font-weight:bold;""
                            >fearful</p>
                            <div style=""width:240px; margin: auto;"">
                                <img src=""images/map26_BrBG_scaleDef_orientMir_180.png"" style= ""width:200px""alt=""img"">
                            </div>
                        </div>","111","","0","","","","images/map26_BrBG_scaleDef_orientMir_180.png","fearful","1","26","26","BrBG","orientMir","scaleDef","180","",""
"","","","","","html-slider-response","128","400930","0.0-124.0","0u0wt8dfbv","20","NaN","<div style=""width:500px;"">
                            <p style=""font-size:50px; font-weight:bold;""
                            >fearful</p>
                            <div style=""width:240px; margin: auto;"">
                                <img src=""images/map05_seismic_scaleDef_orientDef_000.png"" style= ""width:200px""alt=""img"">
                            </div>
                        </div>","135","","0","","","","images/map05_seismic_scaleDef_orientDef_000.png","fearful","1","05","05","seismic","orientDef","scaleDef","000","",""
"","","","","","html-slider-response","129","402951","0.0-125.0","0u0wt8dfbv","20","NaN","<div style=""width:500px;"">
                            <p style=""font-size:50px; font-weight:bold;""
                            >fearful</p>
                            <div style=""width:240px; margin: auto;"">
                                <img src=""images/map05_berlin_scaleDef_orientDef_180.png"" style= ""width:200px""alt=""img"">
                            </div>
                        </div>","67","","0","","","","images/map05_berlin_scaleDef_orientDef_180.png","fearful","1","05","05","berlin","orientDef","scaleDef","180","",""
"","","","","","html-slider-response","130","404834","0.0-126.0","0u0wt8dfbv","20","NaN","<div style=""width:500px;"">
                            <p style=""font-size:50px; font-weight:bold;""
                            >fearful</p>
                            <div style=""width:240px; margin: auto;"">
                                <img src=""images/map26_YlGn_scaleRev_orientDef_090.png"" style= ""width:200px""alt=""img"">
                            </div>
                        </div>","-188","","0","","","","images/map26_YlGn_scaleRev_orientDef_090.png","fearful","1","26","26","YlGn","orientDef","scaleRev","090","",""
"","","","","","html-slider-response","131","406683","0.0-127.0","0u0wt8dfbv","20","NaN","<div style=""width:500px;"">
                            <p style=""font-size:50px; font-weight:bold;""
                            >fearful</p>
                            <div style=""width:240px; margin: auto;"">
                                <img src=""images/map05_managua_scaleDef_orientMir_000.png"" style= ""width:200px""alt=""img"">
                            </div>
                        </div>","69","","0","","","","images/map05_managua_scaleDef_orientMir_000.png","fearful","1","05","05","managua","orientMir","scaleDef","000","",""
"","","","","","html-slider-response","132","409082","0.0-128.0","0u0wt8dfbv","20","NaN","<div style=""width:500px;"">
                            <p style=""font-size:50px; font-weight:bold;""
                            >fearful</p>
                            <div style=""width:240px; margin: auto;"">
                                <img src=""images/map02_coolwarm_scaleDef_orientMir_000.png"" style= ""width:200px""alt=""img"">
                            </div>
                        </div>","160","","0","","","","images/map02_coolwarm_scaleDef_orientMir_000.png","fearful","1","02","02","coolwarm","orientMir","scaleDef","000","",""
"","","","","","html-slider-response","133","411045","0.0-129.0","0u0wt8dfbv","20","NaN","<div style=""width:500px;"">
                            <p style=""font-size:50px; font-weight:bold;""
                            >fearful</p>
                            <div style=""width:240px; margin: auto;"">
                                <img src=""images/map07_plasma_scaleRev_orientMir_270.png"" style= ""width:200px""alt=""img"">
                            </div>
                        </div>","-70","","0","","","","images/map07_plasma_scaleRev_orientMir_270.png","fearful","1","07","07","plasma","orientMir","scaleRev","270","",""
"","","","","","html-slider-response","134","412949","0.0-130.0","0u0wt8dfbv","20","NaN","<div style=""width:500px;"">
                            <p style=""font-size:50px; font-weight:bold;""
                            >fearful</p>
                            <div style=""width:240px; margin: auto;"">
                                <img src=""images/map02_Spectral_scaleDef_orientDef_180.png"" style= ""width:200px""alt=""img"">
                            </div>
                        </div>","129","","0","","","","images/map02_Spectral_scaleDef_orientDef_180.png","fearful","1","02","02","Spectral","orientDef","scaleDef","180","",""
"","","","","","html-slider-response","135","414816","0.0-131.0","0u0wt8dfbv","20","NaN","<div style=""width:500px;"">
                            <p style=""font-size:50px; font-weight:bold;""
                            >fearful</p>
                            <div style=""width:240px; margin: auto;"">
                                <img src=""images/map10_inferno_scaleRev_orientDef_090.png"" style= ""width:200px""alt=""img"">
                            </div>
                        </div>","-103","","0","","","","images/map10_inferno_scaleRev_orientDef_090.png","fearful","1","10","10","inferno","orientDef","scaleRev","090","",""
"","","","","","html-slider-response","136","416969","0.0-132.0","0u0wt8dfbv","20","NaN","<div style=""width:500px;"">
                            <p style=""font-size:50px; font-weight:bold;""
                            >fearful</p>
                            <div style=""width:240px; margin: auto;"">
                                <img src=""images/map07_viridis_scaleRev_orientMir_090.png"" style= ""width:200px""alt=""img"">
                            </div>
                        </div>","-138","","0","","","","images/map07_viridis_scaleRev_orientMir_090.png","fearful","1","07","07","viridis","orientMir","scaleRev","090","",""
"","","","","","html-slider-response","137","419032","0.0-133.0","0u0wt8dfbv","20","NaN","<div style=""width:500px;"">
                            <p style=""font-size:50px; font-weight:bold;""
                            >fearful</p>
                            <div style=""width:240px; margin: auto;"">
                                <img src=""images/map07_turbo_scaleRev_orientDef_270.png"" style= ""width:200px""alt=""img"">
                            </div>
                        </div>","77","","0","","","","images/map07_turbo_scaleRev_orientDef_270.png","fearful","1","07","07","turbo","orientDef","scaleRev","270","",""
"","","","","","html-slider-response","138","420848","0.0-134.0","0u0wt8dfbv","20","NaN","<div style=""width:500px;"">
                            <p style=""font-size:50px; font-weight:bold;""
                            >fearful</p>
                            <div style=""width:240px; margin: auto;"">
                                <img src=""images/map15_PuRd_scaleDef_orientDef_000.png"" style= ""width:200px""alt=""img"">
                            </div>
                        </div>","-111","","0","","","","images/map15_PuRd_scaleDef_orientDef_000.png","fearful","1","15","15","PuRd","orientDef","scaleDef","000","",""
"","","","","","html-slider-response","139","422949","0.0-135.0","0u0wt8dfbv","20","NaN","<div style=""width:500px;"">
                            <p style=""font-size:50px; font-weight:bold;""
                            >fearful</p>
                            <div style=""width:240px; margin: auto;"">
                                <img src=""images/map07_turbo_scaleDef_orientDef_180.png"" style= ""width:200px""alt=""img"">
                            </div>
                        </div>","85","","0","","","","images/map07_turbo_scaleDef_orientDef_180.png","fearful","1","07","07","turbo","orientDef","scaleDef","180","",""
"","","","","","html-slider-response","140","424866","0.0-136.0","0u0wt8dfbv","20","NaN","<div style=""width:500px;"">
                            <p style=""font-size:50px; font-weight:bold;""
                            >fearful</p>
                            <div style=""width:240px; margin: auto;"">
                                <img src=""images/map15_PuRd_scaleRev_orientDef_090.png"" style= ""width:200px""alt=""img"">
                            </div>
                        </div>","-119","","0","","","","images/map15_PuRd_scaleRev_orientDef_090.png","fearful","1","15","15","PuRd","orientDef","scaleRev","090","",""
"","","","","","html-button-response","141","426439","0.0-137.0","0u0wt8dfbv","20","1067","<p>You are doing great!<br></br> You are halway done with the current block. When you are ready to continue, click the 'Continue' button.</p>","0","","","","","","","","","","","","","","","",""
"","","","","","html-slider-response","142","428615","0.0-138.0","0u0wt8dfbv","20","NaN","<div style=""width:500px;"">
                            <p style=""font-size:50px; font-weight:bold;""
                            >fearful</p>
                            <div style=""width:240px; margin: auto;"">
                                <img src=""images/map27_PuOr_scaleRev_orientDef_090.png"" style= ""width:200px""alt=""img"">
                            </div>
                        </div>","130","","0","","","","images/map27_PuOr_scaleRev_orientDef_090.png","fearful","1","27","27","PuOr","orientDef","scaleRev","090","",""
"","","","","","html-slider-response","143","430831","0.0-139.0","0u0wt8dfbv","20","NaN","<div style=""width:500px;"">
                            <p style=""font-size:50px; font-weight:bold;""
                            >fearful</p>
                            <div style=""width:240px; margin: auto;"">
                                <img src=""images/map27_PuOr_scaleDef_orientDef_000.png"" style= ""width:200px""alt=""img"">
                            </div>
                        </div>","120","","0","","","","images/map27_PuOr_scaleDef_orientDef_000.png","fearful","1","27","27","PuOr","orientDef","scaleDef","000","",""
"","","","","","html-slider-response","144","432866","0.0-140.0","0u0wt8dfbv","20","NaN","<div style=""width:500px;"">
                            <p style=""font-size:50px; font-weight:bold;""
                            >fearful</p>
                            <div style=""width:240px; margin: auto;"">
                                <img src=""images/map10_magma_scaleRev_orientDef_270.png"" style= ""width:200px""alt=""img"">
                            </div>
                        </div>","-111","","0","","","","images/map10_magma_scaleRev_orientDef_270.png","fearful","1","10","10","magma","orientDef","scaleRev","270","",""
"","","","","","html-slider-response","145","434913","0.0-141.0","0u0wt8dfbv","20","NaN","<div style=""width:500px;"">
                            <p style=""font-size:50px; font-weight:bold;""
                            >fearful</p>
                            <div style=""width:240px; margin: auto;"">
                                <img src=""images/map23_PuBuGn_scaleDef_orientMir_000.png"" style= ""width:200px""alt=""img"">
                            </div>
                        </div>","94","","0","","","","images/map23_PuBuGn_scaleDef_orientMir_000.png","fearful","1","23","23","PuBuGn","orientMir","scaleDef","000","",""
"","","","","","html-slider-response","146","437115","0.0-142.0","0u0wt8dfbv","20","NaN","<div style=""width:500px;"">
                            <p style=""font-size:50px; font-weight:bold;""
                            >fearful</p>
                            <div style=""width:240px; margin: auto;"">
                                <img src=""images/map27_RdGy_scaleRev_orientDef_270.png"" style= ""width:200px""alt=""img"">
                            </div>
                        </div>","156","","0","","","","images/map27_RdGy_scaleRev_orientDef_270.png","fearful","1","27","27","RdGy","orientDef","scaleRev","270","",""
"","","","","","html-slider-response","147","439148","0.0-143.0","0u0wt8dfbv","20","NaN","<div style=""width:500px;"">
                            <p style=""font-size:50px; font-weight:bold;""
                            >fearful</p>
                            <div style=""width:240px; margin: auto;"">
                                <img src=""images/map23_YlGnBu_scaleRev_orientDef_270.png"" style= ""width:200px""alt=""img"">
                            </div>
                        </div>","128","","0","","","","images/map23_YlGnBu_scaleRev_orientDef_270.png","fearful","1","23","23","YlGnBu","orientDef","scaleRev","270","",""
"","","","","","html-slider-response","148","440982","0.0-144.0","0u0wt8dfbv","20","NaN","<div style=""width:500px;"">
                            <p style=""font-size:50px; font-weight:bold;""
                            >fearful</p>
                            <div style=""width:240px; margin: auto;"">
                                <img src=""images/map26_PiYG_scaleRev_orientDef_270.png"" style= ""width:200px""alt=""img"">
                            </div>
                        </div>","93","","0","","","","images/map26_PiYG_scaleRev_orientDef_270.png","fearful","1","26","26","PiYG","orientDef","scaleRev","270","",""
"","","","","","html-slider-response","149","442583","0.0-145.0","0u0wt8dfbv","20","NaN","<div style=""width:500px;"">
                            <p style=""font-size:50px; font-weight:bold;""
                            >fearful</p>
                            <div style=""width:240px; margin: auto;"">
                                <img src=""images/map12_Greens_scaleRev_orientMir_090.png"" style= ""width:200px""alt=""img"">
                            </div>
                        </div>","-200","","0","","","","images/map12_Greens_scaleRev_orientMir_090.png","fearful","1","12","12","Greens","orientMir","scaleRev","090","",""
"","","","","","html-slider-response","150","444346","0.0-146.0","0u0wt8dfbv","20","NaN","<div style=""width:500px;"">
                            <p style=""font-size:50px; font-weight:bold;""
                            >fearful</p>
                            <div style=""width:240px; margin: auto;"">
                                <img src=""images/map13_OrRd_scaleDef_orientMir_180.png"" style= ""width:200px""alt=""img"">
                            </div>
                        </div>","-93","","0","","","","images/map13_OrRd_scaleDef_orientMir_180.png","fearful","1","13","13","OrRd","orientMir","scaleDef","180","",""
"","","","","","html-slider-response","151","446383","0.0-147.0","0u0wt8dfbv","20","NaN","<div style=""width:500px;"">
                            <p style=""font-size:50px; font-weight:bold;""
                            >fearful</p>
                            <div style=""width:240px; margin: auto;"">
                                <img src=""images/map23_PuBu_scaleDef_orientDef_000.png"" style= ""width:200px""alt=""img"">
                            </div>
                        </div>","102","","0","","","","images/map23_PuBu_scaleDef_orientDef_000.png","fearful","1","23","23","PuBu","orientDef","scaleDef","000","",""
"","","","","","html-slider-response","152","447931","0.0-148.0","0u0wt8dfbv","20","NaN","<div style=""width:500px;"">
                            <p style=""font-size:50px; font-weight:bold;""
                            >fearful</p>
                            <div style=""width:240px; margin: auto;"">
                                <img src=""images/map13_YlOrBr_scaleRev_orientDef_270.png"" style= ""width:200px""alt=""img"">
                            </div>
                        </div>","-120","","0","","","","images/map13_YlOrBr_scaleRev_orientDef_270.png","fearful","1","13","13","YlOrBr","orientDef","scaleRev","270","",""
"","","","","","html-slider-response","153","449699","0.0-149.0","0u0wt8dfbv","20","NaN","<div style=""width:500px;"">
                            <p style=""font-size:50px; font-weight:bold;""
                            >fearful</p>
                            <div style=""width:240px; margin: auto;"">
                                <img src=""images/map23_PuBu_scaleRev_orientDef_090.png"" style= ""width:200px""alt=""img"">
                            </div>
                        </div>","-118","","0","","","","images/map23_PuBu_scaleRev_orientDef_090.png","fearful","1","23","23","PuBu","orientDef","scaleRev","090","",""
"","","","","","html-slider-response","154","452734","0.0-150.0","0u0wt8dfbv","20","NaN","<div style=""width:500px;"">
                            <p style=""font-size:50px; font-weight:bold;""
                            >fearful</p>
                            <div style=""width:240px; margin: auto;"">
                                <img src=""images/map07_viridis_scaleDef_orientMir_000.png"" style= ""width:200px""alt=""img"">
                            </div>
                        </div>","-95","","0","","","","images/map07_viridis_scaleDef_orientMir_000.png","fearful","1","07","07","viridis","orientMir","scaleDef","000","",""
"","","","","","html-slider-response","155","454569","0.0-151.0","0u0wt8dfbv","20","NaN","<div style=""width:500px;"">
                            <p style=""font-size:50px; font-weight:bold;""
                            >fearful</p>
                            <div style=""width:240px; margin: auto;"">
                                <img src=""images/map26_PiYG_scaleDef_orientDef_180.png"" style= ""width:200px""alt=""img"">
                            </div>
                        </div>","141","","0","","","","images/map26_PiYG_scaleDef_orientDef_180.png","fearful","1","26","26","PiYG","orientDef","scaleDef","180","",""
"","","","","","html-slider-response","156","456448","0.0-152.0","0u0wt8dfbv","20","NaN","<div style=""width:500px;"">
                            <p style=""font-size:50px; font-weight:bold;""
                            >fearful</p>
                            <div style=""width:240px; margin: auto;"">
                                <img src=""images/map05_vanimo_scaleRev_orientMir_270.png"" style= ""width:200px""alt=""img"">
                            </div>
                        </div>","110","","0","","","","images/map05_vanimo_scaleRev_orientMir_270.png","fearful","1","05","05","vanimo","orientMir","scaleRev","270","",""
"","","","","","html-slider-response","157","458415","0.0-153.0","0u0wt8dfbv","20","NaN","<div style=""width:500px;"">
                            <p style=""font-size:50px; font-weight:bold;""
                            >fearful</p>
                            <div style=""width:240px; margin: auto;"">
                                <img src=""images/map02_Spectral_scaleRev_orientDef_270.png"" style= ""width:200px""alt=""img"">
                            </div>
