"success","timeout","failed_images","failed_audio","failed_video","trial_type","trial_index","time_elapsed","internal_node_id","subject_id","condition_num","rt","stimulus","response","question_order","slider_start","practiceTrial","practiceTrialNum","correct","image_path","concept","repetition","map_id","map_num","scale_name","orientation_code","mapping_code","rotation_code","ishihara_plate","correct_response"
"true","false","[]","[]","[]","preload","0","3121","0.0-0.0","16srse6k5c","48","","","","","","","","","","","","","","","","","","",""
"","","","","","html-button-response","1","8988","0.0-1.0","16srse6k5c","48","5864","Welcome to our experiment!<p>At the bottom of this screen, you will see a button that says ""Begin Experiment"".<br>Please only click that button when you are ready to complete the 30 minute experiment in one sitting.</p><p> Once you click that button, it will not be possible to restart the experiment.","0","","","","","","","","","","","","","","","",""
"true","","","","","fullscreen","2","131496","0.0-2.0","16srse6k5c","48","121495","","","","","","","","","","","","","","","","","",""
"","","","","","survey-multi-select","3","167995","0.0-3.0","16srse6k5c","48","36492","","{""Consent"":[""<strong>I consent</strong>""]}","[0]","","","","","","","","","","","","","","",""
"","","","","","html-button-response","4","174060","0.0-4.0","16srse6k5c","48","6064","Welcome! <p> This experiment involves two parts: demographic information, followed by the experimental task.<p> It will take about 30 minutes to complete both parts.","0","","","","","","","","","","","","","","","",""
"","","","","","survey-text","5","191405","0.0-5.0","16srse6k5c","48","17336","","{""Age"":""21"",""Gender"":""Female"",""Race/ethnicity"":""White"",""Languages"":""English, some spanish""}","","","","","","","","","","","","","","","",""
"","","","","","html-slider-response","6","233468","0.0-6.0","16srse6k5c","48","42060","<div style='text-align:left; font-size:20px; line-height:25px; width: 1000px;'>
                                During this experiment you will be asked to rate how much you associate maps with                    different concepts.<br> Below, you can see some examples of the maps you will be asked to rate. Above the maps
                    is the list of concepts.<br>You will be asked                    to rate how much you associate each map with each concept on a scale from 'not at all' to 'very much' like the
                    one below. <br><br>
                    Now, please look at the list of concepts and maps. For each concept, think about the map you associate 'very
                    much' with the concept.<br>                     When you see that map during the experiment, please rate it near the 'very much' endpoint of the
                    scale.<br>Now, please think about which map you associate 'not at all'                     with each concept. When you see that map during the experiment, please rate it near the 'not at all' endpoint
                    of the scale.<br>
                    Please use the full range of the scale. That is, if a map is somewhat associated with the concept, you would
                    click partway between the middle point and right side of the scale.                    You will be asked to rate each map for a given concept before moving on to the next concept.<br>Press the
                    'Continue' button for instructions on how to use the slider.                    <br>
                </div>

                <div style=""width: 500px; margin: 0 auto;"">
                    <!-- Centered text paragraphs -->
                    <div style=""text-align: center; width: 500px;"">
                        <p style=""font-size:25px; line-height:15px;"">
                            happy&nbsp;&nbsp;&nbsp;&nbsp;
                            angry&nbsp;&nbsp;&nbsp;&nbsp;
                            fearful&nbsp;&nbsp;&nbsp;&nbsp;
                            sad&nbsp;&nbsp;&nbsp;&nbsp;
                            disgust
                        </p>
                        <!-- <p style=""font-size:20px; line-height:15px;"">angry</p>
                        <p style=""font-size:20px;line-height:15px;"">fearful</p>
                        <p style=""font-size:20px;line-height:15px;"">sad</p>
                        <p style=""font-size:20px;line-height:15px;"">disgust</p> -->
                    </div>
            

                    <!-- Grid section -->
                   <div style=""display: flex; justify-content: center; padding-top: 15px;"">
                    <div style=""display: grid; grid-template-columns: repeat(10, 55px); grid-gap: 5px; width: auto;"">
                        <img src=""images/map15_plasma_scaleRev_orientDef_270.png"" alt=""map"" style=""width: 100%;""><img src=""images/map07_BrBG_scaleRev_orientDef_270.png"" alt=""map"" style=""width: 100%;""><img src=""images/map12_coolwarm_scaleDef_orientDef_000.png"" alt=""map"" style=""width: 100%;""><img src=""images/map13_managua_scaleRev_orientDef_090.png"" alt=""map"" style=""width: 100%;""><img src=""images/map15_inferno_scaleDef_orientMir_000.png"" alt=""map"" style=""width: 100%;""><img src=""images/map13_gist_earth_scaleDef_orientMir_000.png"" alt=""map"" style=""width: 100%;""><img src=""images/map10_Spectral_scaleRev_orientMir_270.png"" alt=""map"" style=""width: 100%;""><img src=""images/map05_BuGn_scaleRev_orientDef_270.png"" alt=""map"" style=""width: 100%;""><img src=""images/map10_RdYlBu_scaleDef_orientDef_180.png"" alt=""map"" style=""width: 100%;""><img src=""images/map27_YlOrRd_scaleDef_orientDef_000.png"" alt=""map"" style=""width: 100%;""><img src=""images/map23_Blues_scaleDef_orientMir_180.png"" alt=""map"" style=""width: 100%;""><img src=""images/map02_YlGnBu_scaleDef_orientMir_180.png"" alt=""map"" style=""width: 100%;""><img src=""images/map12_berlin_scaleRev_orientMir_270.png"" alt=""map"" style=""width: 100%;""><img src=""images/map02_GnBu_scaleDef_orientDef_180.png"" alt=""map"" style=""width: 100%;""><img src=""images/map27_PuRd_scaleDef_orientMir_000.png"" alt=""map"" style=""width: 100%;""><img src=""images/map23_cividis_scaleRev_orientDef_090.png"" alt=""map"" style=""width: 100%;""><img src=""images/map15_magma_scaleRev_orientMir_270.png"" alt=""map"" style=""width: 100%;""><img src=""images/map07_PuOr_scaleDef_orientMir_000.png"" alt=""map"" style=""width: 100%;""><img src=""images/map23_Purples_scaleDef_orientMir_000.png"" alt=""map"" style=""width: 100%;""><img src=""images/map07_RdGy_scaleDef_orientMir_180.png"" alt=""map"" style=""width: 100%;""><img src=""images/map12_bwr_scaleDef_orientDef_180.png"" alt=""map"" style=""width: 100%;""><img src=""images/map27_RdPu_scaleRev_orientMir_270.png"" alt=""map"" style=""width: 100%;""><img src=""images/map10_RdBu_scaleDef_orientDef_000.png"" alt=""map"" style=""width: 100%;""><img src=""images/map13_turbo_scaleDef_orientMir_180.png"" alt=""map"" style=""width: 100%;""><img src=""images/map10_RdYlGn_scaleRev_orientMir_090.png"" alt=""map"" style=""width: 100%;""><img src=""images/map12_seismic_scaleRev_orientMir_090.png"" alt=""map"" style=""width: 100%;""><img src=""images/map02_PuBu_scaleDef_orientMir_000.png"" alt=""map"" style=""width: 100%;""><img src=""images/map26_Reds_scaleDef_orientMir_000.png"" alt=""map"" style=""width: 100%;""><img src=""images/map26_YlOrBr_scaleRev_orientMir_270.png"" alt=""map"" style=""width: 100%;""><img src=""images/map05_PuBuGn_scaleRev_orientDef_090.png"" alt=""map"" style=""width: 100%;""><img src=""images/map27_OrRd_scaleRev_orientDef_270.png"" alt=""map"" style=""width: 100%;""><img src=""images/map23_Greys_scaleRev_orientDef_270.png"" alt=""map"" style=""width: 100%;""><img src=""images/map15_viridis_scaleDef_orientDef_000.png"" alt=""map"" style=""width: 100%;""><img src=""images/map05_YlGn_scaleDef_orientMir_000.png"" alt=""map"" style=""width: 100%;""><img src=""images/map13_vanimo_scaleRev_orientDef_270.png"" alt=""map"" style=""width: 100%;""><img src=""images/map07_PRGn_scaleRev_orientDef_090.png"" alt=""map"" style=""width: 100%;""><img src=""images/map05_PiYG_scaleDef_orientMir_180.png"" alt=""map"" style=""width: 100%;""><img src=""images/map26_Greens_scaleRev_orientDef_090.png"" alt=""map"" style=""width: 100%;""><img src=""images/map26_Oranges_scaleDef_orientDef_180.png"" alt=""map"" style=""width: 100%;""><img src=""images/map02_BuPu_scaleDef_orientDef_000.png"" alt=""map"" style=""width: 100%;"">
                    </div>
                </div>

                    <!-- Clear floats -->
                    <div style=""clear: both;""></div>
                </div>
                            ","null","","0","true","","","","","","","","","","","","",""
"","","","","","html-button-response","7","241910","0.0-7.0","16srse6k5c","48","8440","<div style=""width:800px;""><p style=""text-align:left"">To move the slider, click and drag your cursor to the location of the scale where you would like to make your rating and then let go. When you let go of the slider, your response will be recorded and the next trial will begin. <br>
                    We are interested in your initial impressions of each map for the given concept, so please go with your first intuition. <br>
                    Before you begin the experiment, there will be four training trials for you to practice using the scale. <br>
                     When you are ready to start the training trials, please click ""Continue"".</p><br></div>","0","","","","","","","","","","","","","","","",""
"","","","","","html-slider-response","8","244742","0.0-8.0-0.0","16srse6k5c","48","NaN","<div style=""width:500px;"">
                                    <p style=""font-size:25px;"">Please move the slider all the way to the <br> right endpoint of the scale</p>

                                    </div>
                                </div>","200","","0","true","0","true","","","","","","","","","","",""
"","","","","","html-button-response","9","246184","0.0-8.0-1.0","16srse6k5c","48","937","<p align='center'><b>Good job!</b> Click on 'Continue' to proceed.</p>","0","","","","","","","","","","","","","","","",""
"","","","","","html-slider-response","10","248057","0.0-9.0-0.0","16srse6k5c","48","NaN","<div style=""width:500px;"">
                                    <p style=""font-size:25px;"">Please move the slider all the way to the <br> left endpoint of the scale</p>

                                    </div>
                                </div>","-200","","0","true","1","true","","","","","","","","","","",""
"","","","","","html-button-response","11","249373","0.0-9.0-1.0","16srse6k5c","48","812","<p align='center'><b>Good job!</b> Click on 'Continue' to proceed.</p>","0","","","","","","","","","","","","","","","",""
"","","","","","html-slider-response","12","252255","0.0-10.0-0.0","16srse6k5c","48","NaN","<div style=""width:500px;"">
                                    <p style=""font-size:25px;"">Please move the slider halfway between the center and right endpoint of the scale</p>

                                    </div>
                                </div>","106","","0","true","2","true","","","","","","","","","","",""
"","","","","","html-button-response","13","253493","0.0-10.0-1.0","16srse6k5c","48","731","<p align='center'><b>Good job!</b> Click on 'Continue' to proceed.</p>","0","","","","","","","","","","","","","","","",""
"","","","","","html-slider-response","14","255155","0.0-11.0-0.0","16srse6k5c","48","NaN","<div style=""width:500px;"">
                                    <p style=""font-size:25px;"">Please move the slider halfway between the center and left endpoint of the scale</p>

                                    </div>
                                </div>","-111","","0","true","3","false","","","","","","","","","","",""
"","","","","","html-button-response","15","257568","0.0-11.0-1.0","16srse6k5c","48","1894","<p align='center'><b>Not quite!</b> The slider was not placed near the instructed located. Click on 'Continue' to try again. </p>","0","","","","","","","","","","","","","","","",""
"","","","","","html-slider-response","16","259673","0.0-11.1-0.1","16srse6k5c","48","NaN","<div style=""width:500px;"">
                                    <p style=""font-size:25px;"">Please move the slider halfway between the center and left endpoint of the scale</p>

                                    </div>
                                </div>","-99","","0","true","3","true","","","","","","","","","","",""
"","","","","","html-button-response","17","261538","0.0-11.1-1.1","16srse6k5c","48","1361","<p align='center'><b>Good job!</b> Click on 'Continue' to proceed.</p>","0","","","","","","","","","","","","","","","",""
"","","","","","html-button-response","18","263275","0.0-12.0","16srse6k5c","48","1736","<p>Great job! You've completed the practice trials. Now you will begin the main task.</p>","0","","","","","","","","","","","","","","","",""
"","","","","","html-button-response","19","266209","0.0-13.0","16srse6k5c","48","2932","<p>In this block of trials, you will be asked to rate how much you associate each map with:</p > <p style = 'font-size:150%; font-weight: bold'>happy</p><br></br>","0","","","","","","","","","","","","","","","",""
"","","","","","html-slider-response","20","268989","0.0-14.0","16srse6k5c","48","NaN","<div style=""width:500px;"">
                            <p style=""font-size:50px; font-weight:bold;""
                            >happy</p>
                            <div style=""width:240px; margin: auto;"">
                                <img src=""images/map26_Reds_scaleDef_orientMir_000.png"" style= ""width:200px""alt=""img"">
                            </div>
                        </div>","-164","","0","","","","images/map26_Reds_scaleDef_orientMir_000.png","happy","1","26","26","Reds","orientMir","scaleDef","000","",""
"","","","","","html-slider-response","21","271684","0.0-15.0","16srse6k5c","48","NaN","<div style=""width:500px;"">
                            <p style=""font-size:50px; font-weight:bold;""
                            >happy</p>
                            <div style=""width:240px; margin: auto;"">
                                <img src=""images/map12_berlin_scaleRev_orientMir_270.png"" style= ""width:200px""alt=""img"">
                            </div>
                        </div>","-131","","0","","","","images/map12_berlin_scaleRev_orientMir_270.png","happy","1","12","12","berlin","orientMir","scaleRev","270","",""
"","","","","","html-slider-response","22","274453","0.0-16.0","16srse6k5c","48","NaN","<div style=""width:500px;"">
                            <p style=""font-size:50px; font-weight:bold;""
                            >happy</p>
                            <div style=""width:240px; margin: auto;"">
                                <img src=""images/map23_Purples_scaleDef_orientMir_000.png"" style= ""width:200px""alt=""img"">
                            </div>
                        </div>","-122","","0","","","","images/map23_Purples_scaleDef_orientMir_000.png","happy","1","23","23","Purples","orientMir","scaleDef","000","",""
"","","","","","html-slider-response","23","277504","0.0-17.0","16srse6k5c","48","NaN","<div style=""width:500px;"">
                            <p style=""font-size:50px; font-weight:bold;""
                            >happy</p>
                            <div style=""width:240px; margin: auto;"">
                                <img src=""images/map13_gist_earth_scaleRev_orientMir_090.png"" style= ""width:200px""alt=""img"">
                            </div>
                        </div>","-102","","0","","","","images/map13_gist_earth_scaleRev_orientMir_090.png","happy","1","13","13","gist","scaleRev","earth","orientMir","",""
"","","","","","html-slider-response","24","280138","0.0-18.0","16srse6k5c","48","NaN","<div style=""width:500px;"">
                            <p style=""font-size:50px; font-weight:bold;""
                            >happy</p>
                            <div style=""width:240px; margin: auto;"">
                                <img src=""images/map26_Greens_scaleDef_orientDef_000.png"" style= ""width:200px""alt=""img"">
                            </div>
                        </div>","-119","","0","","","","images/map26_Greens_scaleDef_orientDef_000.png","happy","1","26","26","Greens","orientDef","scaleDef","000","",""
"","","","","","html-slider-response","25","282639","0.0-19.0","16srse6k5c","48","NaN","<div style=""width:500px;"">
                            <p style=""font-size:50px; font-weight:bold;""
                            >happy</p>
                            <div style=""width:240px; margin: auto;"">
                                <img src=""images/map26_Oranges_scaleDef_orientDef_180.png"" style= ""width:200px""alt=""img"">
                            </div>
                        </div>","-74","","0","","","","images/map26_Oranges_scaleDef_orientDef_180.png","happy","1","26","26","Oranges","orientDef","scaleDef","180","",""
"","","","","","html-slider-response","26","285855","0.0-20.0","16srse6k5c","48","NaN","<div style=""width:500px;"">
                            <p style=""font-size:50px; font-weight:bold;""
                            >happy</p>
                            <div style=""width:240px; margin: auto;"">
                                <img src=""images/map07_RdGy_scaleRev_orientMir_270.png"" style= ""width:200px""alt=""img"">
                            </div>
                        </div>","-113","","0","","","","images/map07_RdGy_scaleRev_orientMir_270.png","happy","1","07","07","RdGy","orientMir","scaleRev","270","",""
"","","","","","html-slider-response","27","288758","0.0-21.0","16srse6k5c","48","NaN","<div style=""width:500px;"">
                            <p style=""font-size:50px; font-weight:bold;""
                            >happy</p>
                            <div style=""width:240px; margin: auto;"">
                                <img src=""images/map27_PuRd_scaleDef_orientMir_000.png"" style= ""width:200px""alt=""img"">
                            </div>
                        </div>","-20","","0","","","","images/map27_PuRd_scaleDef_orientMir_000.png","happy","1","27","27","PuRd","orientMir","scaleDef","000","",""
"","","","","","html-slider-response","28","291422","0.0-22.0","16srse6k5c","48","NaN","<div style=""width:500px;"">
                            <p style=""font-size:50px; font-weight:bold;""
                            >happy</p>
                            <div style=""width:240px; margin: auto;"">
                                <img src=""images/map23_cividis_scaleRev_orientDef_090.png"" style= ""width:200px""alt=""img"">
                            </div>
                        </div>","-89","","0","","","","images/map23_cividis_scaleRev_orientDef_090.png","happy","1","23","23","cividis","orientDef","scaleRev","090","",""
"","","","","","html-slider-response","29","294447","0.0-23.0","16srse6k5c","48","NaN","<div style=""width:500px;"">
                            <p style=""font-size:50px; font-weight:bold;""
                            >happy</p>
                            <div style=""width:240px; margin: auto;"">
                                <img src=""images/map27_RdPu_scaleDef_orientMir_180.png"" style= ""width:200px""alt=""img"">
                            </div>
                        </div>","21","","0","","","","images/map27_RdPu_scaleDef_orientMir_180.png","happy","1","27","27","RdPu","orientMir","scaleDef","180","",""
"","","","","","html-slider-response","30","298487","0.0-24.0","16srse6k5c","48","NaN","<div style=""width:500px;"">
                            <p style=""font-size:50px; font-weight:bold;""
                            >happy</p>
                            <div style=""width:240px; margin: auto;"">
                                <img src=""images/map02_GnBu_scaleDef_orientDef_180.png"" style= ""width:200px""alt=""img"">
                            </div>
                        </div>","-172","","0","","","","images/map02_GnBu_scaleDef_orientDef_180.png","happy","1","02","02","GnBu","orientDef","scaleDef","180","",""
"","","","","","html-slider-response","31","302256","0.0-25.0","16srse6k5c","48","NaN","<div style=""width:500px;"">
                            <p style=""font-size:50px; font-weight:bold;""
                            >happy</p>
                            <div style=""width:240px; margin: auto;"">
                                <img src=""images/map12_seismic_scaleDef_orientMir_000.png"" style= ""width:200px""alt=""img"">
                            </div>
                        </div>","43","","0","","","","images/map12_seismic_scaleDef_orientMir_000.png","happy","1","12","12","seismic","orientMir","scaleDef","000","",""
"","","","","","html-slider-response","32","307022","0.0-26.0","16srse6k5c","48","NaN","<div style=""width:500px;"">
                            <p style=""font-size:50px; font-weight:bold;""
                            >happy</p>
                            <div style=""width:240px; margin: auto;"">
                                <img src=""images/map02_BuPu_scaleRev_orientDef_090.png"" style= ""width:200px""alt=""img"">
                            </div>
                        </div>","-98","","0","","","","images/map02_BuPu_scaleRev_orientDef_090.png","happy","1","02","02","BuPu","orientDef","scaleRev","090","",""
"","","","","","html-slider-response","33","310150","0.0-27.0","16srse6k5c","48","NaN","<div style=""width:500px;"">
                            <p style=""font-size:50px; font-weight:bold;""
                            >happy</p>
                            <div style=""width:240px; margin: auto;"">
                                <img src=""images/map12_coolwarm_scaleRev_orientDef_090.png"" style= ""width:200px""alt=""img"">
                            </div>
                        </div>","116","","0","","","","images/map12_coolwarm_scaleRev_orientDef_090.png","happy","1","12","12","coolwarm","orientDef","scaleRev","090","",""
"","","","","","html-slider-response","34","313046","0.0-28.0","16srse6k5c","48","NaN","<div style=""width:500px;"">
                            <p style=""font-size:50px; font-weight:bold;""
                            >happy</p>
                            <div style=""width:240px; margin: auto;"">
                                <img src=""images/map15_plasma_scaleDef_orientDef_180.png"" style= ""width:200px""alt=""img"">
                            </div>
                        </div>","153","","0","","","","images/map15_plasma_scaleDef_orientDef_180.png","happy","1","15","15","plasma","orientDef","scaleDef","180","",""
"","","","","","html-slider-response","35","316254","0.0-29.0","16srse6k5c","48","NaN","<div style=""width:500px;"">
                            <p style=""font-size:50px; font-weight:bold;""
                            >happy</p>
                            <div style=""width:240px; margin: auto;"">
                                <img src=""images/map13_vanimo_scaleRev_orientDef_270.png"" style= ""width:200px""alt=""img"">
                            </div>
                        </div>","-26","","0","","","","images/map13_vanimo_scaleRev_orientDef_270.png","happy","1","13","13","vanimo","orientDef","scaleRev","270","",""
"","","","","","html-slider-response","36","318794","0.0-30.0","16srse6k5c","48","NaN","<div style=""width:500px;"">
                            <p style=""font-size:50px; font-weight:bold;""
                            >happy</p>
                            <div style=""width:240px; margin: auto;"">
                                <img src=""images/map10_RdYlBu_scaleDef_orientDef_180.png"" style= ""width:200px""alt=""img"">
                            </div>
                        </div>","18","","0","","","","images/map10_RdYlBu_scaleDef_orientDef_180.png","happy","1","10","10","RdYlBu","orientDef","scaleDef","180","",""
"","","","","","html-slider-response","37","321458","0.0-31.0","16srse6k5c","48","NaN","<div style=""width:500px;"">
                            <p style=""font-size:50px; font-weight:bold;""
                            >happy</p>
                            <div style=""width:240px; margin: auto;"">
                                <img src=""images/map05_BuGn_scaleDef_orientDef_180.png"" style= ""width:200px""alt=""img"">
                            </div>
                        </div>","-129","","0","","","","images/map05_BuGn_scaleDef_orientDef_180.png","happy","1","05","05","BuGn","orientDef","scaleDef","180","",""
"","","","","","html-slider-response","38","324438","0.0-32.0","16srse6k5c","48","NaN","<div style=""width:500px;"">
                            <p style=""font-size:50px; font-weight:bold;""
                            >happy</p>
                            <div style=""width:240px; margin: auto;"">
                                <img src=""images/map07_RdGy_scaleDef_orientMir_180.png"" style= ""width:200px""alt=""img"">
                            </div>
                        </div>","-77","","0","","","","images/map07_RdGy_scaleDef_orientMir_180.png","happy","1","07","07","RdGy","orientMir","scaleDef","180","",""
"","","","","","html-slider-response","39","327390","0.0-33.0","16srse6k5c","48","NaN","<div style=""width:500px;"">
                            <p style=""font-size:50px; font-weight:bold;""
                            >happy</p>
                            <div style=""width:240px; margin: auto;"">
                                <img src=""images/map13_turbo_scaleRev_orientMir_270.png"" style= ""width:200px""alt=""img"">
                            </div>
                        </div>","110","","0","","","","images/map13_turbo_scaleRev_orientMir_270.png","happy","1","13","13","turbo","orientMir","scaleRev","270","",""
"","","","","","html-slider-response","40","334672","0.0-34.0","16srse6k5c","48","NaN","<div style=""width:500px;"">
                            <p style=""font-size:50px; font-weight:bold;""
                            >happy</p>
                            <div style=""width:240px; margin: auto;"">
                                <img src=""images/map10_RdYlGn_scaleRev_orientMir_090.png"" style= ""width:200px""alt=""img"">
                            </div>
                        </div>","-38","","0","","","","images/map10_RdYlGn_scaleRev_orientMir_090.png","happy","1","10","10","RdYlGn","orientMir","scaleRev","090","",""
"","","","","","html-slider-response","41","337005","0.0-35.0","16srse6k5c","48","NaN","<div style=""width:500px;"">
                            <p style=""font-size:50px; font-weight:bold;""
                            >happy</p>
                            <div style=""width:240px; margin: auto;"">
                                <img src=""images/map02_PuBu_scaleRev_orientMir_090.png"" style= ""width:200px""alt=""img"">
                            </div>
                        </div>","-88","","0","","","","images/map02_PuBu_scaleRev_orientMir_090.png","happy","1","02","02","PuBu","orientMir","scaleRev","090","",""
"","","","","","html-slider-response","42","341106","0.0-36.0","16srse6k5c","48","NaN","<div style=""width:500px;"">
                            <p style=""font-size:50px; font-weight:bold;""
                            >happy</p>
                            <div style=""width:240px; margin: auto;"">
                                <img src=""images/map27_OrRd_scaleRev_orientDef_270.png"" style= ""width:200px""alt=""img"">
                            </div>
                        </div>","63","","0","","","","images/map27_OrRd_scaleRev_orientDef_270.png","happy","1","27","27","OrRd","orientDef","scaleRev","270","",""
"","","","","","html-slider-response","43","343670","0.0-37.0","16srse6k5c","48","NaN","<div style=""width:500px;"">
                            <p style=""font-size:50px; font-weight:bold;""
                            >happy</p>
                            <div style=""width:240px; margin: auto;"">
                                <img src=""images/map10_RdYlBu_scaleRev_orientDef_270.png"" style= ""width:200px""alt=""img"">
                            </div>
                        </div>","30","","0","","","","images/map10_RdYlBu_scaleRev_orientDef_270.png","happy","1","10","10","RdYlBu","orientDef","scaleRev","270","",""
"","","","","","html-slider-response","44","346971","0.0-38.0","16srse6k5c","48","NaN","<div style=""width:500px;"">
                            <p style=""font-size:50px; font-weight:bold;""
                            >happy</p>
                            <div style=""width:240px; margin: auto;"">
                                <img src=""images/map27_YlOrRd_scaleRev_orientDef_090.png"" style= ""width:200px""alt=""img"">
                            </div>
                        </div>","129","","0","","","","images/map27_YlOrRd_scaleRev_orientDef_090.png","happy","1","27","27","YlOrRd","orientDef","scaleRev","090","",""
"","","","","","html-slider-response","45","349525","0.0-39.0","16srse6k5c","48","NaN","<div style=""width:500px;"">
                            <p style=""font-size:50px; font-weight:bold;""
                            >happy</p>
                            <div style=""width:240px; margin: auto;"">
                                <img src=""images/map02_BuPu_scaleDef_orientDef_000.png"" style= ""width:200px""alt=""img"">
                            </div>
                        </div>","-154","","0","","","","images/map02_BuPu_scaleDef_orientDef_000.png","happy","1","02","02","BuPu","orientDef","scaleDef","000","",""
"","","","","","html-slider-response","46","353168","0.0-40.0","16srse6k5c","48","NaN","<div style=""width:500px;"">
                            <p style=""font-size:50px; font-weight:bold;""
                            >happy</p>
                            <div style=""width:240px; margin: auto;"">
                                <img src=""images/map07_BrBG_scaleRev_orientDef_270.png"" style= ""width:200px""alt=""img"">
                            </div>
                        </div>","-27","","0","","","","images/map07_BrBG_scaleRev_orientDef_270.png","happy","1","07","07","BrBG","orientDef","scaleRev","270","",""
"","","","","","html-slider-response","47","355929","0.0-41.0","16srse6k5c","48","NaN","<div style=""width:500px;"">
                            <p style=""font-size:50px; font-weight:bold;""
                            >happy</p>
                            <div style=""width:240px; margin: auto;"">
                                <img src=""images/map10_RdBu_scaleRev_orientDef_090.png"" style= ""width:200px""alt=""img"">
                            </div>
                        </div>","-104","","0","","","","images/map10_RdBu_scaleRev_orientDef_090.png","happy","1","10","10","RdBu","orientDef","scaleRev","090","",""
"","","","","","html-slider-response","48","358557","0.0-42.0","16srse6k5c","48","NaN","<div style=""width:500px;"">
                            <p style=""font-size:50px; font-weight:bold;""
                            >happy</p>
                            <div style=""width:240px; margin: auto;"">
                                <img src=""images/map10_Spectral_scaleDef_orientMir_180.png"" style= ""width:200px""alt=""img"">
                            </div>
                        </div>","85","","0","","","","images/map10_Spectral_scaleDef_orientMir_180.png","happy","1","10","10","Spectral","orientMir","scaleDef","180","",""
"","","","","","html-slider-response","49","361729","0.0-43.0","16srse6k5c","48","NaN","<div style=""width:500px;"">
                            <p style=""font-size:50px; font-weight:bold;""
                            >happy</p>
                            <div style=""width:240px; margin: auto;"">
                                <img src=""images/map15_inferno_scaleDef_orientMir_000.png"" style= ""width:200px""alt=""img"">
                            </div>
                        </div>","104","","0","","","","images/map15_inferno_scaleDef_orientMir_000.png","happy","1","15","15","inferno","orientMir","scaleDef","000","",""
"","","","","","html-slider-response","50","364588","0.0-44.0","16srse6k5c","48","NaN","<div style=""width:500px;"">
                            <p style=""font-size:50px; font-weight:bold;""
                            >happy</p>
                            <div style=""width:240px; margin: auto;"">
                                <img src=""images/map05_PiYG_scaleRev_orientMir_270.png"" style= ""width:200px""alt=""img"">
                            </div>
                        </div>","200","","0","","","","images/map05_PiYG_scaleRev_orientMir_270.png","happy","1","05","05","PiYG","orientMir","scaleRev","270","",""
"","","","","","html-slider-response","51","368370","0.0-45.0","16srse6k5c","48","NaN","<div style=""width:500px;"">
                            <p style=""font-size:50px; font-weight:bold;""
                            >happy</p>
                            <div style=""width:240px; margin: auto;"">
                                <img src=""images/map15_plasma_scaleRev_orientDef_270.png"" style= ""width:200px""alt=""img"">
                            </div>
                        </div>","51","","0","","","","images/map15_plasma_scaleRev_orientDef_270.png","happy","1","15","15","plasma","orientDef","scaleRev","270","",""
"","","","","","html-slider-response","52","371062","0.0-46.0","16srse6k5c","48","NaN","<div style=""width:500px;"">
                            <p style=""font-size:50px; font-weight:bold;""
                            >happy</p>
                            <div style=""width:240px; margin: auto;"">
                                <img src=""images/map05_BuGn_scaleRev_orientDef_270.png"" style= ""width:200px""alt=""img"">
                            </div>
                        </div>","-114","","0","","","","images/map05_BuGn_scaleRev_orientDef_270.png","happy","1","05","05","BuGn","orientDef","scaleRev","270","",""
"","","","","","html-slider-response","53","373478","0.0-47.0","16srse6k5c","48","NaN","<div style=""width:500px;"">
                            <p style=""font-size:50px; font-weight:bold;""
                            >happy</p>
                            <div style=""width:240px; margin: auto;"">
                                <img src=""images/map23_Greys_scaleDef_orientDef_180.png"" style= ""width:200px""alt=""img"">
                            </div>
                        </div>","-200","","0","","","","images/map23_Greys_scaleDef_orientDef_180.png","happy","1","23","23","Greys","orientDef","scaleDef","180","",""
"","","","","","html-slider-response","54","376371","0.0-48.0","16srse6k5c","48","NaN","<div style=""width:500px;"">
                            <p style=""font-size:50px; font-weight:bold;""
                            >happy</p>
                            <div style=""width:240px; margin: auto;"">
                                <img src=""images/map23_Blues_scaleRev_orientMir_270.png"" style= ""width:200px""alt=""img"">
                            </div>
                        </div>","-141","","0","","","","images/map23_Blues_scaleRev_orientMir_270.png","happy","1","23","23","Blues","orientMir","scaleRev","270","",""
"","","","","","html-slider-response","55","380017","0.0-49.0","16srse6k5c","48","NaN","<div style=""width:500px;"">
                            <p style=""font-size:50px; font-weight:bold;""
                            >happy</p>
                            <div style=""width:240px; margin: auto;"">
                                <img src=""images/map12_seismic_scaleRev_orientMir_090.png"" style= ""width:200px""alt=""img"">
                            </div>
                        </div>","103","","0","","","","images/map12_seismic_scaleRev_orientMir_090.png","happy","1","12","12","seismic","orientMir","scaleRev","090","",""
"","","","","","html-slider-response","56","382805","0.0-50.0","16srse6k5c","48","NaN","<div style=""width:500px;"">
                            <p style=""font-size:50px; font-weight:bold;""
                            >happy</p>
                            <div style=""width:240px; margin: auto;"">
                                <img src=""images/map05_PiYG_scaleDef_orientMir_180.png"" style= ""width:200px""alt=""img"">
                            </div>
                        </div>","187","","0","","","","images/map05_PiYG_scaleDef_orientMir_180.png","happy","1","05","05","PiYG","orientMir","scaleDef","180","",""
"","","","","","html-slider-response","57","385283","0.0-51.0","16srse6k5c","48","NaN","<div style=""width:500px;"">
                            <p style=""font-size:50px; font-weight:bold;""
                            >happy</p>
                            <div style=""width:240px; margin: auto;"">
                                <img src=""images/map07_PRGn_scaleRev_orientDef_090.png"" style= ""width:200px""alt=""img"">
                            </div>
                        </div>","39","","0","","","","images/map07_PRGn_scaleRev_orientDef_090.png","happy","1","07","07","PRGn","orientDef","scaleRev","090","",""
"","","","","","html-slider-response","58","387786","0.0-52.0","16srse6k5c","48","NaN","<div style=""width:500px;"">
                            <p style=""font-size:50px; font-weight:bold;""
                            >happy</p>
                            <div style=""width:240px; margin: auto;"">
                                <img src=""images/map12_bwr_scaleRev_orientDef_270.png"" style= ""width:200px""alt=""img"">
                            </div>
                        </div>","128","","0","","","","images/map12_bwr_scaleRev_orientDef_270.png","happy","1","12","12","bwr","orientDef","scaleRev","270","",""
"","","","","","html-slider-response","59","390768","0.0-53.0","16srse6k5c","48","NaN","<div style=""width:500px;"">
                            <p style=""font-size:50px; font-weight:bold;""
                            >happy</p>
                            <div style=""width:240px; margin: auto;"">
                                <img src=""images/map05_PuBuGn_scaleRev_orientDef_090.png"" style= ""width:200px""alt=""img"">
                            </div>
                        </div>","-18","","0","","","","images/map05_PuBuGn_scaleRev_orientDef_090.png","happy","1","05","05","PuBuGn","orientDef","scaleRev","090","",""
"","","","","","html-button-response","60","393906","0.0-54.0","16srse6k5c","48","2630","<p>You are doing great!<br></br> You are halway done with the current block. When you are ready to continue, click the 'Continue' button.</p>","0","","","","","","","","","","","","","","","",""
"","","","","","html-slider-response","61","398084","0.0-55.0","16srse6k5c","48","NaN","<div style=""width:500px;"">
                            <p style=""font-size:50px; font-weight:bold;""
                            >happy</p>
                            <div style=""width:240px; margin: auto;"">
                                <img src=""images/map27_PuRd_scaleRev_orientMir_090.png"" style= ""width:200px""alt=""img"">
                            </div>
                        </div>","152","","0","","","","images/map27_PuRd_scaleRev_orientMir_090.png","happy","1","27","27","PuRd","orientMir","scaleRev","090","",""
"","","","","","html-slider-response","62","400987","0.0-56.0","16srse6k5c","48","NaN","<div style=""width:500px;"">
                            <p style=""font-size:50px; font-weight:bold;""
                            >happy</p>
                            <div style=""width:240px; margin: auto;"">
                                <img src=""images/map26_YlOrBr_scaleRev_orientMir_270.png"" style= ""width:200px""alt=""img"">
                            </div>
                        </div>","194","","0","","","","images/map26_YlOrBr_scaleRev_orientMir_270.png","happy","1","26","26","YlOrBr","orientMir","scaleRev","270","",""
"","","","","","html-slider-response","63","404007","0.0-57.0","16srse6k5c","48","NaN","<div style=""width:500px;"">
                            <p style=""font-size:50px; font-weight:bold;""
                            >happy</p>
                            <div style=""width:240px; margin: auto;"">
                                <img src=""images/map26_Oranges_scaleRev_orientDef_270.png"" style= ""width:200px""alt=""img"">
                            </div>
                        </div>","192","","0","","","","images/map26_Oranges_scaleRev_orientDef_270.png","happy","1","26","26","Oranges","orientDef","scaleRev","270","",""
"","","","","","html-slider-response","64","406661","0.0-58.0","16srse6k5c","48","NaN","<div style=""width:500px;"">
                            <p style=""font-size:50px; font-weight:bold;""
                            >happy</p>
                            <div style=""width:240px; margin: auto;"">
                                <img src=""images/map13_managua_scaleDef_orientDef_000.png"" style= ""width:200px""alt=""img"">
                            </div>
                        </div>","-38","","0","","","","images/map13_managua_scaleDef_orientDef_000.png","happy","1","13","13","managua","orientDef","scaleDef","000","",""
"","","","","","html-slider-response","65","410229","0.0-59.0","16srse6k5c","48","NaN","<div style=""width:500px;"">
                            <p style=""font-size:50px; font-weight:bold;""
                            >happy</p>
                            <div style=""width:240px; margin: auto;"">
                                <img src=""images/map07_PRGn_scaleDef_orientDef_000.png"" style= ""width:200px""alt=""img"">
                            </div>
                        </div>","-12","","0","","","","images/map07_PRGn_scaleDef_orientDef_000.png","happy","1","07","07","PRGn","orientDef","scaleDef","000","",""
"","","","","","html-slider-response","66","413662","0.0-60.0","16srse6k5c","48","NaN","<div style=""width:500px;"">
                            <p style=""font-size:50px; font-weight:bold;""
                            >happy</p>
                            <div style=""width:240px; margin: auto;"">
                                <img src=""images/map13_managua_scaleRev_orientDef_090.png"" style= ""width:200px""alt=""img"">
                            </div>
                        </div>","-50","","0","","","","images/map13_managua_scaleRev_orientDef_090.png","happy","1","13","13","managua","orientDef","scaleRev","090","",""
"","","","","","html-slider-response","67","415583","0.0-61.0","16srse6k5c","48","NaN","<div style=""width:500px;"">
                            <p style=""font-size:50px; font-weight:bold;""
                            >happy</p>
                            <div style=""width:240px; margin: auto;"">
                                <img src=""images/map12_berlin_scaleDef_orientMir_180.png"" style= ""width:200px""alt=""img"">
                            </div>
                        </div>","-90","","0","","","","images/map12_berlin_scaleDef_orientMir_180.png","happy","1","12","12","berlin","orientMir","scaleDef","180","",""
"","","","","","html-slider-response","68","418919","0.0-62.0","16srse6k5c","48","NaN","<div style=""width:500px;"">
                            <p style=""font-size:50px; font-weight:bold;""
                            >happy</p>
                            <div style=""width:240px; margin: auto;"">
                                <img src=""images/map10_RdBu_scaleDef_orientDef_000.png"" style= ""width:200px""alt=""img"">
                            </div>
                        </div>","-50","","0","","","","images/map10_RdBu_scaleDef_orientDef_000.png","happy","1","10","10","RdBu","orientDef","scaleDef","000","",""
"","","","","","html-slider-response","69","423413","0.0-63.0","16srse6k5c","48","NaN","<div style=""width:500px;"">
                            <p style=""font-size:50px; font-weight:bold;""
                            >happy</p>
                            <div style=""width:240px; margin: auto;"">
                                <img src=""images/map13_gist_earth_scaleDef_orientMir_000.png"" style= ""width:200px""alt=""img"">
                            </div>
                        </div>","-73","","0","","","","images/map13_gist_earth_scaleDef_orientMir_000.png","happy","1","13","13","gist","scaleDef","earth","orientMir","",""
"","","","","","html-slider-response","70","425571","0.0-64.0","16srse6k5c","48","NaN","<div style=""width:500px;"">
                            <p style=""font-size:50px; font-weight:bold;""
                            >happy</p>
                            <div style=""width:240px; margin: auto;"">
                                <img src=""images/map02_YlGnBu_scaleRev_orientMir_270.png"" style= ""width:200px""alt=""img"">
                            </div>
                        </div>","-108","","0","","","","images/map02_YlGnBu_scaleRev_orientMir_270.png","happy","1","02","02","YlGnBu","orientMir","scaleRev","270","",""
"","","","","","html-slider-response","71","428160","0.0-65.0","16srse6k5c","48","NaN","<div style=""width:500px;"">
                            <p style=""font-size:50px; font-weight:bold;""
                            >happy</p>
                            <div style=""width:240px; margin: auto;"">
                                <img src=""images/map27_RdPu_scaleRev_orientMir_270.png"" style= ""width:200px""alt=""img"">
                            </div>
                        </div>","102","","0","","","","images/map27_RdPu_scaleRev_orientMir_270.png","happy","1","27","27","RdPu","orientMir","scaleRev","270","",""
"","","","","","html-slider-response","72","430447","0.0-66.0","16srse6k5c","48","NaN","<div style=""width:500px;"">
                            <p style=""font-size:50px; font-weight:bold;""
                            >happy</p>
                            <div style=""width:240px; margin: auto;"">
                                <img src=""images/map12_bwr_scaleDef_orientDef_180.png"" style= ""width:200px""alt=""img"">
                            </div>
                        </div>","101","","0","","","","images/map12_bwr_scaleDef_orientDef_180.png","happy","1","12","12","bwr","orientDef","scaleDef","180","",""
"","","","","","html-slider-response","73","432600","0.0-67.0","16srse6k5c","48","NaN","<div style=""width:500px;"">
                            <p style=""font-size:50px; font-weight:bold;""
                            >happy</p>
                            <div style=""width:240px; margin: auto;"">
                                <img src=""images/map12_coolwarm_scaleDef_orientDef_000.png"" style= ""width:200px""alt=""img"">
                            </div>
                        </div>","143","","0","","","","images/map12_coolwarm_scaleDef_orientDef_000.png","happy","1","12","12","coolwarm","orientDef","scaleDef","000","",""
"","","","","","html-slider-response","74","435321","0.0-68.0","16srse6k5c","48","NaN","<div style=""width:500px;"">
                            <p style=""font-size:50px; font-weight:bold;""
                            >happy</p>
                            <div style=""width:240px; margin: auto;"">
                                <img src=""images/map23_cividis_scaleDef_orientDef_000.png"" style= ""width:200px""alt=""img"">
                            </div>
                        </div>","-61","","0","","","","images/map23_cividis_scaleDef_orientDef_000.png","happy","1","23","23","cividis","orientDef","scaleDef","000","",""
"","","","","","html-slider-response","75","437350","0.0-69.0","16srse6k5c","48","NaN","<div style=""width:500px;"">
                            <p style=""font-size:50px; font-weight:bold;""
                            >happy</p>
                            <div style=""width:240px; margin: auto;"">
                                <img src=""images/map02_GnBu_scaleRev_orientDef_270.png"" style= ""width:200px""alt=""img"">
                            </div>
                        </div>","-106","","0","","","","images/map02_GnBu_scaleRev_orientDef_270.png","happy","1","02","02","GnBu","orientDef","scaleRev","270","",""
"","","","","","html-slider-response","76","440247","0.0-70.0","16srse6k5c","48","NaN","<div style=""width:500px;"">
                            <p style=""font-size:50px; font-weight:bold;""
                            >happy</p>
                            <div style=""width:240px; margin: auto;"">
                                <img src=""images/map07_BrBG_scaleDef_orientDef_180.png"" style= ""width:200px""alt=""img"">
                            </div>
                        </div>","34","","0","","","","images/map07_BrBG_scaleDef_orientDef_180.png","happy","1","07","07","BrBG","orientDef","scaleDef","180","",""
"","","","","","html-slider-response","77","442185","0.0-71.0","16srse6k5c","48","NaN","<div style=""width:500px;"">
                            <p style=""font-size:50px; font-weight:bold;""
                            >happy</p>
                            <div style=""width:240px; margin: auto;"">
                                <img src=""images/map15_viridis_scaleDef_orientDef_000.png"" style= ""width:200px""alt=""img"">
                            </div>
                        </div>","-61","","0","","","","images/map15_viridis_scaleDef_orientDef_000.png","happy","1","15","15","viridis","orientDef","scaleDef","000","",""
"","","","","","html-slider-response","78","444159","0.0-72.0","16srse6k5c","48","NaN","<div style=""width:500px;"">
                            <p style=""font-size:50px; font-weight:bold;""
                            >happy</p>
                            <div style=""width:240px; margin: auto;"">
                                <img src=""images/map07_PuOr_scaleRev_orientMir_090.png"" style= ""width:200px""alt=""img"">
                            </div>
                        </div>","99","","0","","","","images/map07_PuOr_scaleRev_orientMir_090.png","happy","1","07","07","PuOr","orientMir","scaleRev","090","",""
"","","","","","html-slider-response","79","446244","0.0-73.0","16srse6k5c","48","NaN","<div style=""width:500px;"">
                            <p style=""font-size:50px; font-weight:bold;""
                            >happy</p>
                            <div style=""width:240px; margin: auto;"">
                                <img src=""images/map15_inferno_scaleRev_orientMir_090.png"" style= ""width:200px""alt=""img"">
                            </div>
                        </div>","62","","0","","","","images/map15_inferno_scaleRev_orientMir_090.png","happy","1","15","15","inferno","orientMir","scaleRev","090","",""
"","","","","","html-slider-response","80","448726","0.0-74.0","16srse6k5c","48","NaN","<div style=""width:500px;"">
                            <p style=""font-size:50px; font-weight:bold;""
                            >happy</p>
                            <div style=""width:240px; margin: auto;"">
                                <img src=""images/map27_YlOrRd_scaleDef_orientDef_000.png"" style= ""width:200px""alt=""img"">
                            </div>
                        </div>","168","","0","","","","images/map27_YlOrRd_scaleDef_orientDef_000.png","happy","1","27","27","YlOrRd","orientDef","scaleDef","000","",""
"","","","","","html-slider-response","81","450486","0.0-75.0","16srse6k5c","48","NaN","<div style=""width:500px;"">
                            <p style=""font-size:50px; font-weight:bold;""
                            >happy</p>
                            <div style=""width:240px; margin: auto;"">
                                <img src=""images/map26_Greens_scaleRev_orientDef_090.png"" style= ""width:200px""alt=""img"">
                            </div>
                        </div>","-26","","0","","","","images/map26_Greens_scaleRev_orientDef_090.png","happy","1","26","26","Greens","orientDef","scaleRev","090","",""
"","","","","","html-slider-response","82","452215","0.0-76.0","16srse6k5c","48","NaN","<div style=""width:500px;"">
                            <p style=""font-size:50px; font-weight:bold;""
                            >happy</p>
                            <div style=""width:240px; margin: auto;"">
                                <img src=""images/map23_Greys_scaleRev_orientDef_270.png"" style= ""width:200px""alt=""img"">
                            </div>
                        </div>","-200","","0","","","","images/map23_Greys_scaleRev_orientDef_270.png","happy","1","23","23","Greys","orientDef","scaleRev","270","",""
"","","","","","html-slider-response","83","455467","0.0-77.0","16srse6k5c","48","NaN","<div style=""width:500px;"">
                            <p style=""font-size:50px; font-weight:bold;""
                            >happy</p>
                            <div style=""width:240px; margin: auto;"">
                                <img src=""images/map13_vanimo_scaleDef_orientDef_180.png"" style= ""width:200px""alt=""img"">
                            </div>
                        </div>","25","","0","","","","images/map13_vanimo_scaleDef_orientDef_180.png","happy","1","13","13","vanimo","orientDef","scaleDef","180","",""
"","","","","","html-slider-response","84","457872","0.0-78.0","16srse6k5c","48","NaN","<div style=""width:500px;"">
                            <p style=""font-size:50px; font-weight:bold;""
                            >happy</p>
                            <div style=""width:240px; margin: auto;"">
                                <img src=""images/map05_PuBuGn_scaleDef_orientDef_000.png"" style= ""width:200px""alt=""img"">
                            </div>
                        </div>","-74","","0","","","","images/map05_PuBuGn_scaleDef_orientDef_000.png","happy","1","05","05","PuBuGn","orientDef","scaleDef","000","",""
"","","","","","html-slider-response","85","460102","0.0-79.0","16srse6k5c","48","NaN","<div style=""width:500px;"">
                            <p style=""font-size:50px; font-weight:bold;""
                            >happy</p>
                            <div style=""width:240px; margin: auto;"">
                                <img src=""images/map02_YlGnBu_scaleDef_orientMir_180.png"" style= ""width:200px""alt=""img"">
                            </div>
                        </div>","-73","","0","","","","images/map02_YlGnBu_scaleDef_orientMir_180.png","happy","1","02","02","YlGnBu","orientMir","scaleDef","180","",""
"","","","","","html-slider-response","86","462585","0.0-80.0","16srse6k5c","48","NaN","<div style=""width:500px;"">
                            <p style=""font-size:50px; font-weight:bold;""
                            >happy</p>
                            <div style=""width:240px; margin: auto;"">
                                <img src=""images/map10_RdYlGn_scaleDef_orientMir_000.png"" style= ""width:200px""alt=""img"">
                            </div>
                        </div>","41","","0","","","","images/map10_RdYlGn_scaleDef_orientMir_000.png","happy","1","10","10","RdYlGn","orientMir","scaleDef","000","",""
"","","","","","html-slider-response","87","465468","0.0-81.0","16srse6k5c","48","NaN","<div style=""width:500px;"">
                            <p style=""font-size:50px; font-weight:bold;""
                            >happy</p>
                            <div style=""width:240px; margin: auto;"">
                                <img src=""images/map05_YlGn_scaleRev_orientMir_090.png"" style= ""width:200px""alt=""img"">
                            </div>
                        </div>","-137","","0","","","","images/map05_YlGn_scaleRev_orientMir_090.png","happy","1","05","05","YlGn","orientMir","scaleRev","090","",""
"","","","","","html-slider-response","88","467890","0.0-82.0","16srse6k5c","48","NaN","<div style=""width:500px;"">
                            <p style=""font-size:50px; font-weight:bold;""
                            >happy</p>
                            <div style=""width:240px; margin: auto;"">
                                <img src=""images/map26_YlOrBr_scaleDef_orientMir_180.png"" style= ""width:200px""alt=""img"">
                            </div>
                        </div>","158","","0","","","","images/map26_YlOrBr_scaleDef_orientMir_180.png","happy","1","26","26","YlOrBr","orientMir","scaleDef","180","",""
"","","","","","html-slider-response","89","470336","0.0-83.0","16srse6k5c","48","NaN","<div style=""width:500px;"">
                            <p style=""font-size:50px; font-weight:bold;""
                            >happy</p>
                            <div style=""width:240px; margin: auto;"">
                                <img src=""images/map27_OrRd_scaleDef_orientDef_180.png"" style= ""width:200px""alt=""img"">
                            </div>
                        </div>","175","","0","","","","images/map27_OrRd_scaleDef_orientDef_180.png","happy","1","27","27","OrRd","orientDef","scaleDef","180","",""
"","","","","","html-slider-response","90","472955","0.0-84.0","16srse6k5c","48","NaN","<div style=""width:500px;"">
                            <p style=""font-size:50px; font-weight:bold;""
                            >happy</p>
                            <div style=""width:240px; margin: auto;"">
                                <img src=""images/map07_PuOr_scaleDef_orientMir_000.png"" style= ""width:200px""alt=""img"">
                            </div>
                        </div>","34","","0","","","","images/map07_PuOr_scaleDef_orientMir_000.png","happy","1","07","07","PuOr","orientMir","scaleDef","000","",""
"","","","","","html-slider-response","91","474984","0.0-85.0","16srse6k5c","48","NaN","<div style=""width:500px;"">
                            <p style=""font-size:50px; font-weight:bold;""
                            >happy</p>
                            <div style=""width:240px; margin: auto;"">
                                <img src=""images/map15_magma_scaleDef_orientMir_180.png"" style= ""width:200px""alt=""img"">
                            </div>
                        </div>","126","","0","","","","images/map15_magma_scaleDef_orientMir_180.png","happy","1","15","15","magma","orientMir","scaleDef","180","",""
"","","","","","html-slider-response","92","477444","0.0-86.0","16srse6k5c","48","NaN","<div style=""width:500px;"">
                            <p style=""font-size:50px; font-weight:bold;""
                            >happy</p>
                            <div style=""width:240px; margin: auto;"">
                                <img src=""images/map23_Blues_scaleDef_orientMir_180.png"" style= ""width:200px""alt=""img"">
                            </div>
                        </div>","-106","","0","","","","images/map23_Blues_scaleDef_orientMir_180.png","happy","1","23","23","Blues","orientMir","scaleDef","180","",""
"","","","","","html-slider-response","93","480423","0.0-87.0","16srse6k5c","48","NaN","<div style=""width:500px;"">
                            <p style=""font-size:50px; font-weight:bold;""
                            >happy</p>
                            <div style=""width:240px; margin: auto;"">
                                <img src=""images/map13_turbo_scaleDef_orientMir_180.png"" style= ""width:200px""alt=""img"">
                            </div>
                        </div>","1","","0","","","","images/map13_turbo_scaleDef_orientMir_180.png","happy","1","13","13","turbo","orientMir","scaleDef","180","",""
"","","","","","html-slider-response","94","482705","0.0-88.0","16srse6k5c","48","NaN","<div style=""width:500px;"">
                            <p style=""font-size:50px; font-weight:bold;""
                            >happy</p>
                            <div style=""width:240px; margin: auto;"">
                                <img src=""images/map26_Reds_scaleRev_orientMir_090.png"" style= ""width:200px""alt=""img"">
                            </div>
                        </div>","-95","","0","","","","images/map26_Reds_scaleRev_orientMir_090.png","happy","1","26","26","Reds","orientMir","scaleRev","090","",""
"","","","","","html-slider-response","95","485101","0.0-89.0","16srse6k5c","48","NaN","<div style=""width:500px;"">
                            <p style=""font-size:50px; font-weight:bold;""
                            >happy</p>
                            <div style=""width:240px; margin: auto;"">
                                <img src=""images/map10_Spectral_scaleRev_orientMir_270.png"" style= ""width:200px""alt=""img"">
                            </div>
                        </div>","44","","0","","","","images/map10_Spectral_scaleRev_orientMir_270.png","happy","1","10","10","Spectral","orientMir","scaleRev","270","",""
"","","","","","html-slider-response","96","487204","0.0-90.0","16srse6k5c","48","NaN","<div style=""width:500px;"">
                            <p style=""font-size:50px; font-weight:bold;""
                            >happy</p>
                            <div style=""width:240px; margin: auto;"">
                                <img src=""images/map23_Purples_scaleRev_orientMir_090.png"" style= ""width:200px""alt=""img"">
                            </div>
                        </div>","-120","","0","","","","images/map23_Purples_scaleRev_orientMir_090.png","happy","1","23","23","Purples","orientMir","scaleRev","090","",""
"","","","","","html-slider-response","97","489365","0.0-91.0","16srse6k5c","48","NaN","<div style=""width:500px;"">
                            <p style=""font-size:50px; font-weight:bold;""
                            >happy</p>
                            <div style=""width:240px; margin: auto;"">
                                <img src=""images/map02_PuBu_scaleDef_orientMir_000.png"" style= ""width:200px""alt=""img"">
                            </div>
                        </div>","-89","","0","","","","images/map02_PuBu_scaleDef_orientMir_000.png","happy","1","02","02","PuBu","orientMir","scaleDef","000","",""
"","","","","","html-slider-response","98","491528","0.0-92.0","16srse6k5c","48","NaN","<div style=""width:500px;"">
                            <p style=""font-size:50px; font-weight:bold;""
                            >happy</p>
                            <div style=""width:240px; margin: auto;"">
                                <img src=""images/map15_magma_scaleRev_orientMir_270.png"" style= ""width:200px""alt=""img"">
                            </div>
                        </div>","107","","0","","","","images/map15_magma_scaleRev_orientMir_270.png","happy","1","15","15","magma","orientMir","scaleRev","270","",""
"","","","","","html-slider-response","99","493569","0.0-93.0","16srse6k5c","48","NaN","<div style=""width:500px;"">
                            <p style=""font-size:50px; font-weight:bold;""
                            >happy</p>
                            <div style=""width:240px; margin: auto;"">
                                <img src=""images/map15_viridis_scaleRev_orientDef_090.png"" style= ""width:200px""alt=""img"">
                            </div>
                        </div>","-46","","0","","","","images/map15_viridis_scaleRev_orientDef_090.png","happy","1","15","15","viridis","orientDef","scaleRev","090","",""
"","","","","","html-slider-response","100","495503","0.0-94.0","16srse6k5c","48","NaN","<div style=""width:500px;"">
                            <p style=""font-size:50px; font-weight:bold;""
                            >happy</p>
                            <div style=""width:240px; margin: auto;"">
                                <img src=""images/map05_YlGn_scaleDef_orientMir_000.png"" style= ""width:200px""alt=""img"">
                            </div>
                        </div>","-80","","0","","","","images/map05_YlGn_scaleDef_orientMir_000.png","happy","1","05","05","YlGn","orientMir","scaleDef","000","",""
"","","","","","html-button-response","101","497947","0.0-95.0","16srse6k5c","48","1928","<p>Great Job! You've finished block 1.<br></br> You have 4 block(s) left to go.<br></br></p>","0","","","","","","","","","","","","","","","",""
"","","","","","html-button-response","102","499274","0.0-96.0","16srse6k5c","48","1327","<p>In this block of trials, you will be asked to rate how much you associate each map with:</p > <p style = 'font-size:150%; font-weight: bold'>angry</p><br></br>","0","","","","","","","","","","","","","","","",""
"","","","","","html-slider-response","103","501320","0.0-97.0","16srse6k5c","48","NaN","<div style=""width:500px;"">
                            <p style=""font-size:50px; font-weight:bold;""
                            >angry</p>
                            <div style=""width:240px; margin: auto;"">
                                <img src=""images/map07_PuOr_scaleDef_orientMir_000.png"" style= ""width:200px""alt=""img"">
                            </div>
                        </div>","-150","","0","","","","images/map07_PuOr_scaleDef_orientMir_000.png","angry","1","07","07","PuOr","orientMir","scaleDef","000","",""
"","","","","","html-slider-response","104","504021","0.0-98.0","16srse6k5c","48","NaN","<div style=""width:500px;"">
                            <p style=""font-size:50px; font-weight:bold;""
                            >angry</p>
                            <div style=""width:240px; margin: auto;"">
                                <img src=""images/map12_berlin_scaleRev_orientMir_270.png"" style= ""width:200px""alt=""img"">
                            </div>
                        </div>","-98","","0","","","","images/map12_berlin_scaleRev_orientMir_270.png","angry","1","12","12","berlin","orientMir","scaleRev","270","",""
"","","","","","html-slider-response","105","506828","0.0-99.0","16srse6k5c","48","NaN","<div style=""width:500px;"">
                            <p style=""font-size:50px; font-weight:bold;""
                            >angry</p>
                            <div style=""width:240px; margin: auto;"">
                                <img src=""images/map10_RdYlGn_scaleRev_orientMir_090.png"" style= ""width:200px""alt=""img"">
                            </div>
                        </div>","11","","0","","","","images/map10_RdYlGn_scaleRev_orientMir_090.png","angry","1","10","10","RdYlGn","orientMir","scaleRev","090","",""
"","","","","","html-slider-response","106","509435","0.0-100.0","16srse6k5c","48","NaN","<div style=""width:500px;"">
                            <p style=""font-size:50px; font-weight:bold;""
                            >angry</p>
                            <div style=""width:240px; margin: auto;"">
                                <img src=""images/map07_RdGy_scaleRev_orientMir_270.png"" style= ""width:200px""alt=""img"">
                            </div>
                        </div>","77","","0","","","","images/map07_RdGy_scaleRev_orientMir_270.png","angry","1","07","07","RdGy","orientMir","scaleRev","270","",""
"","","","","","html-slider-response","107","512502","0.0-101.0","16srse6k5c","48","NaN","<div style=""width:500px;"">
                            <p style=""font-size:50px; font-weight:bold;""
                            >angry</p>
                            <div style=""width:240px; margin: auto;"">
                                <img src=""images/map26_Oranges_scaleRev_orientDef_270.png"" style= ""width:200px""alt=""img"">
                            </div>
                        </div>","123","","0","","","","images/map26_Oranges_scaleRev_orientDef_270.png","angry","1","26","26","Oranges","orientDef","scaleRev","270","",""
"","","","","","html-slider-response","108","514868","0.0-102.0","16srse6k5c","48","NaN","<div style=""width:500px;"">
                            <p style=""font-size:50px; font-weight:bold;""
                            >angry</p>
                            <div style=""width:240px; margin: auto;"">
                                <img src=""images/map27_OrRd_scaleDef_orientDef_180.png"" style= ""width:200px""alt=""img"">
                            </div>
                        </div>","200","","0","","","","images/map27_OrRd_scaleDef_orientDef_180.png","angry","1","27","27","OrRd","orientDef","scaleDef","180","",""
"","","","","","html-slider-response","109","517165","0.0-103.0","16srse6k5c","48","NaN","<div style=""width:500px;"">
                            <p style=""font-size:50px; font-weight:bold;""
                            >angry</p>
                            <div style=""width:240px; margin: auto;"">
                                <img src=""images/map26_Reds_scaleRev_orientMir_090.png"" style= ""width:200px""alt=""img"">
                            </div>
                        </div>","200","","0","","","","images/map26_Reds_scaleRev_orientMir_090.png","angry","1","26","26","Reds","orientMir","scaleRev","090","",""
"","","","","","html-slider-response","110","519425","0.0-104.0","16srse6k5c","48","NaN","<div style=""width:500px;"">
                            <p style=""font-size:50px; font-weight:bold;""
                            >angry</p>
                            <div style=""width:240px; margin: auto;"">
                                <img src=""images/map13_gist_earth_scaleRev_orientMir_090.png"" style= ""width:200px""alt=""img"">
                            </div>
                        </div>","-82","","0","","","","images/map13_gist_earth_scaleRev_orientMir_090.png","angry","1","13","13","gist","scaleRev","earth","orientMir","",""
"","","","","","html-slider-response","111","521575","0.0-105.0","16srse6k5c","48","NaN","<div style=""width:500px;"">
                            <p style=""font-size:50px; font-weight:bold;""
                            >angry</p>
                            <div style=""width:240px; margin: auto;"">
                                <img src=""images/map13_vanimo_scaleRev_orientDef_270.png"" style= ""width:200px""alt=""img"">
                            </div>
                        </div>","-128","","0","","","","images/map13_vanimo_scaleRev_orientDef_270.png","angry","1","13","13","vanimo","orientDef","scaleRev","270","",""
"","","","","","html-slider-response","112","523971","0.0-106.0","16srse6k5c","48","NaN","<div style=""width:500px;"">
                            <p style=""font-size:50px; font-weight:bold;""
                            >angry</p>
                            <div style=""width:240px; margin: auto;"">
                                <img src=""images/map23_Blues_scaleRev_orientMir_270.png"" style= ""width:200px""alt=""img"">
                            </div>
                        </div>","-143","","0","","","","images/map23_Blues_scaleRev_orientMir_270.png","angry","1","23","23","Blues","orientMir","scaleRev","270","",""
"","","","","","html-slider-response","113","526332","0.0-107.0","16srse6k5c","48","NaN","<div style=""width:500px;"">
                            <p style=""font-size:50px; font-weight:bold;""
                            >angry</p>
                            <div style=""width:240px; margin: auto;"">
                                <img src=""images/map15_plasma_scaleDef_orientDef_180.png"" style= ""width:200px""alt=""img"">
                            </div>
                        </div>","51","","0","","","","images/map15_plasma_scaleDef_orientDef_180.png","angry","1","15","15","plasma","orientDef","scaleDef","180","",""
"","","","","","html-slider-response","114","528694","0.0-108.0","16srse6k5c","48","NaN","<div style=""width:500px;"">
                            <p style=""font-size:50px; font-weight:bold;""
                            >angry</p>
                            <div style=""width:240px; margin: auto;"">
                                <img src=""images/map26_Greens_scaleRev_orientDef_090.png"" style= ""width:200px""alt=""img"">
                            </div>
                        </div>","-78","","0","","","","images/map26_Greens_scaleRev_orientDef_090.png","angry","1","26","26","Greens","orientDef","scaleRev","090","",""
"","","","","","html-slider-response","115","532986","0.0-109.0","16srse6k5c","48","NaN","<div style=""width:500px;"">
                            <p style=""font-size:50px; font-weight:bold;""
                            >angry</p>
                            <div style=""width:240px; margin: auto;"">
                                <img src=""images/map15_inferno_scaleDef_orientMir_000.png"" style= ""width:200px""alt=""img"">
                            </div>
                        </div>","42","","0","","","","images/map15_inferno_scaleDef_orientMir_000.png","angry","1","15","15","inferno","orientMir","scaleDef","000","",""
"","","","","","html-slider-response","116","535119","0.0-110.0","16srse6k5c","48","NaN","<div style=""width:500px;"">
                            <p style=""font-size:50px; font-weight:bold;""
                            >angry</p>
                            <div style=""width:240px; margin: auto;"">
                                <img src=""images/map10_RdYlBu_scaleRev_orientDef_270.png"" style= ""width:200px""alt=""img"">
                            </div>
                        </div>","-83","","0","","","","images/map10_RdYlBu_scaleRev_orientDef_270.png","angry","1","10","10","RdYlBu","orientDef","scaleRev","270","",""
"","","","","","html-slider-response","117","537483","0.0-111.0","16srse6k5c","48","NaN","<div style=""width:500px;"">
                            <p style=""font-size:50px; font-weight:bold;""
                            >angry</p>
                            <div style=""width:240px; margin: auto;"">
                                <img src=""images/map12_coolwarm_scaleDef_orientDef_000.png"" style= ""width:200px""alt=""img"">
                            </div>
                        </div>","-200","","0","","","","images/map12_coolwarm_scaleDef_orientDef_000.png","angry","1","12","12","coolwarm","orientDef","scaleDef","000","",""
"","","","","","html-slider-response","118","540115","0.0-112.0","16srse6k5c","48","NaN","<div style=""width:500px;"">
                            <p style=""font-size:50px; font-weight:bold;""
                            >angry</p>
                            <div style=""width:240px; margin: auto;"">
                                <img src=""images/map23_cividis_scaleRev_orientDef_090.png"" style= ""width:200px""alt=""img"">
                            </div>
                        </div>","-155","","0","","","","images/map23_cividis_scaleRev_orientDef_090.png","angry","1","23","23","cividis","orientDef","scaleRev","090","",""
"","","","","","html-slider-response","119","542510","0.0-113.0","16srse6k5c","48","NaN","<div style=""width:500px;"">
                            <p style=""font-size:50px; font-weight:bold;""
                            >angry</p>
                            <div style=""width:240px; margin: auto;"">
                                <img src=""images/map13_managua_scaleDef_orientDef_000.png"" style= ""width:200px""alt=""img"">
                            </div>
                        </div>","-64","","0","","","","images/map13_managua_scaleDef_orientDef_000.png","angry","1","13","13","managua","orientDef","scaleDef","000","",""
"","","","","","html-slider-response","120","544611","0.0-114.0","16srse6k5c","48","NaN","<div style=""width:500px;"">
                            <p style=""font-size:50px; font-weight:bold;""
                            >angry</p>
                            <div style=""width:240px; margin: auto;"">
                                <img src=""images/map07_PRGn_scaleDef_orientDef_000.png"" style= ""width:200px""alt=""img"">
                            </div>
                        </div>","-200","","0","","","","images/map07_PRGn_scaleDef_orientDef_000.png","angry","1","07","07","PRGn","orientDef","scaleDef","000","",""
"","","","","","html-slider-response","121","547545","0.0-115.0","16srse6k5c","48","NaN","<div style=""width:500px;"">
                            <p style=""font-size:50px; font-weight:bold;""
                            >angry</p>
                            <div style=""width:240px; margin: auto;"">
                                <img src=""images/map13_turbo_scaleRev_orientMir_270.png"" style= ""width:200px""alt=""img"">
                            </div>
                        </div>","-2","","0","","","","images/map13_turbo_scaleRev_orientMir_270.png","angry","1","13","13","turbo","orientMir","scaleRev","270","",""
"","","","","","html-slider-response","122","550637","0.0-116.0","16srse6k5c","48","NaN","<div style=""width:500px;"">
                            <p style=""font-size:50px; font-weight:bold;""
                            >angry</p>
                            <div style=""width:240px; margin: auto;"">
                                <img src=""images/map15_magma_scaleRev_orientMir_270.png"" style= ""width:200px""alt=""img"">
                            </div>
                        </div>","10","","0","","","","images/map15_magma_scaleRev_orientMir_270.png","angry","1","15","15","magma","orientMir","scaleRev","270","",""
"","","","","","html-slider-response","123","552966","0.0-117.0","16srse6k5c","48","NaN","<div style=""width:500px;"">
                            <p style=""font-size:50px; font-weight:bold;""
                            >angry</p>
                            <div style=""width:240px; margin: auto;"">
                                <img src=""images/map12_coolwarm_scaleRev_orientDef_090.png"" style= ""width:200px""alt=""img"">
                            </div>
                        </div>","-16","","0","","","","images/map12_coolwarm_scaleRev_orientDef_090.png","angry","1","12","12","coolwarm","orientDef","scaleRev","090","",""
"","","","","","html-slider-response","124","555064","0.0-118.0","16srse6k5c","48","NaN","<div style=""width:500px;"">
                            <p style=""font-size:50px; font-weight:bold;""
                            >angry</p>
                            <div style=""width:240px; margin: auto;"">
                                <img src=""images/map15_viridis_scaleRev_orientDef_090.png"" style= ""width:200px""alt=""img"">
                            </div>
                        </div>","-136","","0","","","","images/map15_viridis_scaleRev_orientDef_090.png","angry","1","15","15","viridis","orientDef","scaleRev","090","",""
"","","","","","html-slider-response","125","557408","0.0-119.0","16srse6k5c","48","NaN","<div style=""width:500px;"">
                            <p style=""font-size:50px; font-weight:bold;""
                            >angry</p>
                            <div style=""width:240px; margin: auto;"">
                                <img src=""images/map27_OrRd_scaleRev_orientDef_270.png"" style= ""width:200px""alt=""img"">
                            </div>
                        </div>","133","","0","","","","images/map27_OrRd_scaleRev_orientDef_270.png","angry","1","27","27","OrRd","orientDef","scaleRev","270","",""
"","","","","","html-slider-response","126","561236","0.0-120.0","16srse6k5c","48","NaN","<div style=""width:500px;"">
                            <p style=""font-size:50px; font-weight:bold;""
                            >angry</p>
                            <div style=""width:240px; margin: auto;"">
                                <img src=""images/map27_PuRd_scaleRev_orientMir_090.png"" style= ""width:200px""alt=""img"">
                            </div>
                        </div>","-93","","0","","","","images/map27_PuRd_scaleRev_orientMir_090.png","angry","1","27","27","PuRd","orientMir","scaleRev","090","",""
"","","","","","html-slider-response","127","567732","0.0-121.0","16srse6k5c","48","NaN","<div style=""width:500px;"">
                            <p style=""font-size:50px; font-weight:bold;""
                            >angry</p>
                            <div style=""width:240px; margin: auto;"">
                                <img src=""images/map15_inferno_scaleRev_orientMir_090.png"" style= ""width:200px""alt=""img"">
                            </div>
                        </div>","104","","0","","","","images/map15_inferno_scaleRev_orientMir_090.png","angry","1","15","15","inferno","orientMir","scaleRev","090","",""
"","","","","","html-slider-response","128","569868","0.0-122.0","16srse6k5c","48","NaN","<div style=""width:500px;"">
                            <p style=""font-size:50px; font-weight:bold;""
                            >angry</p>
                            <div style=""width:240px; margin: auto;"">
                                <img src=""images/map02_PuBu_scaleRev_orientMir_090.png"" style= ""width:200px""alt=""img"">
                            </div>
                        </div>","-124","","0","","","","images/map02_PuBu_scaleRev_orientMir_090.png","angry","1","02","02","PuBu","orientMir","scaleRev","090","",""
"","","","","","html-slider-response","129","572175","0.0-123.0","16srse6k5c","48","NaN","<div style=""width:500px;"">
                            <p style=""font-size:50px; font-weight:bold;""
                            >angry</p>
                            <div style=""width:240px; margin: auto;"">
                                <img src=""images/map05_PuBuGn_scaleDef_orientDef_000.png"" style= ""width:200px""alt=""img"">
                            </div>
                        </div>","-153","","0","","","","images/map05_PuBuGn_scaleDef_orientDef_000.png","angry","1","05","05","PuBuGn","orientDef","scaleDef","000","",""
"","","","","","html-slider-response","130","575704","0.0-124.0","16srse6k5c","48","NaN","<div style=""width:500px;"">
                            <p style=""font-size:50px; font-weight:bold;""
                            >angry</p>
                            <div style=""width:240px; margin: auto;"">
                                <img src=""images/map12_berlin_scaleDef_orientMir_180.png"" style= ""width:200px""alt=""img"">
                            </div>
                        </div>","-122","","0","","","","images/map12_berlin_scaleDef_orientMir_180.png","angry","1","12","12","berlin","orientMir","scaleDef","180","",""
"","","","","","html-slider-response","131","578489","0.0-125.0","16srse6k5c","48","NaN","<div style=""width:500px;"">
                            <p style=""font-size:50px; font-weight:bold;""
                            >angry</p>
                            <div style=""width:240px; margin: auto;"">
                                <img src=""images/map26_Reds_scaleDef_orientMir_000.png"" style= ""width:200px""alt=""img"">
                            </div>
                        </div>","187","","0","","","","images/map26_Reds_scaleDef_orientMir_000.png","angry","1","26","26","Reds","orientMir","scaleDef","000","",""
"","","","","","html-slider-response","132","580420","0.0-126.0","16srse6k5c","48","NaN","<div style=""width:500px;"">
                            <p style=""font-size:50px; font-weight:bold;""
                            >angry</p>
                            <div style=""width:240px; margin: auto;"">
                                <img src=""images/map05_YlGn_scaleDef_orientMir_000.png"" style= ""width:200px""alt=""img"">
                            </div>
                        </div>","-109","","0","","","","images/map05_YlGn_scaleDef_orientMir_000.png","angry","1","05","05","YlGn","orientMir","scaleDef","000","",""
"","","","","","html-slider-response","133","582419","0.0-127.0","16srse6k5c","48","NaN","<div style=""width:500px;"">
                            <p style=""font-size:50px; font-weight:bold;""
                            >angry</p>
                            <div style=""width:240px; margin: auto;"">
                                <img src=""images/map10_RdYlBu_scaleDef_orientDef_180.png"" style= ""width:200px""alt=""img"">
                            </div>
                        </div>","-48","","0","","","","images/map10_RdYlBu_scaleDef_orientDef_180.png","angry","1","10","10","RdYlBu","orientDef","scaleDef","180","",""
"","","","","","html-slider-response","134","584518","0.0-128.0","16srse6k5c","48","NaN","<div style=""width:500px;"">
                            <p style=""font-size:50px; font-weight:bold;""
                            >angry</p>
                            <div style=""width:240px; margin: auto;"">
                                <img src=""images/map02_BuPu_scaleDef_orientDef_000.png"" style= ""width:200px""alt=""img"">
                            </div>
                        </div>","-200","","0","","","","images/map02_BuPu_scaleDef_orientDef_000.png","angry","1","02","02","BuPu","orientDef","scaleDef","000","",""
"","","","","","html-slider-response","135","588536","0.0-129.0","16srse6k5c","48","NaN","<div style=""width:500px;"">
                            <p style=""font-size:50px; font-weight:bold;""
                            >angry</p>
                            <div style=""width:240px; margin: auto;"">
                                <img src=""images/map10_RdYlGn_scaleDef_orientMir_000.png"" style= ""width:200px""alt=""img"">
                            </div>
                        </div>","4","","0","","","","images/map10_RdYlGn_scaleDef_orientMir_000.png","angry","1","10","10","RdYlGn","orientMir","scaleDef","000","",""
"","","","","","html-slider-response","136","590463","0.0-130.0","16srse6k5c","48","NaN","<div style=""width:500px;"">
                            <p style=""font-size:50px; font-weight:bold;""
                            >angry</p>
                            <div style=""width:240px; margin: auto;"">
                                <img src=""images/map13_managua_scaleRev_orientDef_090.png"" style= ""width:200px""alt=""img"">
                            </div>
                        </div>","4","","0","","","","images/map13_managua_scaleRev_orientDef_090.png","angry","1","13","13","managua","orientDef","scaleRev","090","",""
"","","","","","html-slider-response","137","592853","0.0-131.0","16srse6k5c","48","NaN","<div style=""width:500px;"">
                            <p style=""font-size:50px; font-weight:bold;""
                            >angry</p>
                            <div style=""width:240px; margin: auto;"">
                                <img src=""images/map27_RdPu_scaleRev_orientMir_270.png"" style= ""width:200px""alt=""img"">
                            </div>
                        </div>","-39","","0","","","","images/map27_RdPu_scaleRev_orientMir_270.png","angry","1","27","27","RdPu","orientMir","scaleRev","270","",""
"","","","","","html-slider-response","138","594918","0.0-132.0","16srse6k5c","48","NaN","<div style=""width:500px;"">
                            <p style=""font-size:50px; font-weight:bold;""
                            >angry</p>
                            <div style=""width:240px; margin: auto;"">
                                <img src=""images/map26_Greens_scaleDef_orientDef_000.png"" style= ""width:200px""alt=""img"">
                            </div>
                        </div>","-121","","0","","","","images/map26_Greens_scaleDef_orientDef_000.png","angry","1","26","26","Greens","orientDef","scaleDef","000","",""
"","","","","","html-slider-response","139","596982","0.0-133.0","16srse6k5c","48","NaN","<div style=""width:500px;"">
                            <p style=""font-size:50px; font-weight:bold;""
                            >angry</p>
                            <div style=""width:240px; margin: auto;"">
                                <img src=""images/map13_vanimo_scaleDef_orientDef_180.png"" style= ""width:200px""alt=""img"">
                            </div>
                        </div>","-103","","0","","","","images/map13_vanimo_scaleDef_orientDef_180.png","angry","1","13","13","vanimo","orientDef","scaleDef","180","",""
"","","","","","html-slider-response","140","598818","0.0-134.0","16srse6k5c","48","NaN","<div style=""width:500px;"">
                            <p style=""font-size:50px; font-weight:bold;""
                            >angry</p>
                            <div style=""width:240px; margin: auto;"">
                                <img src=""images/map10_RdBu_scaleDef_orientDef_000.png"" style= ""width:200px""alt=""img"">
                            </div>
                        </div>","-44","","0","","","","images/map10_RdBu_scaleDef_orientDef_000.png","angry","1","10","10","RdBu","orientDef","scaleDef","000","",""
"","","","","","html-slider-response","141","601326","0.0-135.0","16srse6k5c","48","NaN","<div style=""width:500px;"">
                            <p style=""font-size:50px; font-weight:bold;""
                            >angry</p>
                            <div style=""width:240px; margin: auto;"">
                                <img src=""images/map27_YlOrRd_scaleRev_orientDef_090.png"" style= ""width:200px""alt=""img"">
                            </div>
                        </div>","179","","0","","","","images/map27_YlOrRd_scaleRev_orientDef_090.png","angry","1","27","27","YlOrRd","orientDef","scaleRev","090","",""
"","","","","","html-slider-response","142","608050","0.0-136.0","16srse6k5c","48","NaN","<div style=""width:500px;"">
                            <p style=""font-size:50px; font-weight:bold;""
                            >angry</p>
                            <div style=""width:240px; margin: auto;"">
                                <img src=""images/map05_YlGn_scaleRev_orientMir_090.png"" style= ""width:200px""alt=""img"">
                            </div>
                        </div>","-82","","0","","","","images/map05_YlGn_scaleRev_orientMir_090.png","angry","1","05","05","YlGn","orientMir","scaleRev","090","",""
"","","","","","html-button-response","143","610738","0.0-137.0","16srse6k5c","48","2185","<p>You are doing great!<br></br> You are halway done with the current block. When you are ready to continue, click the 'Continue' button.</p>","0","","","","","","","","","","","","","","","",""
"","","","","","html-slider-response","144","613082","0.0-138.0","16srse6k5c","48","NaN","<div style=""width:500px;"">
                            <p style=""font-size:50px; font-weight:bold;""
                            >angry</p>
                            <div style=""width:240px; margin: auto;"">
                                <img src=""images/map05_BuGn_scaleDef_orientDef_180.png"" style= ""width:200px""alt=""img"">
                            </div>
                        </div>","-48","","0","","","","images/map05_BuGn_scaleDef_orientDef_180.png","angry","1","05","05","BuGn","orientDef","scaleDef","180","",""
"","","","","","html-slider-response","145","615233","0.0-139.0","16srse6k5c","48","NaN","<div style=""width:500px;"">
                            <p style=""font-size:50px; font-weight:bold;""
                            >angry</p>
                            <div style=""width:240px; margin: auto;"">
                                <img src=""images/map27_RdPu_scaleDef_orientMir_180.png"" style= ""width:200px""alt=""img"">
                            </div>
                        </div>","10","","0","","","","images/map27_RdPu_scaleDef_orientMir_180.png","angry","1","27","27","RdPu","orientMir","scaleDef","180","",""
"","","","","","html-slider-response","146","617911","0.0-140.0","16srse6k5c","48","NaN","<div style=""width:500px;"">
                            <p style=""font-size:50px; font-weight:bold;""
                            >angry</p>
                            <div style=""width:240px; margin: auto;"">
                                <img src=""images/map26_Oranges_scaleDef_orientDef_180.png"" style= ""width:200px""alt=""img"">
                            </div>
                        </div>","154","","0","","","","images/map26_Oranges_scaleDef_orientDef_180.png","angry","1","26","26","Oranges","orientDef","scaleDef","180","",""
"","","","","","html-slider-response","147","620200","0.0-141.0","16srse6k5c","48","NaN","<div style=""width:500px;"">
                            <p style=""font-size:50px; font-weight:bold;""
                            >angry</p>
                            <div style=""width:240px; margin: auto;"">
                                <img src=""images/map05_PiYG_scaleDef_orientMir_180.png"" style= ""width:200px""alt=""img"">
                            </div>
                        </div>","-105","","0","","","","images/map05_PiYG_scaleDef_orientMir_180.png","angry","1","05","05","PiYG","orientMir","scaleDef","180","",""
"","","","","","html-slider-response","148","623751","0.0-142.0","16srse6k5c","48","NaN","<div style=""width:500px;"">
                            <p style=""font-size:50px; font-weight:bold;""
                            >angry</p>
                            <div style=""width:240px; margin: auto;"">
                                <img src=""images/map12_seismic_scaleDef_orientMir_000.png"" style= ""width:200px""alt=""img"">
                            </div>
                        </div>","91","","0","","","","images/map12_seismic_scaleDef_orientMir_000.png","angry","1","12","12","seismic","orientMir","scaleDef","000","",""
"","","","","","html-slider-response","149","625585","0.0-143.0","16srse6k5c","48","NaN","<div style=""width:500px;"">
                            <p style=""font-size:50px; font-weight:bold;""
                            >angry</p>
                            <div style=""width:240px; margin: auto;"">
                                <img src=""images/map15_viridis_scaleDef_orientDef_000.png"" style= ""width:200px""alt=""img"">
                            </div>
                        </div>","-74","","0","","","","images/map15_viridis_scaleDef_orientDef_000.png","angry","1","15","15","viridis","orientDef","scaleDef","000","",""
"","","","","","html-slider-response","150","627447","0.0-144.0","16srse6k5c","48","NaN","<div style=""width:500px;"">
                            <p style=""font-size:50px; font-weight:bold;""
                            >angry</p>
                            <div style=""width:240px; margin: auto;"">
                                <img src=""images/map10_Spectral_scaleDef_orientMir_180.png"" style= ""width:200px""alt=""img"">
                            </div>
                        </div>","-44","","0","","","","images/map10_Spectral_scaleDef_orientMir_180.png","angry","1","10","10","Spectral","orientMir","scaleDef","180","",""
"","","","","","html-slider-response","151","629330","0.0-145.0","16srse6k5c","48","NaN","<div style=""width:500px;"">
                            <p style=""font-size:50px; font-weight:bold;""
                            >angry</p>
                            <div style=""width:240px; margin: auto;"">
                                <img src=""images/map23_Purples_scaleRev_orientMir_090.png"" style= ""width:200px""alt=""img"">
                            </div>
                        </div>","-145","","0","","","","images/map23_Purples_scaleRev_orientMir_090.png","angry","1","23","23","Purples","orientMir","scaleRev","090","",""
"","","","","","html-slider-response","152","632666","0.0-146.0","16srse6k5c","48","NaN","<div style=""width:500px;"">
                            <p style=""font-size:50px; font-weight:bold;""
                            >angry</p>
                            <div style=""width:240px; margin: auto;"">
                                <img src=""images/map07_RdGy_scaleDef_orientMir_180.png"" style= ""width:200px""alt=""img"">
                            </div>
                        </div>","70","","0","","","","images/map07_RdGy_scaleDef_orientMir_180.png","angry","1","07","07","RdGy","orientMir","scaleDef","180","",""
"","","","","","html-slider-response","153","635717","0.0-147.0","16srse6k5c","48","NaN","<div style=""width:500px;"">
                            <p style=""font-size:50px; font-weight:bold;""
                            >angry</p>
                            <div style=""width:240px; margin: auto;"">
                                <img src=""images/map27_PuRd_scaleDef_orientMir_000.png"" style= ""width:200px""alt=""img"">
                            </div>
                        </div>","-64","","0","","","","images/map27_PuRd_scaleDef_orientMir_000.png","angry","1","27","27","PuRd","orientMir","scaleDef","000","",""
"","","","","","html-slider-response","154","637378","0.0-148.0","16srse6k5c","48","NaN","<div style=""width:500px;"">
                            <p style=""font-size:50px; font-weight:bold;""
                            >angry</p>
                            <div style=""width:240px; margin: auto;"">
                                <img src=""images/map05_BuGn_scaleRev_orientDef_270.png"" style= ""width:200px""alt=""img"">
                            </div>
                        </div>","-127","","0","","","","images/map05_BuGn_scaleRev_orientDef_270.png","angry","1","05","05","BuGn","orientDef","scaleRev","270","",""
"","","","","","html-slider-response","155","639400","0.0-149.0","16srse6k5c","48","NaN","<div style=""width:500px;"">
                            <p style=""font-size:50px; font-weight:bold;""
                            >angry</p>
                            <div style=""width:240px; margin: auto;"">
                                <img src=""images/map02_YlGnBu_scaleDef_orientMir_180.png"" style= ""width:200px""alt=""img"">
                            </div>
                        </div>","-158","","0","","","","images/map02_YlGnBu_scaleDef_orientMir_180.png","angry","1","02","02","YlGnBu","orientMir","scaleDef","180","",""
"","","","","","html-slider-response","156","641202","0.0-150.0","16srse6k5c","48","NaN","<div style=""width:500px;"">
                            <p style=""font-size:50px; font-weight:bold;""
                            >angry</p>
                            <div style=""width:240px; margin: auto;"">
                                <img src=""images/map07_PRGn_scaleRev_orientDef_090.png"" style= ""width:200px""alt=""img"">
                            </div>
                        </div>","-14","","0","","","","images/map07_PRGn_scaleRev_orientDef_090.png","angry","1","07","07","PRGn","orientDef","scaleRev","090","",""
"","","","","","html-slider-response","157","642728","0.0-151.0","16srse6k5c","48","NaN","<div style=""width:500px;"">
                            <p style=""font-size:50px; font-weight:bold;""
                            >angry</p>
                            <div style=""width:240px; margin: auto;"">
                                <img src=""images/map02_YlGnBu_scaleRev_orientMir_270.png"" style= ""width:200px""alt=""img"">
                            </div>
                        </div>","-141","","0","","","","images/map02_YlGnBu_scaleRev_orientMir_270.png","angry","1","02","02","YlGnBu","orientMir","scaleRev","270","",""
"","","","","","html-slider-response","158","644811","0.0-152.0","16srse6k5c","48","NaN","<div style=""width:500px;"">
                            <p style=""font-size:50px; font-weight:bold;""
                            >angry</p>
                            <div style=""width:240px; margin: auto;"">
                                <img src=""images/map26_YlOrBr_scaleDef_orientMir_180.png"" style= ""width:200px""alt=""img"">
                            </div>
                        </div>","111","","0","","","","images/map26_YlOrBr_scaleDef_orientMir_180.png","angry","1","26","26","YlOrBr","orientMir","scaleDef","180","",""
