"success","timeout","failed_images","failed_audio","failed_video","trial_type","trial_index","time_elapsed","internal_node_id","subject_id","condition_num","rt","stimulus","response","question_order","slider_start","practiceTrial","practiceTrialNum","correct","image_path","concept","repetition","map_id","map_num","scale_name","orientation_code","mapping_code","rotation_code","ishihara_plate","correct_response"
"true","false","[]","[]","[]","preload","0","296","0.0-0.0","1pueqoppeb","53","","","","","","","","","","","","","","","","","","",""
"","","","","","html-button-response","1","2263","0.0-1.0","1pueqoppeb","53","1965","Welcome to our experiment!<p>At the bottom of this screen, you will see a button that says ""Begin Experiment"".<br>Please only click that button when you are ready to complete the 30 minute experiment in one sitting.</p><p> Once you click that button, it will not be possible to restart the experiment.","0","","","","","","","","","","","","","","","",""
"true","","","","","fullscreen","2","4232","0.0-2.0","1pueqoppeb","53","964","","","","","","","","","","","","","","","","","",""
"","","","","","survey-multi-select","3","21198","0.0-3.0","1pueqoppeb","53","16960","","{""Consent"":[""<strong>I consent</strong>""]}","[0]","","","","","","","","","","","","","","",""
"","","","","","html-button-response","4","24545","0.0-4.0","1pueqoppeb","53","3345","Welcome! <p> This experiment involves two parts: demographic information, followed by the experimental task.<p> It will take about 30 minutes to complete both parts.","0","","","","","","","","","","","","","","","",""
"","","","","","survey-text","5","36599","0.0-5.0","1pueqoppeb","53","12040","","{""Age"":""19"",""Gender"":""M"",""Race/ethnicity"":""white"",""Languages"":""englsh""}","","","","","","","","","","","","","","","",""
"","","","","","html-slider-response","6","67728","0.0-6.0","1pueqoppeb","53","31125","<div style='text-align:left; font-size:20px; line-height:25px; width: 1000px;'>
                                During this experiment you will be asked to rate how much you associate maps with                    different concepts.<br> Below, you can see some examples of the maps you will be asked to rate. Above the maps
                    is the list of concepts.<br>You will be asked                    to rate how much you associate each map with each concept on a scale from 'not at all' to 'very much' like the
                    one below. <br><br>
                    Now, please look at the list of concepts and maps. For each concept, think about the map you associate 'very
                    much' with the concept.<br>                     When you see that map during the experiment, please rate it near the 'very much' endpoint of the
                    scale.<br>Now, please think about which map you associate 'not at all'                     with each concept. When you see that map during the experiment, please rate it near the 'not at all' endpoint
                    of the scale.<br>
                    Please use the full range of the scale. That is, if a map is somewhat associated with the concept, you would
                    click partway between the middle point and right side of the scale.                    You will be asked to rate each map for a given concept before moving on to the next concept.<br>Press the
                    'Continue' button for instructions on how to use the slider.                    <br>
                </div>

                <div style=""width: 500px; margin: 0 auto;"">
                    <!-- Centered text paragraphs -->
                    <div style=""text-align: center; width: 500px;"">
                        <p style=""font-size:25px; line-height:15px;"">
                            disgust&nbsp;&nbsp;&nbsp;&nbsp;
                            fearful&nbsp;&nbsp;&nbsp;&nbsp;
                            sad&nbsp;&nbsp;&nbsp;&nbsp;
                            angry&nbsp;&nbsp;&nbsp;&nbsp;
                            happy
                        </p>
                        <!-- <p style=""font-size:20px; line-height:15px;"">fearful</p>
                        <p style=""font-size:20px;line-height:15px;"">sad</p>
                        <p style=""font-size:20px;line-height:15px;"">angry</p>
                        <p style=""font-size:20px;line-height:15px;"">happy</p> -->
                    </div>
            

                    <!-- Grid section -->
                   <div style=""display: flex; justify-content: center; padding-top: 15px;"">
                    <div style=""display: grid; grid-template-columns: repeat(10, 55px); grid-gap: 5px; width: auto;"">
                        <img src=""images/map10_PiYG_scaleRev_orientMir_180.png"" alt=""map"" style=""width: 100%;""><img src=""images/map23_vanimo_scaleRev_orientDef_180.png"" alt=""map"" style=""width: 100%;""><img src=""images/map02_Oranges_scaleRev_orientDef_180.png"" alt=""map"" style=""width: 100%;""><img src=""images/map26_magma_scaleDef_orientMir_090.png"" alt=""map"" style=""width: 100%;""><img src=""images/map07_GnBu_scaleRev_orientDef_180.png"" alt=""map"" style=""width: 100%;""><img src=""images/map12_PuOr_scaleDef_orientDef_270.png"" alt=""map"" style=""width: 100%;""><img src=""images/map27_cividis_scaleRev_orientDef_000.png"" alt=""map"" style=""width: 100%;""><img src=""images/map23_managua_scaleRev_orientDef_000.png"" alt=""map"" style=""width: 100%;""><img src=""images/map05_PuRd_scaleDef_orientDef_270.png"" alt=""map"" style=""width: 100%;""><img src=""images/map13_RdYlBu_scaleRev_orientDef_180.png"" alt=""map"" style=""width: 100%;""><img src=""images/map12_RdGy_scaleRev_orientMir_180.png"" alt=""map"" style=""width: 100%;""><img src=""images/map27_Purples_scaleRev_orientMir_000.png"" alt=""map"" style=""width: 100%;""><img src=""images/map26_inferno_scaleDef_orientDef_270.png"" alt=""map"" style=""width: 100%;""><img src=""images/map27_Blues_scaleRev_orientMir_180.png"" alt=""map"" style=""width: 100%;""><img src=""images/map05_YlOrRd_scaleRev_orientDef_000.png"" alt=""map"" style=""width: 100%;""><img src=""images/map12_BrBG_scaleRev_orientDef_180.png"" alt=""map"" style=""width: 100%;""><img src=""images/map27_Greys_scaleRev_orientDef_180.png"" alt=""map"" style=""width: 100%;""><img src=""images/map05_RdPu_scaleDef_orientMir_090.png"" alt=""map"" style=""width: 100%;""><img src=""images/map10_YlGn_scaleRev_orientMir_000.png"" alt=""map"" style=""width: 100%;""><img src=""images/map02_Reds_scaleDef_orientDef_270.png"" alt=""map"" style=""width: 100%;""><img src=""images/map05_OrRd_scaleRev_orientDef_180.png"" alt=""map"" style=""width: 100%;""><img src=""images/map15_bwr_scaleRev_orientDef_180.png"" alt=""map"" style=""width: 100%;""><img src=""images/map13_RdYlGn_scaleRev_orientMir_000.png"" alt=""map"" style=""width: 100%;""><img src=""images/map12_RdBu_scaleDef_orientMir_270.png"" alt=""map"" style=""width: 100%;""><img src=""images/map10_PRGn_scaleDef_orientMir_270.png"" alt=""map"" style=""width: 100%;""><img src=""images/map10_PuBuGn_scaleRev_orientDef_000.png"" alt=""map"" style=""width: 100%;""><img src=""images/map02_YlOrBr_scaleDef_orientMir_090.png"" alt=""map"" style=""width: 100%;""><img src=""images/map13_coolwarm_scaleDef_orientMir_270.png"" alt=""map"" style=""width: 100%;""><img src=""images/map15_berlin_scaleDef_orientMir_090.png"" alt=""map"" style=""width: 100%;""><img src=""images/map26_viridis_scaleRev_orientDef_000.png"" alt=""map"" style=""width: 100%;""><img src=""images/map07_YlGnBu_scaleRev_orientMir_180.png"" alt=""map"" style=""width: 100%;""><img src=""images/map15_seismic_scaleRev_orientMir_000.png"" alt=""map"" style=""width: 100%;""><img src=""images/map10_BuGn_scaleRev_orientDef_180.png"" alt=""map"" style=""width: 100%;""><img src=""images/map05_BuPu_scaleDef_orientMir_270.png"" alt=""map"" style=""width: 100%;""><img src=""images/map23_turbo_scaleRev_orientMir_180.png"" alt=""map"" style=""width: 100%;""><img src=""images/map23_gist_earth_scaleRev_orientMir_000.png"" alt=""map"" style=""width: 100%;""><img src=""images/map27_Greens_scaleDef_orientMir_270.png"" alt=""map"" style=""width: 100%;""><img src=""images/map13_Spectral_scaleRev_orientMir_180.png"" alt=""map"" style=""width: 100%;""><img src=""images/map07_PuBu_scaleRev_orientMir_000.png"" alt=""map"" style=""width: 100%;""><img src=""images/map26_plasma_scaleRev_orientDef_180.png"" alt=""map"" style=""width: 100%;"">
                    </div>
                </div>

                    <!-- Clear floats -->
                    <div style=""clear: both;""></div>
                </div>
                            ","175","","0","true","","","","","","","","","","","","",""
"","","","","","html-button-response","7","69678","0.0-7.0","1pueqoppeb","53","1948","<div style=""width:800px;""><p style=""text-align:left"">To move the slider, click and drag your cursor to the location of the scale where you would like to make your rating and then let go. When you let go of the slider, your response will be recorded and the next trial will begin. <br>
                    We are interested in your initial impressions of each map for the given concept, so please go with your first intuition. <br>
                    Before you begin the experiment, there will be four training trials for you to practice using the scale. <br>
                     When you are ready to start the training trials, please click ""Continue"".</p><br></div>","0","","","","","","","","","","","","","","","",""
"","","","","","html-slider-response","8","72873","0.0-8.0-0.0","1pueqoppeb","53","NaN","<div style=""width:500px;"">
                                    <p style=""font-size:25px;"">Please move the slider all the way to the <br> right endpoint of the scale</p>

                                    </div>
                                </div>","200","","0","true","0","true","","","","","","","","","","",""
"","","","","","html-button-response","9","74529","0.0-8.0-1.0","1pueqoppeb","53","1153","<p align='center'><b>Good job!</b> Click on 'Continue' to proceed.</p>","0","","","","","","","","","","","","","","","",""
"","","","","","html-slider-response","10","76757","0.0-9.0-0.0","1pueqoppeb","53","NaN","<div style=""width:500px;"">
                                    <p style=""font-size:25px;"">Please move the slider all the way to the <br> left endpoint of the scale</p>

                                    </div>
                                </div>","-200","","0","true","1","true","","","","","","","","","","",""
"","","","","","html-button-response","11","78128","0.0-9.0-1.0","1pueqoppeb","53","867","<p align='center'><b>Good job!</b> Click on 'Continue' to proceed.</p>","0","","","","","","","","","","","","","","","",""
"","","","","","html-slider-response","12","83557","0.0-10.0-0.0","1pueqoppeb","53","NaN","<div style=""width:500px;"">
                                    <p style=""font-size:25px;"">Please move the slider halfway between the center and right endpoint of the scale</p>

                                    </div>
                                </div>","106","","0","true","2","true","","","","","","","","","","",""
"","","","","","html-button-response","13","84812","0.0-10.0-1.0","1pueqoppeb","53","752","<p align='center'><b>Good job!</b> Click on 'Continue' to proceed.</p>","0","","","","","","","","","","","","","","","",""
"","","","","","html-slider-response","14","87173","0.0-11.0-0.0","1pueqoppeb","53","NaN","<div style=""width:500px;"">
                                    <p style=""font-size:25px;"">Please move the slider halfway between the center and left endpoint of the scale</p>

                                    </div>
                                </div>","-110","","0","true","3","true","","","","","","","","","","",""
"","","","","","html-button-response","15","88327","0.0-11.0-1.0","1pueqoppeb","53","652","<p align='center'><b>Good job!</b> Click on 'Continue' to proceed.</p>","0","","","","","","","","","","","","","","","",""
"","","","","","html-button-response","16","90746","0.0-12.0","1pueqoppeb","53","2417","<p>Great job! You've completed the practice trials. Now you will begin the main task.</p>","0","","","","","","","","","","","","","","","",""
"","","","","","html-button-response","17","93278","0.0-13.0","1pueqoppeb","53","2532","<p>In this block of trials, you will be asked to rate how much you associate each map with:</p > <p style = 'font-size:150%; font-weight: bold'>disgust</p><br></br>","0","","","","","","","","","","","","","","","",""
"","","","","","html-slider-response","18","96723","0.0-14.0","1pueqoppeb","53","NaN","<div style=""width:500px;"">
                            <p style=""font-size:50px; font-weight:bold;""
                            >disgust</p>
                            <div style=""width:240px; margin: auto;"">
                                <img src=""images/map12_PuOr_scaleRev_orientMir_000.png"" style= ""width:200px""alt=""img"">
                            </div>
                        </div>","28","","0","","","","images/map12_PuOr_scaleRev_orientMir_000.png","disgust","1","12","12","PuOr","orientMir","scaleRev","000","",""
"","","","","","html-slider-response","19","99057","0.0-15.0","1pueqoppeb","53","NaN","<div style=""width:500px;"">
                            <p style=""font-size:50px; font-weight:bold;""
                            >disgust</p>
                            <div style=""width:240px; margin: auto;"">
                                <img src=""images/map12_BrBG_scaleRev_orientDef_180.png"" style= ""width:200px""alt=""img"">
                            </div>
                        </div>","42","","0","","","","images/map12_BrBG_scaleRev_orientDef_180.png","disgust","1","12","12","BrBG","orientDef","scaleRev","180","",""
"","","","","","html-slider-response","20","102340","0.0-16.0","1pueqoppeb","53","NaN","<div style=""width:500px;"">
                            <p style=""font-size:50px; font-weight:bold;""
                            >disgust</p>
                            <div style=""width:240px; margin: auto;"">
                                <img src=""images/map02_YlOrRd_scaleDef_orientMir_270.png"" style= ""width:200px""alt=""img"">
                            </div>
                        </div>","89","","0","","","","images/map02_YlOrRd_scaleDef_orientMir_270.png","disgust","1","02","02","YlOrRd","orientMir","scaleDef","270","",""
"","","","","","html-slider-response","21","105341","0.0-17.0","1pueqoppeb","53","NaN","<div style=""width:500px;"">
                            <p style=""font-size:50px; font-weight:bold;""
                            >disgust</p>
                            <div style=""width:240px; margin: auto;"">
                                <img src=""images/map12_RdBu_scaleDef_orientMir_270.png"" style= ""width:200px""alt=""img"">
                            </div>
                        </div>","-71","","0","","","","images/map12_RdBu_scaleDef_orientMir_270.png","disgust","1","12","12","RdBu","orientMir","scaleDef","270","",""
"","","","","","html-slider-response","22","107474","0.0-18.0","1pueqoppeb","53","NaN","<div style=""width:500px;"">
                            <p style=""font-size:50px; font-weight:bold;""
                            >disgust</p>
                            <div style=""width:240px; margin: auto;"">
                                <img src=""images/map07_PuBu_scaleDef_orientDef_270.png"" style= ""width:200px""alt=""img"">
                            </div>
                        </div>","-200","","0","","","","images/map07_PuBu_scaleDef_orientDef_270.png","disgust","1","07","07","PuBu","orientDef","scaleDef","270","",""
"","","","","","html-slider-response","23","109941","0.0-19.0","1pueqoppeb","53","NaN","<div style=""width:500px;"">
                            <p style=""font-size:50px; font-weight:bold;""
                            >disgust</p>
                            <div style=""width:240px; margin: auto;"">
                                <img src=""images/map27_cividis_scaleRev_orientDef_000.png"" style= ""width:200px""alt=""img"">
                            </div>
                        </div>","133","","0","","","","images/map27_cividis_scaleRev_orientDef_000.png","disgust","1","27","27","cividis","orientDef","scaleRev","000","",""
"","","","","","html-slider-response","24","114957","0.0-20.0","1pueqoppeb","53","NaN","<div style=""width:500px;"">
                            <p style=""font-size:50px; font-weight:bold;""
                            >disgust</p>
                            <div style=""width:240px; margin: auto;"">
                                <img src=""images/map23_turbo_scaleDef_orientMir_090.png"" style= ""width:200px""alt=""img"">
                            </div>
                        </div>","-94","","0","","","","images/map23_turbo_scaleDef_orientMir_090.png","disgust","1","23","23","turbo","orientMir","scaleDef","090","",""
"","","","","","html-slider-response","25","117456","0.0-21.0","1pueqoppeb","53","NaN","<div style=""width:500px;"">
                            <p style=""font-size:50px; font-weight:bold;""
                            >disgust</p>
                            <div style=""width:240px; margin: auto;"">
                                <img src=""images/map26_plasma_scaleDef_orientDef_090.png"" style= ""width:200px""alt=""img"">
                            </div>
                        </div>","103","","0","","","","images/map26_plasma_scaleDef_orientDef_090.png","disgust","1","26","26","plasma","orientDef","scaleDef","090","",""
"","","","","","html-slider-response","26","119423","0.0-22.0","1pueqoppeb","53","NaN","<div style=""width:500px;"">
                            <p style=""font-size:50px; font-weight:bold;""
                            >disgust</p>
                            <div style=""width:240px; margin: auto;"">
                                <img src=""images/map15_bwr_scaleRev_orientDef_180.png"" style= ""width:200px""alt=""img"">
                            </div>
                        </div>","-50","","0","","","","images/map15_bwr_scaleRev_orientDef_180.png","disgust","1","15","15","bwr","orientDef","scaleRev","180","",""
"","","","","","html-slider-response","27","121573","0.0-23.0","1pueqoppeb","53","NaN","<div style=""width:500px;"">
                            <p style=""font-size:50px; font-weight:bold;""
                            >disgust</p>
                            <div style=""width:240px; margin: auto;"">
                                <img src=""images/map10_PiYG_scaleRev_orientMir_180.png"" style= ""width:200px""alt=""img"">
                            </div>
                        </div>","200","","0","","","","images/map10_PiYG_scaleRev_orientMir_180.png","disgust","1","10","10","PiYG","orientMir","scaleRev","180","",""
"","","","","","html-slider-response","28","124541","0.0-24.0","1pueqoppeb","53","NaN","<div style=""width:500px;"">
                            <p style=""font-size:50px; font-weight:bold;""
                            >disgust</p>
                            <div style=""width:240px; margin: auto;"">
                                <img src=""images/map07_BuPu_scaleRev_orientDef_000.png"" style= ""width:200px""alt=""img"">
                            </div>
                        </div>","28","","0","","","","images/map07_BuPu_scaleRev_orientDef_000.png","disgust","1","07","07","BuPu","orientDef","scaleRev","000","",""
"","","","","","html-slider-response","29","127690","0.0-25.0","1pueqoppeb","53","NaN","<div style=""width:500px;"">
                            <p style=""font-size:50px; font-weight:bold;""
                            >disgust</p>
                            <div style=""width:240px; margin: auto;"">
                                <img src=""images/map26_inferno_scaleRev_orientMir_000.png"" style= ""width:200px""alt=""img"">
                            </div>
                        </div>","79","","0","","","","images/map26_inferno_scaleRev_orientMir_000.png","disgust","1","26","26","inferno","orientMir","scaleRev","000","",""
"","","","","","html-slider-response","30","129406","0.0-26.0","1pueqoppeb","53","NaN","<div style=""width:500px;"">
                            <p style=""font-size:50px; font-weight:bold;""
                            >disgust</p>
                            <div style=""width:240px; margin: auto;"">
                                <img src=""images/map23_gist_earth_scaleRev_orientMir_000.png"" style= ""width:200px""alt=""img"">
                            </div>
                        </div>","200","","0","","","","images/map23_gist_earth_scaleRev_orientMir_000.png","disgust","1","23","23","gist","scaleRev","earth","orientMir","",""
"","","","","","html-slider-response","31","131707","0.0-27.0","1pueqoppeb","53","NaN","<div style=""width:500px;"">
                            <p style=""font-size:50px; font-weight:bold;""
                            >disgust</p>
                            <div style=""width:240px; margin: auto;"">
                                <img src=""images/map13_RdBu_scaleRev_orientDef_000.png"" style= ""width:200px""alt=""img"">
                            </div>
                        </div>","-84","","0","","","","images/map13_RdBu_scaleRev_orientDef_000.png","disgust","1","13","13","RdBu","orientDef","scaleRev","000","",""
"","","","","","html-slider-response","32","133425","0.0-28.0","1pueqoppeb","53","NaN","<div style=""width:500px;"">
                            <p style=""font-size:50px; font-weight:bold;""
                            >disgust</p>
                            <div style=""width:240px; margin: auto;"">
                                <img src=""images/map26_magma_scaleRev_orientMir_180.png"" style= ""width:200px""alt=""img"">
                            </div>
                        </div>","38","","0","","","","images/map26_magma_scaleRev_orientMir_180.png","disgust","1","26","26","magma","orientMir","scaleRev","180","",""
"","","","","","html-slider-response","33","135841","0.0-29.0","1pueqoppeb","53","NaN","<div style=""width:500px;"">
                            <p style=""font-size:50px; font-weight:bold;""
                            >disgust</p>
                            <div style=""width:240px; margin: auto;"">
                                <img src=""images/map05_YlOrRd_scaleRev_orientDef_000.png"" style= ""width:200px""alt=""img"">
                            </div>
                        </div>","121","","0","","","","images/map05_YlOrRd_scaleRev_orientDef_000.png","disgust","1","05","05","YlOrRd","orientDef","scaleRev","000","",""
"","","","","","html-slider-response","34","137559","0.0-30.0","1pueqoppeb","53","NaN","<div style=""width:500px;"">
                            <p style=""font-size:50px; font-weight:bold;""
                            >disgust</p>
                            <div style=""width:240px; margin: auto;"">
                                <img src=""images/map23_viridis_scaleDef_orientMir_270.png"" style= ""width:200px""alt=""img"">
                            </div>
                        </div>","200","","0","","","","images/map23_viridis_scaleDef_orientMir_270.png","disgust","1","23","23","viridis","orientMir","scaleDef","270","",""
"","","","","","html-slider-response","35","139473","0.0-31.0","1pueqoppeb","53","NaN","<div style=""width:500px;"">
                            <p style=""font-size:50px; font-weight:bold;""
                            >disgust</p>
                            <div style=""width:240px; margin: auto;"">
                                <img src=""images/map07_PuBuGn_scaleDef_orientMir_270.png"" style= ""width:200px""alt=""img"">
                            </div>
                        </div>","-45","","0","","","","images/map07_PuBuGn_scaleDef_orientMir_270.png","disgust","1","07","07","PuBuGn","orientMir","scaleDef","270","",""
"","","","","","html-slider-response","36","141675","0.0-32.0","1pueqoppeb","53","NaN","<div style=""width:500px;"">
                            <p style=""font-size:50px; font-weight:bold;""
                            >disgust</p>
                            <div style=""width:240px; margin: auto;"">
                                <img src=""images/map10_PiYG_scaleDef_orientMir_090.png"" style= ""width:200px""alt=""img"">
                            </div>
                        </div>","200","","0","","","","images/map10_PiYG_scaleDef_orientMir_090.png","disgust","1","10","10","PiYG","orientMir","scaleDef","090","",""
"","","","","","html-slider-response","37","143524","0.0-33.0","1pueqoppeb","53","NaN","<div style=""width:500px;"">
                            <p style=""font-size:50px; font-weight:bold;""
                            >disgust</p>
                            <div style=""width:240px; margin: auto;"">
                                <img src=""images/map07_GnBu_scaleRev_orientDef_180.png"" style= ""width:200px""alt=""img"">
                            </div>
                        </div>","-43","","0","","","","images/map07_GnBu_scaleRev_orientDef_180.png","disgust","1","07","07","GnBu","orientDef","scaleRev","180","",""
"","","","","","html-slider-response","38","145507","0.0-34.0","1pueqoppeb","53","NaN","<div style=""width:500px;"">
                            <p style=""font-size:50px; font-weight:bold;""
                            >disgust</p>
                            <div style=""width:240px; margin: auto;"">
                                <img src=""images/map02_YlOrBr_scaleRev_orientMir_180.png"" style= ""width:200px""alt=""img"">
                            </div>
                        </div>","97","","0","","","","images/map02_YlOrBr_scaleRev_orientMir_180.png","disgust","1","02","02","YlOrBr","orientMir","scaleRev","180","",""
"","","","","","html-slider-response","39","148257","0.0-35.0","1pueqoppeb","53","NaN","<div style=""width:500px;"">
                            <p style=""font-size:50px; font-weight:bold;""
                            >disgust</p>
                            <div style=""width:240px; margin: auto;"">
                                <img src=""images/map15_berlin_scaleDef_orientMir_090.png"" style= ""width:200px""alt=""img"">
                            </div>
                        </div>","-131","","0","","","","images/map15_berlin_scaleDef_orientMir_090.png","disgust","1","15","15","berlin","orientMir","scaleDef","090","",""
"","","","","","html-slider-response","40","150524","0.0-36.0","1pueqoppeb","53","NaN","<div style=""width:500px;"">
                            <p style=""font-size:50px; font-weight:bold;""
                            >disgust</p>
                            <div style=""width:240px; margin: auto;"">
                                <img src=""images/map10_PuBuGn_scaleRev_orientDef_000.png"" style= ""width:200px""alt=""img"">
                            </div>
                        </div>","-200","","0","","","","images/map10_PuBuGn_scaleRev_orientDef_000.png","disgust","1","10","10","PuBuGn","orientDef","scaleRev","000","",""
"","","","","","html-slider-response","41","152323","0.0-37.0","1pueqoppeb","53","NaN","<div style=""width:500px;"">
                            <p style=""font-size:50px; font-weight:bold;""
                            >disgust</p>
                            <div style=""width:240px; margin: auto;"">
                                <img src=""images/map26_plasma_scaleRev_orientDef_180.png"" style= ""width:200px""alt=""img"">
                            </div>
                        </div>","87","","0","","","","images/map26_plasma_scaleRev_orientDef_180.png","disgust","1","26","26","plasma","orientDef","scaleRev","180","",""
"","","","","","html-slider-response","42","153942","0.0-38.0","1pueqoppeb","53","NaN","<div style=""width:500px;"">
                            <p style=""font-size:50px; font-weight:bold;""
                            >disgust</p>
                            <div style=""width:240px; margin: auto;"">
                                <img src=""images/map13_Spectral_scaleDef_orientMir_090.png"" style= ""width:200px""alt=""img"">
                            </div>
                        </div>","58","","0","","","","images/map13_Spectral_scaleDef_orientMir_090.png","disgust","1","13","13","Spectral","orientMir","scaleDef","090","",""
"","","","","","html-slider-response","43","156160","0.0-39.0","1pueqoppeb","53","NaN","<div style=""width:500px;"">
                            <p style=""font-size:50px; font-weight:bold;""
                            >disgust</p>
                            <div style=""width:240px; margin: auto;"">
                                <img src=""images/map13_Spectral_scaleRev_orientMir_180.png"" style= ""width:200px""alt=""img"">
                            </div>
                        </div>","62","","0","","","","images/map13_Spectral_scaleRev_orientMir_180.png","disgust","1","13","13","Spectral","orientMir","scaleRev","180","",""
"","","","","","html-slider-response","44","157991","0.0-40.0","1pueqoppeb","53","NaN","<div style=""width:500px;"">
                            <p style=""font-size:50px; font-weight:bold;""
                            >disgust</p>
                            <div style=""width:240px; margin: auto;"">
                                <img src=""images/map02_Greens_scaleRev_orientDef_000.png"" style= ""width:200px""alt=""img"">
                            </div>
                        </div>","200","","0","","","","images/map02_Greens_scaleRev_orientDef_000.png","disgust","1","02","02","Greens","orientDef","scaleRev","000","",""
"","","","","","html-slider-response","45","160207","0.0-41.0","1pueqoppeb","53","NaN","<div style=""width:500px;"">
                            <p style=""font-size:50px; font-weight:bold;""
                            >disgust</p>
                            <div style=""width:240px; margin: auto;"">
                                <img src=""images/map26_cividis_scaleDef_orientMir_270.png"" style= ""width:200px""alt=""img"">
                            </div>
                        </div>","48","","0","","","","images/map26_cividis_scaleDef_orientMir_270.png","disgust","1","26","26","cividis","orientMir","scaleDef","270","",""
"","","","","","html-slider-response","46","161841","0.0-42.0","1pueqoppeb","53","NaN","<div style=""width:500px;"">
                            <p style=""font-size:50px; font-weight:bold;""
                            >disgust</p>
                            <div style=""width:240px; margin: auto;"">
                                <img src=""images/map12_PuOr_scaleDef_orientDef_270.png"" style= ""width:200px""alt=""img"">
                            </div>
                        </div>","26","","0","","","","images/map12_PuOr_scaleDef_orientDef_270.png","disgust","1","12","12","PuOr","orientDef","scaleDef","270","",""
"","","","","","html-slider-response","47","165608","0.0-43.0","1pueqoppeb","53","NaN","<div style=""width:500px;"">
                            <p style=""font-size:50px; font-weight:bold;""
                            >disgust</p>
                            <div style=""width:240px; margin: auto;"">
                                <img src=""images/map05_RdPu_scaleRev_orientMir_180.png"" style= ""width:200px""alt=""img"">
                            </div>
                        </div>","-200","","0","","","","images/map05_RdPu_scaleRev_orientMir_180.png","disgust","1","05","05","RdPu","orientMir","scaleRev","180","",""
"","","","","","html-slider-response","48","167756","0.0-44.0","1pueqoppeb","53","NaN","<div style=""width:500px;"">
                            <p style=""font-size:50px; font-weight:bold;""
                            >disgust</p>
                            <div style=""width:240px; margin: auto;"">
                                <img src=""images/map12_BrBG_scaleDef_orientDef_090.png"" style= ""width:200px""alt=""img"">
                            </div>
                        </div>","-58","","0","","","","images/map12_BrBG_scaleDef_orientDef_090.png","disgust","1","12","12","BrBG","orientDef","scaleDef","090","",""
"","","","","","html-slider-response","49","170275","0.0-45.0","1pueqoppeb","53","NaN","<div style=""width:500px;"">
                            <p style=""font-size:50px; font-weight:bold;""
                            >disgust</p>
                            <div style=""width:240px; margin: auto;"">
                                <img src=""images/map23_vanimo_scaleRev_orientDef_180.png"" style= ""width:200px""alt=""img"">
                            </div>
                        </div>","147","","0","","","","images/map23_vanimo_scaleRev_orientDef_180.png","disgust","1","23","23","vanimo","orientDef","scaleRev","180","",""
"","","","","","html-slider-response","50","172307","0.0-46.0","1pueqoppeb","53","NaN","<div style=""width:500px;"">
                            <p style=""font-size:50px; font-weight:bold;""
                            >disgust</p>
                            <div style=""width:240px; margin: auto;"">
                                <img src=""images/map12_RdGy_scaleDef_orientMir_090.png"" style= ""width:200px""alt=""img"">
                            </div>
                        </div>","-116","","0","","","","images/map12_RdGy_scaleDef_orientMir_090.png","disgust","1","12","12","RdGy","orientMir","scaleDef","090","",""
"","","","","","html-slider-response","51","174556","0.0-47.0","1pueqoppeb","53","NaN","<div style=""width:500px;"">
                            <p style=""font-size:50px; font-weight:bold;""
                            >disgust</p>
                            <div style=""width:240px; margin: auto;"">
                                <img src=""images/map15_seismic_scaleRev_orientMir_000.png"" style= ""width:200px""alt=""img"">
                            </div>
                        </div>","-134","","0","","","","images/map15_seismic_scaleRev_orientMir_000.png","disgust","1","15","15","seismic","orientMir","scaleRev","000","",""
"","","","","","html-slider-response","52","176425","0.0-48.0","1pueqoppeb","53","NaN","<div style=""width:500px;"">
                            <p style=""font-size:50px; font-weight:bold;""
                            >disgust</p>
                            <div style=""width:240px; margin: auto;"">
                                <img src=""images/map27_Blues_scaleRev_orientMir_180.png"" style= ""width:200px""alt=""img"">
                            </div>
                        </div>","-200","","0","","","","images/map27_Blues_scaleRev_orientMir_180.png","disgust","1","27","27","Blues","orientMir","scaleRev","180","",""
"","","","","","html-slider-response","53","177990","0.0-49.0","1pueqoppeb","53","NaN","<div style=""width:500px;"">
                            <p style=""font-size:50px; font-weight:bold;""
                            >disgust</p>
                            <div style=""width:240px; margin: auto;"">
                                <img src=""images/map05_OrRd_scaleDef_orientDef_090.png"" style= ""width:200px""alt=""img"">
                            </div>
                        </div>","40","","0","","","","images/map05_OrRd_scaleDef_orientDef_090.png","disgust","1","05","05","OrRd","orientDef","scaleDef","090","",""
"","","","","","html-slider-response","54","180323","0.0-50.0","1pueqoppeb","53","NaN","<div style=""width:500px;"">
                            <p style=""font-size:50px; font-weight:bold;""
                            >disgust</p>
                            <div style=""width:240px; margin: auto;"">
                                <img src=""images/map10_YlGn_scaleRev_orientMir_000.png"" style= ""width:200px""alt=""img"">
                            </div>
                        </div>","200","","0","","","","images/map10_YlGn_scaleRev_orientMir_000.png","disgust","1","10","10","YlGn","orientMir","scaleRev","000","",""
"","","","","","html-slider-response","55","182291","0.0-51.0","1pueqoppeb","53","NaN","<div style=""width:500px;"">
                            <p style=""font-size:50px; font-weight:bold;""
                            >disgust</p>
                            <div style=""width:240px; margin: auto;"">
                                <img src=""images/map05_RdPu_scaleDef_orientMir_090.png"" style= ""width:200px""alt=""img"">
                            </div>
                        </div>","-115","","0","","","","images/map05_RdPu_scaleDef_orientMir_090.png","disgust","1","05","05","RdPu","orientMir","scaleDef","090","",""
"","","","","","html-slider-response","56","183841","0.0-52.0","1pueqoppeb","53","NaN","<div style=""width:500px;"">
                            <p style=""font-size:50px; font-weight:bold;""
                            >disgust</p>
                            <div style=""width:240px; margin: auto;"">
                                <img src=""images/map07_PuBu_scaleRev_orientMir_000.png"" style= ""width:200px""alt=""img"">
                            </div>
                        </div>","-52","","0","","","","images/map07_PuBu_scaleRev_orientMir_000.png","disgust","1","07","07","PuBu","orientMir","scaleRev","000","",""
"","","","","","html-slider-response","57","185375","0.0-53.0","1pueqoppeb","53","NaN","<div style=""width:500px;"">
                            <p style=""font-size:50px; font-weight:bold;""
                            >disgust</p>
                            <div style=""width:240px; margin: auto;"">
                                <img src=""images/map12_RdGy_scaleRev_orientMir_180.png"" style= ""width:200px""alt=""img"">
                            </div>
                        </div>","-42","","0","","","","images/map12_RdGy_scaleRev_orientMir_180.png","disgust","1","12","12","RdGy","orientMir","scaleRev","180","",""
"","","","","","html-button-response","58","188379","0.0-54.0","1pueqoppeb","53","2501","<p>You are doing great!<br></br> You are halway done with the current block. When you are ready to continue, click the 'Continue' button.</p>","0","","","","","","","","","","","","","","","",""
"","","","","","html-slider-response","59","190173","0.0-55.0","1pueqoppeb","53","NaN","<div style=""width:500px;"">
                            <p style=""font-size:50px; font-weight:bold;""
                            >disgust</p>
                            <div style=""width:240px; margin: auto;"">
                                <img src=""images/map26_magma_scaleDef_orientMir_090.png"" style= ""width:200px""alt=""img"">
                            </div>
                        </div>","80","","0","","","","images/map26_magma_scaleDef_orientMir_090.png","disgust","1","26","26","magma","orientMir","scaleDef","090","",""
"","","","","","html-slider-response","60","191524","0.0-56.0","1pueqoppeb","53","NaN","<div style=""width:500px;"">
                            <p style=""font-size:50px; font-weight:bold;""
                            >disgust</p>
                            <div style=""width:240px; margin: auto;"">
                                <img src=""images/map15_coolwarm_scaleRev_orientDef_000.png"" style= ""width:200px""alt=""img"">
                            </div>
                        </div>","41","","0","","","","images/map15_coolwarm_scaleRev_orientDef_000.png","disgust","1","15","15","coolwarm","orientDef","scaleRev","000","",""
"","","","","","html-slider-response","61","192825","0.0-57.0","1pueqoppeb","53","NaN","<div style=""width:500px;"">
                            <p style=""font-size:50px; font-weight:bold;""
                            >disgust</p>
                            <div style=""width:240px; margin: auto;"">
                                <img src=""images/map13_RdYlGn_scaleRev_orientMir_000.png"" style= ""width:200px""alt=""img"">
                            </div>
                        </div>","200","","0","","","","images/map13_RdYlGn_scaleRev_orientMir_000.png","disgust","1","13","13","RdYlGn","orientMir","scaleRev","000","",""
"","","","","","html-slider-response","62","194507","0.0-58.0","1pueqoppeb","53","NaN","<div style=""width:500px;"">
                            <p style=""font-size:50px; font-weight:bold;""
                            >disgust</p>
                            <div style=""width:240px; margin: auto;"">
                                <img src=""images/map10_YlGn_scaleDef_orientDef_270.png"" style= ""width:200px""alt=""img"">
                            </div>
                        </div>","200","","0","","","","images/map10_YlGn_scaleDef_orientDef_270.png","disgust","1","10","10","YlGn","orientDef","scaleDef","270","",""
"","","","","","html-slider-response","63","195924","0.0-59.0","1pueqoppeb","53","NaN","<div style=""width:500px;"">
                            <p style=""font-size:50px; font-weight:bold;""
                            >disgust</p>
                            <div style=""width:240px; margin: auto;"">
                                <img src=""images/map02_Oranges_scaleDef_orientDef_090.png"" style= ""width:200px""alt=""img"">
                            </div>
                        </div>","200","","0","","","","images/map02_Oranges_scaleDef_orientDef_090.png","disgust","1","02","02","Oranges","orientDef","scaleDef","090","",""
"","","","","","html-slider-response","64","197859","0.0-60.0","1pueqoppeb","53","NaN","<div style=""width:500px;"">
                            <p style=""font-size:50px; font-weight:bold;""
                            >disgust</p>
                            <div style=""width:240px; margin: auto;"">
                                <img src=""images/map05_BuPu_scaleDef_orientMir_270.png"" style= ""width:200px""alt=""img"">
                            </div>
                        </div>","-114","","0","","","","images/map05_BuPu_scaleDef_orientMir_270.png","disgust","1","05","05","BuPu","orientMir","scaleDef","270","",""
"","","","","","html-slider-response","65","199340","0.0-61.0","1pueqoppeb","53","NaN","<div style=""width:500px;"">
                            <p style=""font-size:50px; font-weight:bold;""
                            >disgust</p>
                            <div style=""width:240px; margin: auto;"">
                                <img src=""images/map15_seismic_scaleDef_orientDef_270.png"" style= ""width:200px""alt=""img"">
                            </div>
                        </div>","-22","","0","","","","images/map15_seismic_scaleDef_orientDef_270.png","disgust","1","15","15","seismic","orientDef","scaleDef","270","",""
"","","","","","html-slider-response","66","200940","0.0-62.0","1pueqoppeb","53","NaN","<div style=""width:500px;"">
                            <p style=""font-size:50px; font-weight:bold;""
                            >disgust</p>
                            <div style=""width:240px; margin: auto;"">
                                <img src=""images/map07_YlGnBu_scaleRev_orientMir_180.png"" style= ""width:200px""alt=""img"">
                            </div>
                        </div>","-200","","0","","","","images/map07_YlGnBu_scaleRev_orientMir_180.png","disgust","1","07","07","YlGnBu","orientMir","scaleRev","180","",""
"","","","","","html-slider-response","67","202308","0.0-63.0","1pueqoppeb","53","NaN","<div style=""width:500px;"">
                            <p style=""font-size:50px; font-weight:bold;""
                            >disgust</p>
                            <div style=""width:240px; margin: auto;"">
                                <img src=""images/map02_Reds_scaleRev_orientMir_000.png"" style= ""width:200px""alt=""img"">
                            </div>
                        </div>","38","","0","","","","images/map02_Reds_scaleRev_orientMir_000.png","disgust","1","02","02","Reds","orientMir","scaleRev","000","",""
"","","","","","html-slider-response","68","203758","0.0-64.0","1pueqoppeb","53","NaN","<div style=""width:500px;"">
                            <p style=""font-size:50px; font-weight:bold;""
                            >disgust</p>
                            <div style=""width:240px; margin: auto;"">
                                <img src=""images/map02_YlOrBr_scaleDef_orientMir_090.png"" style= ""width:200px""alt=""img"">
                            </div>
                        </div>","-54","","0","","","","images/map02_YlOrBr_scaleDef_orientMir_090.png","disgust","1","02","02","YlOrBr","orientMir","scaleDef","090","",""
"","","","","","html-slider-response","69","205557","0.0-65.0","1pueqoppeb","53","NaN","<div style=""width:500px;"">
                            <p style=""font-size:50px; font-weight:bold;""
                            >disgust</p>
                            <div style=""width:240px; margin: auto;"">
                                <img src=""images/map27_Greys_scaleRev_orientDef_180.png"" style= ""width:200px""alt=""img"">
                            </div>
                        </div>","-200","","0","","","","images/map27_Greys_scaleRev_orientDef_180.png","disgust","1","27","27","Greys","orientDef","scaleRev","180","",""
"","","","","","html-slider-response","70","207124","0.0-66.0","1pueqoppeb","53","NaN","<div style=""width:500px;"">
                            <p style=""font-size:50px; font-weight:bold;""
                            >disgust</p>
                            <div style=""width:240px; margin: auto;"">
                                <img src=""images/map07_YlGnBu_scaleDef_orientMir_090.png"" style= ""width:200px""alt=""img"">
                            </div>
                        </div>","44","","0","","","","images/map07_YlGnBu_scaleDef_orientMir_090.png","disgust","1","07","07","YlGnBu","orientMir","scaleDef","090","",""
"","","","","","html-slider-response","71","209025","0.0-67.0","1pueqoppeb","53","NaN","<div style=""width:500px;"">
                            <p style=""font-size:50px; font-weight:bold;""
                            >disgust</p>
                            <div style=""width:240px; margin: auto;"">
                                <img src=""images/map23_gist_earth_scaleDef_orientDef_270.png"" style= ""width:200px""alt=""img"">
                            </div>
                        </div>","200","","0","","","","images/map23_gist_earth_scaleDef_orientDef_270.png","disgust","1","23","23","gist","scaleDef","earth","orientDef","",""
"","","","","","html-slider-response","72","210540","0.0-68.0","1pueqoppeb","53","NaN","<div style=""width:500px;"">
                            <p style=""font-size:50px; font-weight:bold;""
                            >disgust</p>
                            <div style=""width:240px; margin: auto;"">
                                <img src=""images/map12_PRGn_scaleRev_orientDef_000.png"" style= ""width:200px""alt=""img"">
                            </div>
                        </div>","200","","0","","","","images/map12_PRGn_scaleRev_orientDef_000.png","disgust","1","12","12","PRGn","orientDef","scaleRev","000","",""
"","","","","","html-slider-response","73","212073","0.0-69.0","1pueqoppeb","53","NaN","<div style=""width:500px;"">
                            <p style=""font-size:50px; font-weight:bold;""
                            >disgust</p>
                            <div style=""width:240px; margin: auto;"">
                                <img src=""images/map05_PuRd_scaleDef_orientDef_270.png"" style= ""width:200px""alt=""img"">
                            </div>
                        </div>","-55","","0","","","","images/map05_PuRd_scaleDef_orientDef_270.png","disgust","1","05","05","PuRd","orientDef","scaleDef","270","",""
"","","","","","html-slider-response","74","214089","0.0-70.0","1pueqoppeb","53","NaN","<div style=""width:500px;"">
                            <p style=""font-size:50px; font-weight:bold;""
                            >disgust</p>
                            <div style=""width:240px; margin: auto;"">
                                <img src=""images/map07_GnBu_scaleDef_orientDef_090.png"" style= ""width:200px""alt=""img"">
                            </div>
                        </div>","-200","","0","","","","images/map07_GnBu_scaleDef_orientDef_090.png","disgust","1","07","07","GnBu","orientDef","scaleDef","090","",""
"","","","","","html-slider-response","75","216374","0.0-71.0","1pueqoppeb","53","NaN","<div style=""width:500px;"">
                            <p style=""font-size:50px; font-weight:bold;""
                            >disgust</p>
                            <div style=""width:240px; margin: auto;"">
                                <img src=""images/map27_Greys_scaleDef_orientDef_090.png"" style= ""width:200px""alt=""img"">
                            </div>
                        </div>","-200","","0","","","","images/map27_Greys_scaleDef_orientDef_090.png","disgust","1","27","27","Greys","orientDef","scaleDef","090","",""
"","","","","","html-slider-response","76","218324","0.0-72.0","1pueqoppeb","53","NaN","<div style=""width:500px;"">
                            <p style=""font-size:50px; font-weight:bold;""
                            >disgust</p>
                            <div style=""width:240px; margin: auto;"">
                                <img src=""images/map27_Purples_scaleDef_orientDef_270.png"" style= ""width:200px""alt=""img"">
                            </div>
                        </div>","-197","","0","","","","images/map27_Purples_scaleDef_orientDef_270.png","disgust","1","27","27","Purples","orientDef","scaleDef","270","",""
"","","","","","html-slider-response","77","221191","0.0-73.0","1pueqoppeb","53","NaN","<div style=""width:500px;"">
                            <p style=""font-size:50px; font-weight:bold;""
                            >disgust</p>
                            <div style=""width:240px; margin: auto;"">
                                <img src=""images/map05_PuRd_scaleRev_orientMir_000.png"" style= ""width:200px""alt=""img"">
                            </div>
                        </div>","42","","0","","","","images/map05_PuRd_scaleRev_orientMir_000.png","disgust","1","05","05","PuRd","orientMir","scaleRev","000","",""
"","","","","","html-slider-response","78","222758","0.0-74.0","1pueqoppeb","53","NaN","<div style=""width:500px;"">
                            <p style=""font-size:50px; font-weight:bold;""
                            >disgust</p>
                            <div style=""width:240px; margin: auto;"">
                                <img src=""images/map05_OrRd_scaleRev_orientDef_180.png"" style= ""width:200px""alt=""img"">
                            </div>
                        </div>","82","","0","","","","images/map05_OrRd_scaleRev_orientDef_180.png","disgust","1","05","05","OrRd","orientDef","scaleRev","180","",""
"","","","","","html-slider-response","79","225940","0.0-75.0","1pueqoppeb","53","NaN","<div style=""width:500px;"">
                            <p style=""font-size:50px; font-weight:bold;""
                            >disgust</p>
                            <div style=""width:240px; margin: auto;"">
                                <img src=""images/map13_coolwarm_scaleDef_orientMir_270.png"" style= ""width:200px""alt=""img"">
                            </div>
                        </div>","-80","","0","","","","images/map13_coolwarm_scaleDef_orientMir_270.png","disgust","1","13","13","coolwarm","orientMir","scaleDef","270","",""
"","","","","","html-slider-response","80","227774","0.0-76.0","1pueqoppeb","53","NaN","<div style=""width:500px;"">
                            <p style=""font-size:50px; font-weight:bold;""
                            >disgust</p>
                            <div style=""width:240px; margin: auto;"">
                                <img src=""images/map23_managua_scaleRev_orientDef_000.png"" style= ""width:200px""alt=""img"">
                            </div>
                        </div>","87","","0","","","","images/map23_managua_scaleRev_orientDef_000.png","disgust","1","23","23","managua","orientDef","scaleRev","000","",""
"","","","","","html-slider-response","81","229275","0.0-77.0","1pueqoppeb","53","NaN","<div style=""width:500px;"">
                            <p style=""font-size:50px; font-weight:bold;""
                            >disgust</p>
                            <div style=""width:240px; margin: auto;"">
                                <img src=""images/map13_RdYlGn_scaleDef_orientDef_270.png"" style= ""width:200px""alt=""img"">
                            </div>
                        </div>","200","","0","","","","images/map13_RdYlGn_scaleDef_orientDef_270.png","disgust","1","13","13","RdYlGn","orientDef","scaleDef","270","",""
"","","","","","html-slider-response","82","230824","0.0-78.0","1pueqoppeb","53","NaN","<div style=""width:500px;"">
                            <p style=""font-size:50px; font-weight:bold;""
                            >disgust</p>
                            <div style=""width:240px; margin: auto;"">
                                <img src=""images/map15_managua_scaleDef_orientMir_270.png"" style= ""width:200px""alt=""img"">
                            </div>
                        </div>","-31","","0","","","","images/map15_managua_scaleDef_orientMir_270.png","disgust","1","15","15","managua","orientMir","scaleDef","270","",""
"","","","","","html-slider-response","83","232075","0.0-79.0","1pueqoppeb","53","NaN","<div style=""width:500px;"">
                            <p style=""font-size:50px; font-weight:bold;""
                            >disgust</p>
                            <div style=""width:240px; margin: auto;"">
                                <img src=""images/map13_RdYlBu_scaleDef_orientDef_090.png"" style= ""width:200px""alt=""img"">
                            </div>
                        </div>","31","","0","","","","images/map13_RdYlBu_scaleDef_orientDef_090.png","disgust","1","13","13","RdYlBu","orientDef","scaleDef","090","",""
"","","","","","html-slider-response","84","233590","0.0-80.0","1pueqoppeb","53","NaN","<div style=""width:500px;"">
                            <p style=""font-size:50px; font-weight:bold;""
                            >disgust</p>
                            <div style=""width:240px; margin: auto;"">
                                <img src=""images/map26_inferno_scaleDef_orientDef_270.png"" style= ""width:200px""alt=""img"">
                            </div>
                        </div>","-50","","0","","","","images/map26_inferno_scaleDef_orientDef_270.png","disgust","1","26","26","inferno","orientDef","scaleDef","270","",""
"","","","","","html-slider-response","85","235157","0.0-81.0","1pueqoppeb","53","NaN","<div style=""width:500px;"">
                            <p style=""font-size:50px; font-weight:bold;""
                            >disgust</p>
                            <div style=""width:240px; margin: auto;"">
                                <img src=""images/map10_BuGn_scaleRev_orientDef_180.png"" style= ""width:200px""alt=""img"">
                            </div>
                        </div>","200","","0","","","","images/map10_BuGn_scaleRev_orientDef_180.png","disgust","1","10","10","BuGn","orientDef","scaleRev","180","",""
"","","","","","html-slider-response","86","236775","0.0-82.0","1pueqoppeb","53","NaN","<div style=""width:500px;"">
                            <p style=""font-size:50px; font-weight:bold;""
                            >disgust</p>
                            <div style=""width:240px; margin: auto;"">
                                <img src=""images/map27_Greens_scaleDef_orientMir_270.png"" style= ""width:200px""alt=""img"">
                            </div>
                        </div>","200","","0","","","","images/map27_Greens_scaleDef_orientMir_270.png","disgust","1","27","27","Greens","orientMir","scaleDef","270","",""
"","","","","","html-slider-response","87","238675","0.0-83.0","1pueqoppeb","53","NaN","<div style=""width:500px;"">
                            <p style=""font-size:50px; font-weight:bold;""
                            >disgust</p>
                            <div style=""width:240px; margin: auto;"">
                                <img src=""images/map02_Oranges_scaleRev_orientDef_180.png"" style= ""width:200px""alt=""img"">
                            </div>
                        </div>","-54","","0","","","","images/map02_Oranges_scaleRev_orientDef_180.png","disgust","1","02","02","Oranges","orientDef","scaleRev","180","",""
"","","","","","html-slider-response","88","240242","0.0-84.0","1pueqoppeb","53","NaN","<div style=""width:500px;"">
                            <p style=""font-size:50px; font-weight:bold;""
                            >disgust</p>
                            <div style=""width:240px; margin: auto;"">
                                <img src=""images/map27_Blues_scaleDef_orientMir_090.png"" style= ""width:200px""alt=""img"">
                            </div>
                        </div>","-52","","0","","","","images/map27_Blues_scaleDef_orientMir_090.png","disgust","1","27","27","Blues","orientMir","scaleDef","090","",""
"","","","","","html-slider-response","89","241626","0.0-85.0","1pueqoppeb","53","NaN","<div style=""width:500px;"">
                            <p style=""font-size:50px; font-weight:bold;""
                            >disgust</p>
                            <div style=""width:240px; margin: auto;"">
                                <img src=""images/map15_bwr_scaleDef_orientDef_090.png"" style= ""width:200px""alt=""img"">
                            </div>
                        </div>","200","","0","","","","images/map15_bwr_scaleDef_orientDef_090.png","disgust","1","15","15","bwr","orientDef","scaleDef","090","",""
"","","","","","html-slider-response","90","243256","0.0-86.0","1pueqoppeb","53","NaN","<div style=""width:500px;"">
                            <p style=""font-size:50px; font-weight:bold;""
                            >disgust</p>
                            <div style=""width:240px; margin: auto;"">
                                <img src=""images/map23_vanimo_scaleDef_orientDef_090.png"" style= ""width:200px""alt=""img"">
                            </div>
                        </div>","200","","0","","","","images/map23_vanimo_scaleDef_orientDef_090.png","disgust","1","23","23","vanimo","orientDef","scaleDef","090","",""
"","","","","","html-slider-response","91","245574","0.0-87.0","1pueqoppeb","53","NaN","<div style=""width:500px;"">
                            <p style=""font-size:50px; font-weight:bold;""
                            >disgust</p>
                            <div style=""width:240px; margin: auto;"">
                                <img src=""images/map15_berlin_scaleRev_orientMir_180.png"" style= ""width:200px""alt=""img"">
                            </div>
                        </div>","158","","0","","","","images/map15_berlin_scaleRev_orientMir_180.png","disgust","1","15","15","berlin","orientMir","scaleRev","180","",""
"","","","","","html-slider-response","92","247141","0.0-88.0","1pueqoppeb","53","NaN","<div style=""width:500px;"">
                            <p style=""font-size:50px; font-weight:bold;""
                            >disgust</p>
                            <div style=""width:240px; margin: auto;"">
                                <img src=""images/map26_viridis_scaleRev_orientDef_000.png"" style= ""width:200px""alt=""img"">
                            </div>
                        </div>","200","","0","","","","images/map26_viridis_scaleRev_orientDef_000.png","disgust","1","26","26","viridis","orientDef","scaleRev","000","",""
"","","","","","html-slider-response","93","248941","0.0-89.0","1pueqoppeb","53","NaN","<div style=""width:500px;"">
                            <p style=""font-size:50px; font-weight:bold;""
                            >disgust</p>
                            <div style=""width:240px; margin: auto;"">
                                <img src=""images/map10_PRGn_scaleDef_orientMir_270.png"" style= ""width:200px""alt=""img"">
                            </div>
                        </div>","200","","0","","","","images/map10_PRGn_scaleDef_orientMir_270.png","disgust","1","10","10","PRGn","orientMir","scaleDef","270","",""
"","","","","","html-slider-response","94","251141","0.0-90.0","1pueqoppeb","53","NaN","<div style=""width:500px;"">
                            <p style=""font-size:50px; font-weight:bold;""
                            >disgust</p>
                            <div style=""width:240px; margin: auto;"">
                                <img src=""images/map23_turbo_scaleRev_orientMir_180.png"" style= ""width:200px""alt=""img"">
                            </div>
                        </div>","-81","","0","","","","images/map23_turbo_scaleRev_orientMir_180.png","disgust","1","23","23","turbo","orientMir","scaleRev","180","",""
"","","","","","html-slider-response","95","252657","0.0-91.0","1pueqoppeb","53","NaN","<div style=""width:500px;"">
                            <p style=""font-size:50px; font-weight:bold;""
                            >disgust</p>
                            <div style=""width:240px; margin: auto;"">
                                <img src=""images/map27_Purples_scaleRev_orientMir_000.png"" style= ""width:200px""alt=""img"">
                            </div>
                        </div>","-192","","0","","","","images/map27_Purples_scaleRev_orientMir_000.png","disgust","1","27","27","Purples","orientMir","scaleRev","000","",""
"","","","","","html-slider-response","96","254427","0.0-92.0","1pueqoppeb","53","NaN","<div style=""width:500px;"">
                            <p style=""font-size:50px; font-weight:bold;""
                            >disgust</p>
                            <div style=""width:240px; margin: auto;"">
                                <img src=""images/map10_BuGn_scaleDef_orientDef_090.png"" style= ""width:200px""alt=""img"">
                            </div>
                        </div>","193","","0","","","","images/map10_BuGn_scaleDef_orientDef_090.png","disgust","1","10","10","BuGn","orientDef","scaleDef","090","",""
"","","","","","html-slider-response","97","256375","0.0-93.0","1pueqoppeb","53","NaN","<div style=""width:500px;"">
                            <p style=""font-size:50px; font-weight:bold;""
                            >disgust</p>
                            <div style=""width:240px; margin: auto;"">
                                <img src=""images/map02_Reds_scaleDef_orientDef_270.png"" style= ""width:200px""alt=""img"">
                            </div>
                        </div>","-94","","0","","","","images/map02_Reds_scaleDef_orientDef_270.png","disgust","1","02","02","Reds","orientDef","scaleDef","270","",""
"","","","","","html-slider-response","98","258224","0.0-94.0","1pueqoppeb","53","NaN","<div style=""width:500px;"">
                            <p style=""font-size:50px; font-weight:bold;""
                            >disgust</p>
                            <div style=""width:240px; margin: auto;"">
                                <img src=""images/map13_RdYlBu_scaleRev_orientDef_180.png"" style= ""width:200px""alt=""img"">
                            </div>
                        </div>","-40","","0","","","","images/map13_RdYlBu_scaleRev_orientDef_180.png","disgust","1","13","13","RdYlBu","orientDef","scaleRev","180","",""
"","","","","","html-button-response","99","260346","0.0-95.0","1pueqoppeb","53","1620","<p>Great Job! You've finished block 1.<br></br> You have 4 block(s) left to go.<br></br></p>","0","","","","","","","","","","","","","","","",""
"","","","","","html-button-response","100","261129","0.0-96.0","1pueqoppeb","53","782","<p>In this block of trials, you will be asked to rate how much you associate each map with:</p > <p style = 'font-size:150%; font-weight: bold'>fearful</p><br></br>","0","","","","","","","","","","","","","","","",""
"","","","","","html-slider-response","101","263191","0.0-97.0","1pueqoppeb","53","NaN","<div style=""width:500px;"">
                            <p style=""font-size:50px; font-weight:bold;""
                            >fearful</p>
                            <div style=""width:240px; margin: auto;"">
                                <img src=""images/map27_cividis_scaleRev_orientDef_000.png"" style= ""width:200px""alt=""img"">
                            </div>
                        </div>","101","","0","","","","images/map27_cividis_scaleRev_orientDef_000.png","fearful","1","27","27","cividis","orientDef","scaleRev","000","",""
"","","","","","html-slider-response","102","267008","0.0-98.0","1pueqoppeb","53","NaN","<div style=""width:500px;"">
                            <p style=""font-size:50px; font-weight:bold;""
                            >fearful</p>
                            <div style=""width:240px; margin: auto;"">
                                <img src=""images/map10_PRGn_scaleDef_orientMir_270.png"" style= ""width:200px""alt=""img"">
                            </div>
                        </div>","-78","","0","","","","images/map10_PRGn_scaleDef_orientMir_270.png","fearful","1","10","10","PRGn","orientMir","scaleDef","270","",""
"","","","","","html-slider-response","103","268644","0.0-99.0","1pueqoppeb","53","NaN","<div style=""width:500px;"">
                            <p style=""font-size:50px; font-weight:bold;""
                            >fearful</p>
                            <div style=""width:240px; margin: auto;"">
                                <img src=""images/map12_BrBG_scaleDef_orientDef_090.png"" style= ""width:200px""alt=""img"">
                            </div>
                        </div>","-66","","0","","","","images/map12_BrBG_scaleDef_orientDef_090.png","fearful","1","12","12","BrBG","orientDef","scaleDef","090","",""
"","","","","","html-slider-response","104","270761","0.0-100.0","1pueqoppeb","53","NaN","<div style=""width:500px;"">
                            <p style=""font-size:50px; font-weight:bold;""
                            >fearful</p>
                            <div style=""width:240px; margin: auto;"">
                                <img src=""images/map23_viridis_scaleDef_orientMir_270.png"" style= ""width:200px""alt=""img"">
                            </div>
                        </div>","200","","0","","","","images/map23_viridis_scaleDef_orientMir_270.png","fearful","1","23","23","viridis","orientMir","scaleDef","270","",""
"","","","","","html-slider-response","105","272389","0.0-101.0","1pueqoppeb","53","NaN","<div style=""width:500px;"">
                            <p style=""font-size:50px; font-weight:bold;""
                            >fearful</p>
                            <div style=""width:240px; margin: auto;"">
                                <img src=""images/map27_Blues_scaleRev_orientMir_180.png"" style= ""width:200px""alt=""img"">
                            </div>
                        </div>","-69","","0","","","","images/map27_Blues_scaleRev_orientMir_180.png","fearful","1","27","27","Blues","orientMir","scaleRev","180","",""
"","","","","","html-slider-response","106","273391","0.0-102.0","1pueqoppeb","53","NaN","<div style=""width:500px;"">
                            <p style=""font-size:50px; font-weight:bold;""
                            >fearful</p>
                            <div style=""width:240px; margin: auto;"">
                                <img src=""images/map13_RdBu_scaleRev_orientDef_000.png"" style= ""width:200px""alt=""img"">
                            </div>
                        </div>","112","","0","","","","images/map13_RdBu_scaleRev_orientDef_000.png","fearful","1","13","13","RdBu","orientDef","scaleRev","000","",""
"","","","","","html-slider-response","107","274392","0.0-103.0","1pueqoppeb","53","NaN","<div style=""width:500px;"">
                            <p style=""font-size:50px; font-weight:bold;""
                            >fearful</p>
                            <div style=""width:240px; margin: auto;"">
                                <img src=""images/map07_PuBu_scaleDef_orientDef_270.png"" style= ""width:200px""alt=""img"">
                            </div>
                        </div>","-98","","0","","","","images/map07_PuBu_scaleDef_orientDef_270.png","fearful","1","07","07","PuBu","orientDef","scaleDef","270","",""
"","","","","","html-slider-response","108","275407","0.0-104.0","1pueqoppeb","53","NaN","<div style=""width:500px;"">
                            <p style=""font-size:50px; font-weight:bold;""
                            >fearful</p>
                            <div style=""width:240px; margin: auto;"">
                                <img src=""images/map15_coolwarm_scaleRev_orientDef_000.png"" style= ""width:200px""alt=""img"">
                            </div>
                        </div>","52","","0","","","","images/map15_coolwarm_scaleRev_orientDef_000.png","fearful","1","15","15","coolwarm","orientDef","scaleRev","000","",""
"","","","","","html-slider-response","109","276459","0.0-105.0","1pueqoppeb","53","NaN","<div style=""width:500px;"">
                            <p style=""font-size:50px; font-weight:bold;""
                            >fearful</p>
                            <div style=""width:240px; margin: auto;"">
                                <img src=""images/map05_PuRd_scaleDef_orientDef_270.png"" style= ""width:200px""alt=""img"">
                            </div>
                        </div>","98","","0","","","","images/map05_PuRd_scaleDef_orientDef_270.png","fearful","1","05","05","PuRd","orientDef","scaleDef","270","",""
"","","","","","html-slider-response","110","277626","0.0-106.0","1pueqoppeb","53","NaN","<div style=""width:500px;"">
                            <p style=""font-size:50px; font-weight:bold;""
                            >fearful</p>
                            <div style=""width:240px; margin: auto;"">
                                <img src=""images/map15_bwr_scaleRev_orientDef_180.png"" style= ""width:200px""alt=""img"">
                            </div>
                        </div>","-62","","0","","","","images/map15_bwr_scaleRev_orientDef_180.png","fearful","1","15","15","bwr","orientDef","scaleRev","180","",""
"","","","","","html-slider-response","111","278775","0.0-107.0","1pueqoppeb","53","NaN","<div style=""width:500px;"">
                            <p style=""font-size:50px; font-weight:bold;""
                            >fearful</p>
                            <div style=""width:240px; margin: auto;"">
                                <img src=""images/map12_PRGn_scaleRev_orientDef_000.png"" style= ""width:200px""alt=""img"">
                            </div>
                        </div>","177","","0","","","","images/map12_PRGn_scaleRev_orientDef_000.png","fearful","1","12","12","PRGn","orientDef","scaleRev","000","",""
"","","","","","html-slider-response","112","280457","0.0-108.0","1pueqoppeb","53","NaN","<div style=""width:500px;"">
                            <p style=""font-size:50px; font-weight:bold;""
                            >fearful</p>
                            <div style=""width:240px; margin: auto;"">
                                <img src=""images/map07_GnBu_scaleDef_orientDef_090.png"" style= ""width:200px""alt=""img"">
                            </div>
                        </div>","-200","","0","","","","images/map07_GnBu_scaleDef_orientDef_090.png","fearful","1","07","07","GnBu","orientDef","scaleDef","090","",""
"","","","","","html-slider-response","113","281943","0.0-109.0","1pueqoppeb","53","NaN","<div style=""width:500px;"">
                            <p style=""font-size:50px; font-weight:bold;""
                            >fearful</p>
                            <div style=""width:240px; margin: auto;"">
                                <img src=""images/map15_managua_scaleDef_orientMir_270.png"" style= ""width:200px""alt=""img"">
                            </div>
                        </div>","-23","","0","","","","images/map15_managua_scaleDef_orientMir_270.png","fearful","1","15","15","managua","orientMir","scaleDef","270","",""
"","","","","","html-slider-response","114","283440","0.0-110.0","1pueqoppeb","53","NaN","<div style=""width:500px;"">
                            <p style=""font-size:50px; font-weight:bold;""
                            >fearful</p>
                            <div style=""width:240px; margin: auto;"">
                                <img src=""images/map13_RdYlGn_scaleDef_orientDef_270.png"" style= ""width:200px""alt=""img"">
                            </div>
                        </div>","83","","0","","","","images/map13_RdYlGn_scaleDef_orientDef_270.png","fearful","1","13","13","RdYlGn","orientDef","scaleDef","270","",""
"","","","","","html-slider-response","115","284391","0.0-111.0","1pueqoppeb","53","NaN","<div style=""width:500px;"">
                            <p style=""font-size:50px; font-weight:bold;""
                            >fearful</p>
                            <div style=""width:240px; margin: auto;"">
                                <img src=""images/map13_Spectral_scaleRev_orientMir_180.png"" style= ""width:200px""alt=""img"">
                            </div>
                        </div>","-82","","0","","","","images/map13_Spectral_scaleRev_orientMir_180.png","fearful","1","13","13","Spectral","orientMir","scaleRev","180","",""
"","","","","","html-slider-response","116","285908","0.0-112.0","1pueqoppeb","53","NaN","<div style=""width:500px;"">
                            <p style=""font-size:50px; font-weight:bold;""
                            >fearful</p>
                            <div style=""width:240px; margin: auto;"">
                                <img src=""images/map15_seismic_scaleDef_orientDef_270.png"" style= ""width:200px""alt=""img"">
                            </div>
                        </div>","81","","0","","","","images/map15_seismic_scaleDef_orientDef_270.png","fearful","1","15","15","seismic","orientDef","scaleDef","270","",""
"","","","","","html-slider-response","117","286840","0.0-113.0","1pueqoppeb","53","NaN","<div style=""width:500px;"">
                            <p style=""font-size:50px; font-weight:bold;""
                            >fearful</p>
                            <div style=""width:240px; margin: auto;"">
                                <img src=""images/map05_BuPu_scaleDef_orientMir_270.png"" style= ""width:200px""alt=""img"">
                            </div>
                        </div>","118","","0","","","","images/map05_BuPu_scaleDef_orientMir_270.png","fearful","1","05","05","BuPu","orientMir","scaleDef","270","",""
"","","","","","html-slider-response","118","288092","0.0-114.0","1pueqoppeb","53","NaN","<div style=""width:500px;"">
                            <p style=""font-size:50px; font-weight:bold;""
                            >fearful</p>
                            <div style=""width:240px; margin: auto;"">
                                <img src=""images/map27_Purples_scaleRev_orientMir_000.png"" style= ""width:200px""alt=""img"">
                            </div>
                        </div>","-76","","0","","","","images/map27_Purples_scaleRev_orientMir_000.png","fearful","1","27","27","Purples","orientMir","scaleRev","000","",""
"","","","","","html-slider-response","119","289175","0.0-115.0","1pueqoppeb","53","NaN","<div style=""width:500px;"">
                            <p style=""font-size:50px; font-weight:bold;""
                            >fearful</p>
                            <div style=""width:240px; margin: auto;"">
                                <img src=""images/map27_Purples_scaleDef_orientDef_270.png"" style= ""width:200px""alt=""img"">
                            </div>
                        </div>","-114","","0","","","","images/map27_Purples_scaleDef_orientDef_270.png","fearful","1","27","27","Purples","orientDef","scaleDef","270","",""
"","","","","","html-slider-response","120","290173","0.0-116.0","1pueqoppeb","53","NaN","<div style=""width:500px;"">
                            <p style=""font-size:50px; font-weight:bold;""
                            >fearful</p>
                            <div style=""width:240px; margin: auto;"">
                                <img src=""images/map26_inferno_scaleRev_orientMir_000.png"" style= ""width:200px""alt=""img"">
                            </div>
                        </div>","-39","","0","","","","images/map26_inferno_scaleRev_orientMir_000.png","fearful","1","26","26","inferno","orientMir","scaleRev","000","",""
"","","","","","html-slider-response","121","292391","0.0-117.0","1pueqoppeb","53","NaN","<div style=""width:500px;"">
                            <p style=""font-size:50px; font-weight:bold;""
                            >fearful</p>
                            <div style=""width:240px; margin: auto;"">
                                <img src=""images/map07_PuBuGn_scaleDef_orientMir_270.png"" style= ""width:200px""alt=""img"">
                            </div>
                        </div>","-198","","0","","","","images/map07_PuBuGn_scaleDef_orientMir_270.png","fearful","1","07","07","PuBuGn","orientMir","scaleDef","270","",""
"","","","","","html-slider-response","122","294689","0.0-118.0","1pueqoppeb","53","NaN","<div style=""width:500px;"">
                            <p style=""font-size:50px; font-weight:bold;""
                            >fearful</p>
                            <div style=""width:240px; margin: auto;"">
                                <img src=""images/map10_PiYG_scaleDef_orientMir_090.png"" style= ""width:200px""alt=""img"">
                            </div>
                        </div>","61","","0","","","","images/map10_PiYG_scaleDef_orientMir_090.png","fearful","1","10","10","PiYG","orientMir","scaleDef","090","",""
"","","","","","html-slider-response","123","296108","0.0-119.0","1pueqoppeb","53","NaN","<div style=""width:500px;"">
                            <p style=""font-size:50px; font-weight:bold;""
                            >fearful</p>
                            <div style=""width:240px; margin: auto;"">
                                <img src=""images/map12_RdGy_scaleRev_orientMir_180.png"" style= ""width:200px""alt=""img"">
                            </div>
                        </div>","-129","","0","","","","images/map12_RdGy_scaleRev_orientMir_180.png","fearful","1","12","12","RdGy","orientMir","scaleRev","180","",""
"","","","","","html-slider-response","124","297258","0.0-120.0","1pueqoppeb","53","NaN","<div style=""width:500px;"">
                            <p style=""font-size:50px; font-weight:bold;""
                            >fearful</p>
                            <div style=""width:240px; margin: auto;"">
                                <img src=""images/map02_Oranges_scaleDef_orientDef_090.png"" style= ""width:200px""alt=""img"">
                            </div>
                        </div>","-63","","0","","","","images/map02_Oranges_scaleDef_orientDef_090.png","fearful","1","02","02","Oranges","orientDef","scaleDef","090","",""
"","","","","","html-slider-response","125","298425","0.0-121.0","1pueqoppeb","53","NaN","<div style=""width:500px;"">
                            <p style=""font-size:50px; font-weight:bold;""
                            >fearful</p>
                            <div style=""width:240px; margin: auto;"">
                                <img src=""images/map10_YlGn_scaleRev_orientMir_000.png"" style= ""width:200px""alt=""img"">
                            </div>
                        </div>","80","","0","","","","images/map10_YlGn_scaleRev_orientMir_000.png","fearful","1","10","10","YlGn","orientMir","scaleRev","000","",""
"","","","","","html-slider-response","126","299374","0.0-122.0","1pueqoppeb","53","NaN","<div style=""width:500px;"">
                            <p style=""font-size:50px; font-weight:bold;""
                            >fearful</p>
                            <div style=""width:240px; margin: auto;"">
                                <img src=""images/map05_RdPu_scaleRev_orientMir_180.png"" style= ""width:200px""alt=""img"">
                            </div>
                        </div>","129","","0","","","","images/map05_RdPu_scaleRev_orientMir_180.png","fearful","1","05","05","RdPu","orientMir","scaleRev","180","",""
"","","","","","html-slider-response","127","300641","0.0-123.0","1pueqoppeb","53","NaN","<div style=""width:500px;"">
                            <p style=""font-size:50px; font-weight:bold;""
                            >fearful</p>
                            <div style=""width:240px; margin: auto;"">
                                <img src=""images/map10_BuGn_scaleDef_orientDef_090.png"" style= ""width:200px""alt=""img"">
                            </div>
                        </div>","156","","0","","","","images/map10_BuGn_scaleDef_orientDef_090.png","fearful","1","10","10","BuGn","orientDef","scaleDef","090","",""
"","","","","","html-slider-response","128","302608","0.0-124.0","1pueqoppeb","53","NaN","<div style=""width:500px;"">
                            <p style=""font-size:50px; font-weight:bold;""
                            >fearful</p>
                            <div style=""width:240px; margin: auto;"">
                                <img src=""images/map02_YlOrRd_scaleDef_orientMir_270.png"" style= ""width:200px""alt=""img"">
                            </div>
                        </div>","199","","0","","","","images/map02_YlOrRd_scaleDef_orientMir_270.png","fearful","1","02","02","YlOrRd","orientMir","scaleDef","270","",""
"","","","","","html-slider-response","129","304958","0.0-125.0","1pueqoppeb","53","NaN","<div style=""width:500px;"">
                            <p style=""font-size:50px; font-weight:bold;""
                            >fearful</p>
                            <div style=""width:240px; margin: auto;"">
                                <img src=""images/map27_Blues_scaleDef_orientMir_090.png"" style= ""width:200px""alt=""img"">
                            </div>
                        </div>","-190","","0","","","","images/map27_Blues_scaleDef_orientMir_090.png","fearful","1","27","27","Blues","orientMir","scaleDef","090","",""
"","","","","","html-slider-response","130","306240","0.0-126.0","1pueqoppeb","53","NaN","<div style=""width:500px;"">
                            <p style=""font-size:50px; font-weight:bold;""
                            >fearful</p>
                            <div style=""width:240px; margin: auto;"">
                                <img src=""images/map02_Reds_scaleRev_orientMir_000.png"" style= ""width:200px""alt=""img"">
                            </div>
                        </div>","-128","","0","","","","images/map02_Reds_scaleRev_orientMir_000.png","fearful","1","02","02","Reds","orientMir","scaleRev","000","",""
"","","","","","html-slider-response","131","307340","0.0-127.0","1pueqoppeb","53","NaN","<div style=""width:500px;"">
                            <p style=""font-size:50px; font-weight:bold;""
                            >fearful</p>
                            <div style=""width:240px; margin: auto;"">
                                <img src=""images/map13_RdYlBu_scaleRev_orientDef_180.png"" style= ""width:200px""alt=""img"">
                            </div>
                        </div>","-68","","0","","","","images/map13_RdYlBu_scaleRev_orientDef_180.png","fearful","1","13","13","RdYlBu","orientDef","scaleRev","180","",""
"","","","","","html-slider-response","132","308391","0.0-128.0","1pueqoppeb","53","NaN","<div style=""width:500px;"">
                            <p style=""font-size:50px; font-weight:bold;""
                            >fearful</p>
                            <div style=""width:240px; margin: auto;"">
                                <img src=""images/map15_berlin_scaleDef_orientMir_090.png"" style= ""width:200px""alt=""img"">
                            </div>
                        </div>","-29","","0","","","","images/map15_berlin_scaleDef_orientMir_090.png","fearful","1","15","15","berlin","orientMir","scaleDef","090","",""
"","","","","","html-slider-response","133","309341","0.0-129.0","1pueqoppeb","53","NaN","<div style=""width:500px;"">
                            <p style=""font-size:50px; font-weight:bold;""
                            >fearful</p>
                            <div style=""width:240px; margin: auto;"">
                                <img src=""images/map12_RdBu_scaleDef_orientMir_270.png"" style= ""width:200px""alt=""img"">
                            </div>
                        </div>","54","","0","","","","images/map12_RdBu_scaleDef_orientMir_270.png","fearful","1","12","12","RdBu","orientMir","scaleDef","270","",""
"","","","","","html-slider-response","134","310592","0.0-130.0","1pueqoppeb","53","NaN","<div style=""width:500px;"">
                            <p style=""font-size:50px; font-weight:bold;""
                            >fearful</p>
                            <div style=""width:240px; margin: auto;"">
                                <img src=""images/map23_vanimo_scaleRev_orientDef_180.png"" style= ""width:200px""alt=""img"">
                            </div>
                        </div>","-35","","0","","","","images/map23_vanimo_scaleRev_orientDef_180.png","fearful","1","23","23","vanimo","orientDef","scaleRev","180","",""
"","","","","","html-slider-response","135","311674","0.0-131.0","1pueqoppeb","53","NaN","<div style=""width:500px;"">
                            <p style=""font-size:50px; font-weight:bold;""
                            >fearful</p>
                            <div style=""width:240px; margin: auto;"">
                                <img src=""images/map27_Greys_scaleRev_orientDef_180.png"" style= ""width:200px""alt=""img"">
                            </div>
                        </div>","120","","0","","","","images/map27_Greys_scaleRev_orientDef_180.png","fearful","1","27","27","Greys","orientDef","scaleRev","180","",""
"","","","","","html-slider-response","136","312791","0.0-132.0","1pueqoppeb","53","NaN","<div style=""width:500px;"">
                            <p style=""font-size:50px; font-weight:bold;""
                            >fearful</p>
                            <div style=""width:240px; margin: auto;"">
                                <img src=""images/map26_cividis_scaleDef_orientMir_270.png"" style= ""width:200px""alt=""img"">
                            </div>
                        </div>","144","","0","","","","images/map26_cividis_scaleDef_orientMir_270.png","fearful","1","26","26","cividis","orientMir","scaleDef","270","",""
"","","","","","html-slider-response","137","314291","0.0-133.0","1pueqoppeb","53","NaN","<div style=""width:500px;"">
                            <p style=""font-size:50px; font-weight:bold;""
                            >fearful</p>
                            <div style=""width:240px; margin: auto;"">
                                <img src=""images/map07_GnBu_scaleRev_orientDef_180.png"" style= ""width:200px""alt=""img"">
                            </div>
                        </div>","182","","0","","","","images/map07_GnBu_scaleRev_orientDef_180.png","fearful","1","07","07","GnBu","orientDef","scaleRev","180","",""
"","","","","","html-slider-response","138","315341","0.0-134.0","1pueqoppeb","53","NaN","<div style=""width:500px;"">
                            <p style=""font-size:50px; font-weight:bold;""
                            >fearful</p>
                            <div style=""width:240px; margin: auto;"">
                                <img src=""images/map26_plasma_scaleRev_orientDef_180.png"" style= ""width:200px""alt=""img"">
                            </div>
                        </div>","-86","","0","","","","images/map26_plasma_scaleRev_orientDef_180.png","fearful","1","26","26","plasma","orientDef","scaleRev","180","",""
"","","","","","html-slider-response","139","316474","0.0-135.0","1pueqoppeb","53","NaN","<div style=""width:500px;"">
                            <p style=""font-size:50px; font-weight:bold;""
                            >fearful</p>
                            <div style=""width:240px; margin: auto;"">
                                <img src=""images/map10_YlGn_scaleDef_orientDef_270.png"" style= ""width:200px""alt=""img"">
                            </div>
                        </div>","-147","","0","","","","images/map10_YlGn_scaleDef_orientDef_270.png","fearful","1","10","10","YlGn","orientDef","scaleDef","270","",""
"","","","","","html-slider-response","140","317557","0.0-136.0","1pueqoppeb","53","NaN","<div style=""width:500px;"">
                            <p style=""font-size:50px; font-weight:bold;""
                            >fearful</p>
                            <div style=""width:240px; margin: auto;"">
                                <img src=""images/map07_BuPu_scaleRev_orientDef_000.png"" style= ""width:200px""alt=""img"">
                            </div>
                        </div>","-174","","0","","","","images/map07_BuPu_scaleRev_orientDef_000.png","fearful","1","07","07","BuPu","orientDef","scaleRev","000","",""
"","","","","","html-button-response","141","320430","0.0-137.0","1pueqoppeb","53","2370","<p>You are doing great!<br></br> You are halway done with the current block. When you are ready to continue, click the 'Continue' button.</p>","0","","","","","","","","","","","","","","","",""
"","","","","","html-slider-response","142","321392","0.0-138.0","1pueqoppeb","53","NaN","<div style=""width:500px;"">
                            <p style=""font-size:50px; font-weight:bold;""
                            >fearful</p>
                            <div style=""width:240px; margin: auto;"">
                                <img src=""images/map07_YlGnBu_scaleRev_orientMir_180.png"" style= ""width:200px""alt=""img"">
                            </div>
                        </div>","47","","0","","","","images/map07_YlGnBu_scaleRev_orientMir_180.png","fearful","1","07","07","YlGnBu","orientMir","scaleRev","180","",""
"","","","","","html-slider-response","143","322108","0.0-139.0","1pueqoppeb","53","NaN","<div style=""width:500px;"">
                            <p style=""font-size:50px; font-weight:bold;""
                            >fearful</p>
                            <div style=""width:240px; margin: auto;"">
                                <img src=""images/map12_PuOr_scaleDef_orientDef_270.png"" style= ""width:200px""alt=""img"">
                            </div>
                        </div>","92","","0","","","","images/map12_PuOr_scaleDef_orientDef_270.png","fearful","1","12","12","PuOr","orientDef","scaleDef","270","",""
"","","","","","html-slider-response","144","323024","0.0-140.0","1pueqoppeb","53","NaN","<div style=""width:500px;"">
                            <p style=""font-size:50px; font-weight:bold;""
                            >fearful</p>
                            <div style=""width:240px; margin: auto;"">
                                <img src=""images/map05_YlOrRd_scaleRev_orientDef_000.png"" style= ""width:200px""alt=""img"">
                            </div>
                        </div>","-39","","0","","","","images/map05_YlOrRd_scaleRev_orientDef_000.png","fearful","1","05","05","YlOrRd","orientDef","scaleRev","000","",""
"","","","","","html-slider-response","145","323791","0.0-141.0","1pueqoppeb","53","NaN","<div style=""width:500px;"">
                            <p style=""font-size:50px; font-weight:bold;""
                            >fearful</p>
                            <div style=""width:240px; margin: auto;"">
                                <img src=""images/map15_berlin_scaleRev_orientMir_180.png"" style= ""width:200px""alt=""img"">
                            </div>
                        </div>","47","","0","","","","images/map15_berlin_scaleRev_orientMir_180.png","fearful","1","15","15","berlin","orientMir","scaleRev","180","",""
"","","","","","html-slider-response","146","324507","0.0-142.0","1pueqoppeb","53","NaN","<div style=""width:500px;"">
                            <p style=""font-size:50px; font-weight:bold;""
                            >fearful</p>
                            <div style=""width:240px; margin: auto;"">
                                <img src=""images/map13_Spectral_scaleDef_orientMir_090.png"" style= ""width:200px""alt=""img"">
                            </div>
                        </div>","-90","","0","","","","images/map13_Spectral_scaleDef_orientMir_090.png","fearful","1","13","13","Spectral","orientMir","scaleDef","090","",""
"","","","","","html-slider-response","147","325273","0.0-143.0","1pueqoppeb","53","NaN","<div style=""width:500px;"">
                            <p style=""font-size:50px; font-weight:bold;""
                            >fearful</p>
                            <div style=""width:240px; margin: auto;"">
                                <img src=""images/map23_managua_scaleRev_orientDef_000.png"" style= ""width:200px""alt=""img"">
                            </div>
                        </div>","-148","","0","","","","images/map23_managua_scaleRev_orientDef_000.png","fearful","1","23","23","managua","orientDef","scaleRev","000","",""
"","","","","","html-slider-response","148","326092","0.0-144.0","1pueqoppeb","53","NaN","<div style=""width:500px;"">
                            <p style=""font-size:50px; font-weight:bold;""
                            >fearful</p>
                            <div style=""width:240px; margin: auto;"">
                                <img src=""images/map23_turbo_scaleRev_orientMir_180.png"" style= ""width:200px""alt=""img"">
                            </div>
                        </div>","-33","","0","","","","images/map23_turbo_scaleRev_orientMir_180.png","fearful","1","23","23","turbo","orientMir","scaleRev","180","",""
"","","","","","html-slider-response","149","326908","0.0-145.0","1pueqoppeb","53","NaN","<div style=""width:500px;"">
                            <p style=""font-size:50px; font-weight:bold;""
                            >fearful</p>
                            <div style=""width:240px; margin: auto;"">
                                <img src=""images/map07_PuBu_scaleRev_orientMir_000.png"" style= ""width:200px""alt=""img"">
                            </div>
                        </div>","74","","0","","","","images/map07_PuBu_scaleRev_orientMir_000.png","fearful","1","07","07","PuBu","orientMir","scaleRev","000","",""
"","","","","","html-slider-response","150","327741","0.0-146.0","1pueqoppeb","53","NaN","<div style=""width:500px;"">
                            <p style=""font-size:50px; font-weight:bold;""
                            >fearful</p>
                            <div style=""width:240px; margin: auto;"">
                                <img src=""images/map26_inferno_scaleDef_orientDef_270.png"" style= ""width:200px""alt=""img"">
                            </div>
                        </div>","0","","0","","","","images/map26_inferno_scaleDef_orientDef_270.png","fearful","1","26","26","inferno","orientDef","scaleDef","270","",""
"","","","","","html-slider-response","151","328590","0.0-147.0","1pueqoppeb","53","NaN","<div style=""width:500px;"">
                            <p style=""font-size:50px; font-weight:bold;""
                            >fearful</p>
                            <div style=""width:240px; margin: auto;"">
                                <img src=""images/map05_OrRd_scaleDef_orientDef_090.png"" style= ""width:200px""alt=""img"">
                            </div>
                        </div>","145","","0","","","","images/map05_OrRd_scaleDef_orientDef_090.png","fearful","1","05","05","OrRd","orientDef","scaleDef","090","",""
"","","","","","html-slider-response","152","329825","0.0-148.0","1pueqoppeb","53","NaN","<div style=""width:500px;"">
                            <p style=""font-size:50px; font-weight:bold;""
                            >fearful</p>
                            <div style=""width:240px; margin: auto;"">
                                <img src=""images/map02_Oranges_scaleRev_orientDef_180.png"" style= ""width:200px""alt=""img"">
                            </div>
                        </div>","197","","0","","","","images/map02_Oranges_scaleRev_orientDef_180.png","fearful","1","02","02","Oranges","orientDef","scaleRev","180","",""
"","","","","","html-slider-response","153","331008","0.0-149.0","1pueqoppeb","53","NaN","<div style=""width:500px;"">
                            <p style=""font-size:50px; font-weight:bold;""
                            >fearful</p>
                            <div style=""width:240px; margin: auto;"">
                                <img src=""images/map23_gist_earth_scaleDef_orientDef_270.png"" style= ""width:200px""alt=""img"">
                            </div>
                        </div>","64","","0","","","","images/map23_gist_earth_scaleDef_orientDef_270.png","fearful","1","23","23","gist","scaleDef","earth","orientDef","",""
"","","","","","html-slider-response","154","332357","0.0-150.0","1pueqoppeb","53","NaN","<div style=""width:500px;"">
                            <p style=""font-size:50px; font-weight:bold;""
                            >fearful</p>
                            <div style=""width:240px; margin: auto;"">
                                <img src=""images/map05_OrRd_scaleRev_orientDef_180.png"" style= ""width:200px""alt=""img"">
                            </div>
                        </div>","-188","","0","","","","images/map05_OrRd_scaleRev_orientDef_180.png","fearful","1","05","05","OrRd","orientDef","scaleRev","180","",""
"","","","","","html-slider-response","155","333258","0.0-151.0","1pueqoppeb","53","NaN","<div style=""width:500px;"">
                            <p style=""font-size:50px; font-weight:bold;""
                            >fearful</p>
                            <div style=""width:240px; margin: auto;"">
                                <img src=""images/map23_vanimo_scaleDef_orientDef_090.png"" style= ""width:200px""alt=""img"">
                            </div>
                        </div>","-118","","0","","","","images/map23_vanimo_scaleDef_orientDef_090.png","fearful","1","23","23","vanimo","orientDef","scaleDef","090","",""
"","","","","","html-slider-response","156","334158","0.0-152.0","1pueqoppeb","53","NaN","<div style=""width:500px;"">
                            <p style=""font-size:50px; font-weight:bold;""
                            >fearful</p>
                            <div style=""width:240px; margin: auto;"">
                                <img src=""images/map10_PuBuGn_scaleRev_orientDef_000.png"" style= ""width:200px""alt=""img"">
                            </div>
                        </div>","-68","","0","","","","images/map10_PuBuGn_scaleRev_orientDef_000.png","fearful","1","10","10","PuBuGn","orientDef","scaleRev","000","",""
"","","","","","html-slider-response","157","335057","0.0-153.0","1pueqoppeb","53","NaN","<div style=""width:500px;"">
                            <p style=""font-size:50px; font-weight:bold;""
                            >fearful</p>
