"success","timeout","failed_images","failed_audio","failed_video","trial_type","trial_index","time_elapsed","internal_node_id","subject_id","condition_num","rt","stimulus","response","question_order","slider_start","practiceTrial","practiceTrialNum","correct","image_path","concept","repetition","map_id","map_num","scale_name","orientation_code","mapping_code","rotation_code","ishihara_plate","correct_response"
"true","false","[]","[]","[]","preload","0","13716","0.0-0.0","4bangbs55f","61","","","","","","","","","","","","","","","","","","",""
"","","","","","html-button-response","1","20274","0.0-1.0","4bangbs55f","61","6555","Welcome to our experiment!<p>At the bottom of this screen, you will see a button that says ""Begin Experiment"".<br>Please only click that button when you are ready to complete the 30 minute experiment in one sitting.</p><p> Once you click that button, it will not be possible to restart the experiment.","0","","","","","","","","","","","","","","","",""
"true","","","","","fullscreen","2","23176","0.0-2.0","4bangbs55f","61","1897","","","","","","","","","","","","","","","","","",""
"","","","","","survey-multi-select","3","78093","0.0-3.0","4bangbs55f","61","54912","","{""Consent"":[""<strong>I consent</strong>""]}","[0]","","","","","","","","","","","","","","",""
"","","","","","html-button-response","4","80619","0.0-4.0","4bangbs55f","61","2524","Welcome! <p> This experiment involves two parts: demographic information, followed by the experimental task.<p> It will take about 30 minutes to complete both parts.","0","","","","","","","","","","","","","","","",""
"","","","","","survey-text","5","98293","0.0-5.0","4bangbs55f","61","17656","","{""Age"":""19"",""Gender"":""female"",""Race/ethnicity"":""asian"",""Languages"":""english, hindi""}","","","","","","","","","","","","","","","",""
"","","","","","html-slider-response","6","156890","0.0-6.0","4bangbs55f","61","58594","<div style='text-align:left; font-size:20px; line-height:25px; width: 1000px;'>
                                During this experiment you will be asked to rate how much you associate maps with                    different concepts.<br> Below, you can see some examples of the maps you will be asked to rate. Above the maps
                    is the list of concepts.<br>You will be asked                    to rate how much you associate each map with each concept on a scale from 'not at all' to 'very much' like the
                    one below. <br><br>
                    Now, please look at the list of concepts and maps. For each concept, think about the map you associate 'very
                    much' with the concept.<br>                     When you see that map during the experiment, please rate it near the 'very much' endpoint of the
                    scale.<br>Now, please think about which map you associate 'not at all'                     with each concept. When you see that map during the experiment, please rate it near the 'not at all' endpoint
                    of the scale.<br>
                    Please use the full range of the scale. That is, if a map is somewhat associated with the concept, you would
                    click partway between the middle point and right side of the scale.                    You will be asked to rate each map for a given concept before moving on to the next concept.<br>Press the
                    'Continue' button for instructions on how to use the slider.                    <br>
                </div>

                <div style=""width: 500px; margin: 0 auto;"">
                    <!-- Centered text paragraphs -->
                    <div style=""text-align: center; width: 500px;"">
                        <p style=""font-size:25px; line-height:15px;"">
                            fearful&nbsp;&nbsp;&nbsp;&nbsp;
                            angry&nbsp;&nbsp;&nbsp;&nbsp;
                            sad&nbsp;&nbsp;&nbsp;&nbsp;
                            happy&nbsp;&nbsp;&nbsp;&nbsp;
                            disgust
                        </p>
                        <!-- <p style=""font-size:20px; line-height:15px;"">angry</p>
                        <p style=""font-size:20px;line-height:15px;"">sad</p>
                        <p style=""font-size:20px;line-height:15px;"">happy</p>
                        <p style=""font-size:20px;line-height:15px;"">disgust</p> -->
                    </div>
            

                    <!-- Grid section -->
                   <div style=""display: flex; justify-content: center; padding-top: 15px;"">
                    <div style=""display: grid; grid-template-columns: repeat(10, 55px); grid-gap: 5px; width: auto;"">
                        <img src=""images/map10_OrRd_scaleDef_orientMir_180.png"" alt=""map"" style=""width: 100%;""><img src=""images/map10_Reds_scaleRev_orientDef_090.png"" alt=""map"" style=""width: 100%;""><img src=""images/map26_bwr_scaleDef_orientMir_180.png"" alt=""map"" style=""width: 100%;""><img src=""images/map23_PuOr_scaleDef_orientDef_000.png"" alt=""map"" style=""width: 100%;""><img src=""images/map26_RdYlGn_scaleRev_orientDef_090.png"" alt=""map"" style=""width: 100%;""><img src=""images/map02_viridis_scaleDef_orientMir_000.png"" alt=""map"" style=""width: 100%;""><img src=""images/map12_GnBu_scaleDef_orientMir_180.png"" alt=""map"" style=""width: 100%;""><img src=""images/map15_YlGn_scaleDef_orientDef_000.png"" alt=""map"" style=""width: 100%;""><img src=""images/map12_BuPu_scaleRev_orientMir_090.png"" alt=""map"" style=""width: 100%;""><img src=""images/map27_managua_scaleRev_orientMir_090.png"" alt=""map"" style=""width: 100%;""><img src=""images/map02_plasma_scaleRev_orientMir_270.png"" alt=""map"" style=""width: 100%;""><img src=""images/map13_PuBuGn_scaleDef_orientMir_000.png"" alt=""map"" style=""width: 100%;""><img src=""images/map26_Spectral_scaleDef_orientDef_180.png"" alt=""map"" style=""width: 100%;""><img src=""images/map23_RdBu_scaleRev_orientMir_090.png"" alt=""map"" style=""width: 100%;""><img src=""images/map07_Oranges_scaleDef_orientMir_180.png"" alt=""map"" style=""width: 100%;""><img src=""images/map05_inferno_scaleDef_orientDef_000.png"" alt=""map"" style=""width: 100%;""><img src=""images/map02_turbo_scaleDef_orientDef_180.png"" alt=""map"" style=""width: 100%;""><img src=""images/map27_vanimo_scaleRev_orientMir_270.png"" alt=""map"" style=""width: 100%;""><img src=""images/map15_BrBG_scaleRev_orientMir_270.png"" alt=""map"" style=""width: 100%;""><img src=""images/map15_PRGn_scaleDef_orientMir_000.png"" alt=""map"" style=""width: 100%;""><img src=""images/map27_berlin_scaleRev_orientDef_270.png"" alt=""map"" style=""width: 100%;""><img src=""images/map12_PuRd_scaleDef_orientDef_000.png"" alt=""map"" style=""width: 100%;""><img src=""images/map07_Purples_scaleRev_orientDef_090.png"" alt=""map"" style=""width: 100%;""><img src=""images/map07_Greens_scaleRev_orientMir_090.png"" alt=""map"" style=""width: 100%;""><img src=""images/map05_magma_scaleRev_orientDef_270.png"" alt=""map"" style=""width: 100%;""><img src=""images/map15_PiYG_scaleRev_orientDef_270.png"" alt=""map"" style=""width: 100%;""><img src=""images/map13_BuGn_scaleRev_orientMir_270.png"" alt=""map"" style=""width: 100%;""><img src=""images/map27_seismic_scaleDef_orientDef_000.png"" alt=""map"" style=""width: 100%;""><img src=""images/map05_Greys_scaleDef_orientMir_180.png"" alt=""map"" style=""width: 100%;""><img src=""images/map26_coolwarm_scaleDef_orientMir_000.png"" alt=""map"" style=""width: 100%;""><img src=""images/map02_gist_earth_scaleRev_orientDef_090.png"" alt=""map"" style=""width: 100%;""><img src=""images/map10_YlOrBr_scaleRev_orientDef_270.png"" alt=""map"" style=""width: 100%;""><img src=""images/map07_Blues_scaleDef_orientDef_180.png"" alt=""map"" style=""width: 100%;""><img src=""images/map23_RdYlBu_scaleDef_orientMir_180.png"" alt=""map"" style=""width: 100%;""><img src=""images/map10_YlOrRd_scaleRev_orientMir_090.png"" alt=""map"" style=""width: 100%;""><img src=""images/map13_PuBu_scaleRev_orientDef_090.png"" alt=""map"" style=""width: 100%;""><img src=""images/map13_YlGnBu_scaleRev_orientDef_270.png"" alt=""map"" style=""width: 100%;""><img src=""images/map05_cividis_scaleDef_orientMir_000.png"" alt=""map"" style=""width: 100%;""><img src=""images/map12_RdPu_scaleRev_orientDef_270.png"" alt=""map"" style=""width: 100%;""><img src=""images/map23_RdGy_scaleDef_orientDef_180.png"" alt=""map"" style=""width: 100%;"">
                    </div>
                </div>

                    <!-- Clear floats -->
                    <div style=""clear: both;""></div>
                </div>
                            ","2","","0","true","","","","","","","","","","","","",""
"","","","","","html-button-response","7","158956","0.0-7.0","4bangbs55f","61","2065","<div style=""width:800px;""><p style=""text-align:left"">To move the slider, click and drag your cursor to the location of the scale where you would like to make your rating and then let go. When you let go of the slider, your response will be recorded and the next trial will begin. <br>
                    We are interested in your initial impressions of each map for the given concept, so please go with your first intuition. <br>
                    Before you begin the experiment, there will be four training trials for you to practice using the scale. <br>
                     When you are ready to start the training trials, please click ""Continue"".</p><br></div>","0","","","","","","","","","","","","","","","",""
"","","","","","html-slider-response","8","166283","0.0-8.0-0.0","4bangbs55f","61","NaN","<div style=""width:500px;"">
                                    <p style=""font-size:25px;"">Please move the slider all the way to the <br> right endpoint of the scale</p>

                                    </div>
                                </div>","188","","0","true","0","true","","","","","","","","","","",""
"","","","","","html-button-response","9","168254","0.0-8.0-1.0","4bangbs55f","61","1469","<p align='center'><b>Good job!</b> Click on 'Continue' to proceed.</p>","0","","","","","","","","","","","","","","","",""
"","","","","","html-slider-response","10","170065","0.0-9.0-0.0","4bangbs55f","61","NaN","<div style=""width:500px;"">
                                    <p style=""font-size:25px;"">Please move the slider all the way to the <br> left endpoint of the scale</p>

                                    </div>
                                </div>","-189","","0","true","1","true","","","","","","","","","","",""
"","","","","","html-button-response","11","171371","0.0-9.0-1.0","4bangbs55f","61","803","<p align='center'><b>Good job!</b> Click on 'Continue' to proceed.</p>","0","","","","","","","","","","","","","","","",""
"","","","","","html-slider-response","12","176632","0.0-10.0-0.0","4bangbs55f","61","NaN","<div style=""width:500px;"">
                                    <p style=""font-size:25px;"">Please move the slider halfway between the center and right endpoint of the scale</p>

                                    </div>
                                </div>","2","","0","true","2","false","","","","","","","","","","",""
"","","","","","html-button-response","13","180321","0.0-10.0-1.0","4bangbs55f","61","3186","<p align='center'><b>Not quite!</b> The slider was not placed near the instructed located. Click on 'Continue' to try again. </p>","0","","","","","","","","","","","","","","","",""
"","","","","","html-slider-response","14","184532","0.0-10.1-0.1","4bangbs55f","61","NaN","<div style=""width:500px;"">
                                    <p style=""font-size:25px;"">Please move the slider halfway between the center and right endpoint of the scale</p>

                                    </div>
                                </div>","109","","0","true","2","true","","","","","","","","","","",""
"","","","","","html-button-response","15","185838","0.0-10.1-1.1","4bangbs55f","61","804","<p align='center'><b>Good job!</b> Click on 'Continue' to proceed.</p>","0","","","","","","","","","","","","","","","",""
"","","","","","html-slider-response","16","186966","0.0-11.0-0.0","4bangbs55f","61","NaN","<div style=""width:500px;"">
                                    <p style=""font-size:25px;"">Please move the slider halfway between the center and left endpoint of the scale</p>

                                    </div>
                                </div>","-92","","0","true","3","true","","","","","","","","","","",""
"","","","","","html-button-response","17","188038","0.0-11.0-1.0","4bangbs55f","61","570","<p align='center'><b>Good job!</b> Click on 'Continue' to proceed.</p>","0","","","","","","","","","","","","","","","",""
"","","","","","html-button-response","18","189671","0.0-12.0","4bangbs55f","61","1633","<p>Great job! You've completed the practice trials. Now you will begin the main task.</p>","0","","","","","","","","","","","","","","","",""
"","","","","","html-button-response","19","193388","0.0-13.0","4bangbs55f","61","3715","<p>In this block of trials, you will be asked to rate how much you associate each map with:</p > <p style = 'font-size:150%; font-weight: bold'>fearful</p><br></br>","0","","","","","","","","","","","","","","","",""
"","","","","","html-slider-response","20","197899","0.0-14.0","4bangbs55f","61","NaN","<div style=""width:500px;"">
                            <p style=""font-size:50px; font-weight:bold;""
                            >fearful</p>
                            <div style=""width:240px; margin: auto;"">
                                <img src=""images/map07_Oranges_scaleRev_orientMir_270.png"" style= ""width:200px""alt=""img"">
                            </div>
                        </div>","58","","0","","","","images/map07_Oranges_scaleRev_orientMir_270.png","fearful","1","07","07","Oranges","orientMir","scaleRev","270","",""
"","","","","","html-slider-response","21","200683","0.0-15.0","4bangbs55f","61","NaN","<div style=""width:500px;"">
                            <p style=""font-size:50px; font-weight:bold;""
                            >fearful</p>
                            <div style=""width:240px; margin: auto;"">
                                <img src=""images/map12_RdPu_scaleDef_orientDef_180.png"" style= ""width:200px""alt=""img"">
                            </div>
                        </div>","72","","0","","","","images/map12_RdPu_scaleDef_orientDef_180.png","fearful","1","12","12","RdPu","orientDef","scaleDef","180","",""
"","","","","","html-slider-response","22","204733","0.0-16.0","4bangbs55f","61","NaN","<div style=""width:500px;"">
                            <p style=""font-size:50px; font-weight:bold;""
                            >fearful</p>
                            <div style=""width:240px; margin: auto;"">
                                <img src=""images/map07_Blues_scaleDef_orientDef_180.png"" style= ""width:200px""alt=""img"">
                            </div>
                        </div>","-16","","0","","","","images/map07_Blues_scaleDef_orientDef_180.png","fearful","1","07","07","Blues","orientDef","scaleDef","180","",""
"","","","","","html-slider-response","23","206667","0.0-17.0","4bangbs55f","61","NaN","<div style=""width:500px;"">
                            <p style=""font-size:50px; font-weight:bold;""
                            >fearful</p>
                            <div style=""width:240px; margin: auto;"">
                                <img src=""images/map26_bwr_scaleDef_orientMir_180.png"" style= ""width:200px""alt=""img"">
                            </div>
                        </div>","32","","0","","","","images/map26_bwr_scaleDef_orientMir_180.png","fearful","1","26","26","bwr","orientMir","scaleDef","180","",""
"","","","","","html-slider-response","24","209382","0.0-18.0","4bangbs55f","61","NaN","<div style=""width:500px;"">
                            <p style=""font-size:50px; font-weight:bold;""
                            >fearful</p>
                            <div style=""width:240px; margin: auto;"">
                                <img src=""images/map13_PuBuGn_scaleRev_orientMir_090.png"" style= ""width:200px""alt=""img"">
                            </div>
                        </div>","66","","0","","","","images/map13_PuBuGn_scaleRev_orientMir_090.png","fearful","1","13","13","PuBuGn","orientMir","scaleRev","090","",""
"","","","","","html-slider-response","25","211216","0.0-19.0","4bangbs55f","61","NaN","<div style=""width:500px;"">
                            <p style=""font-size:50px; font-weight:bold;""
                            >fearful</p>
                            <div style=""width:240px; margin: auto;"">
                                <img src=""images/map13_BuGn_scaleDef_orientMir_180.png"" style= ""width:200px""alt=""img"">
                            </div>
                        </div>","-26","","0","","","","images/map13_BuGn_scaleDef_orientMir_180.png","fearful","1","13","13","BuGn","orientMir","scaleDef","180","",""
"","","","","","html-slider-response","26","212933","0.0-20.0","4bangbs55f","61","NaN","<div style=""width:500px;"">
                            <p style=""font-size:50px; font-weight:bold;""
                            >fearful</p>
                            <div style=""width:240px; margin: auto;"">
                                <img src=""images/map27_berlin_scaleDef_orientDef_180.png"" style= ""width:200px""alt=""img"">
                            </div>
                        </div>","54","","0","","","","images/map27_berlin_scaleDef_orientDef_180.png","fearful","1","27","27","berlin","orientDef","scaleDef","180","",""
"","","","","","html-slider-response","27","214615","0.0-21.0","4bangbs55f","61","NaN","<div style=""width:500px;"">
                            <p style=""font-size:50px; font-weight:bold;""
                            >fearful</p>
                            <div style=""width:240px; margin: auto;"">
                                <img src=""images/map10_Reds_scaleRev_orientDef_090.png"" style= ""width:200px""alt=""img"">
                            </div>
                        </div>","58","","0","","","","images/map10_Reds_scaleRev_orientDef_090.png","fearful","1","10","10","Reds","orientDef","scaleRev","090","",""
"","","","","","html-slider-response","28","216382","0.0-22.0","4bangbs55f","61","NaN","<div style=""width:500px;"">
                            <p style=""font-size:50px; font-weight:bold;""
                            >fearful</p>
                            <div style=""width:240px; margin: auto;"">
                                <img src=""images/map13_YlGnBu_scaleRev_orientDef_270.png"" style= ""width:200px""alt=""img"">
                            </div>
                        </div>","31","","0","","","","images/map13_YlGnBu_scaleRev_orientDef_270.png","fearful","1","13","13","YlGnBu","orientDef","scaleRev","270","",""
"","","","","","html-slider-response","29","217883","0.0-23.0","4bangbs55f","61","NaN","<div style=""width:500px;"">
                            <p style=""font-size:50px; font-weight:bold;""
                            >fearful</p>
                            <div style=""width:240px; margin: auto;"">
                                <img src=""images/map02_gist_earth_scaleRev_orientDef_090.png"" style= ""width:200px""alt=""img"">
                            </div>
                        </div>","-30","","0","","","","images/map02_gist_earth_scaleRev_orientDef_090.png","fearful","1","02","02","gist","scaleRev","earth","orientDef","",""
"","","","","","html-slider-response","30","220966","0.0-24.0","4bangbs55f","61","NaN","<div style=""width:500px;"">
                            <p style=""font-size:50px; font-weight:bold;""
                            >fearful</p>
                            <div style=""width:240px; margin: auto;"">
                                <img src=""images/map13_PuBu_scaleDef_orientDef_000.png"" style= ""width:200px""alt=""img"">
                            </div>
                        </div>","17","","0","","","","images/map13_PuBu_scaleDef_orientDef_000.png","fearful","1","13","13","PuBu","orientDef","scaleDef","000","",""
"","","","","","html-slider-response","31","222500","0.0-25.0","4bangbs55f","61","NaN","<div style=""width:500px;"">
                            <p style=""font-size:50px; font-weight:bold;""
                            >fearful</p>
                            <div style=""width:240px; margin: auto;"">
                                <img src=""images/map05_inferno_scaleDef_orientDef_000.png"" style= ""width:200px""alt=""img"">
                            </div>
                        </div>","71","","0","","","","images/map05_inferno_scaleDef_orientDef_000.png","fearful","1","05","05","inferno","orientDef","scaleDef","000","",""
"","","","","","html-slider-response","32","224315","0.0-26.0","4bangbs55f","61","NaN","<div style=""width:500px;"">
                            <p style=""font-size:50px; font-weight:bold;""
                            >fearful</p>
                            <div style=""width:240px; margin: auto;"">
                                <img src=""images/map12_BuPu_scaleDef_orientMir_000.png"" style= ""width:200px""alt=""img"">
                            </div>
                        </div>","62","","0","","","","images/map12_BuPu_scaleDef_orientMir_000.png","fearful","1","12","12","BuPu","orientMir","scaleDef","000","",""
"","","","","","html-slider-response","33","225733","0.0-27.0","4bangbs55f","61","NaN","<div style=""width:500px;"">
                            <p style=""font-size:50px; font-weight:bold;""
                            >fearful</p>
                            <div style=""width:240px; margin: auto;"">
                                <img src=""images/map05_inferno_scaleRev_orientDef_090.png"" style= ""width:200px""alt=""img"">
                            </div>
                        </div>","149","","0","","","","images/map05_inferno_scaleRev_orientDef_090.png","fearful","1","05","05","inferno","orientDef","scaleRev","090","",""
"","","","","","html-slider-response","34","227916","0.0-28.0","4bangbs55f","61","NaN","<div style=""width:500px;"">
                            <p style=""font-size:50px; font-weight:bold;""
                            >fearful</p>
                            <div style=""width:240px; margin: auto;"">
                                <img src=""images/map10_OrRd_scaleRev_orientMir_270.png"" style= ""width:200px""alt=""img"">
                            </div>
                        </div>","58","","0","","","","images/map10_OrRd_scaleRev_orientMir_270.png","fearful","1","10","10","OrRd","orientMir","scaleRev","270","",""
"","","","","","html-slider-response","35","229367","0.0-29.0","4bangbs55f","61","NaN","<div style=""width:500px;"">
                            <p style=""font-size:50px; font-weight:bold;""
                            >fearful</p>
                            <div style=""width:240px; margin: auto;"">
                                <img src=""images/map05_magma_scaleDef_orientDef_180.png"" style= ""width:200px""alt=""img"">
                            </div>
                        </div>","153","","0","","","","images/map05_magma_scaleDef_orientDef_180.png","fearful","1","05","05","magma","orientDef","scaleDef","180","",""
"","","","","","html-slider-response","36","230650","0.0-30.0","4bangbs55f","61","NaN","<div style=""width:500px;"">
                            <p style=""font-size:50px; font-weight:bold;""
                            >fearful</p>
                            <div style=""width:240px; margin: auto;"">
                                <img src=""images/map05_magma_scaleRev_orientDef_270.png"" style= ""width:200px""alt=""img"">
                            </div>
                        </div>","130","","0","","","","images/map05_magma_scaleRev_orientDef_270.png","fearful","1","05","05","magma","orientDef","scaleRev","270","",""
"","","","","","html-slider-response","37","232981","0.0-31.0","4bangbs55f","61","NaN","<div style=""width:500px;"">
                            <p style=""font-size:50px; font-weight:bold;""
                            >fearful</p>
                            <div style=""width:240px; margin: auto;"">
                                <img src=""images/map05_Greys_scaleDef_orientMir_180.png"" style= ""width:200px""alt=""img"">
                            </div>
                        </div>","-21","","0","","","","images/map05_Greys_scaleDef_orientMir_180.png","fearful","1","05","05","Greys","orientMir","scaleDef","180","",""
"","","","","","html-slider-response","38","234567","0.0-32.0","4bangbs55f","61","NaN","<div style=""width:500px;"">
                            <p style=""font-size:50px; font-weight:bold;""
                            >fearful</p>
                            <div style=""width:240px; margin: auto;"">
                                <img src=""images/map15_YlGn_scaleDef_orientDef_000.png"" style= ""width:200px""alt=""img"">
                            </div>
                        </div>","-18","","0","","","","images/map15_YlGn_scaleDef_orientDef_000.png","fearful","1","15","15","YlGn","orientDef","scaleDef","000","",""
"","","","","","html-slider-response","39","236016","0.0-33.0","4bangbs55f","61","NaN","<div style=""width:500px;"">
                            <p style=""font-size:50px; font-weight:bold;""
                            >fearful</p>
                            <div style=""width:240px; margin: auto;"">
                                <img src=""images/map12_RdPu_scaleRev_orientDef_270.png"" style= ""width:200px""alt=""img"">
                            </div>
                        </div>","98","","0","","","","images/map12_RdPu_scaleRev_orientDef_270.png","fearful","1","12","12","RdPu","orientDef","scaleRev","270","",""
"","","","","","html-slider-response","40","238166","0.0-34.0","4bangbs55f","61","NaN","<div style=""width:500px;"">
                            <p style=""font-size:50px; font-weight:bold;""
                            >fearful</p>
                            <div style=""width:240px; margin: auto;"">
                                <img src=""images/map26_RdYlGn_scaleRev_orientDef_090.png"" style= ""width:200px""alt=""img"">
                            </div>
                        </div>","-18","","0","","","","images/map26_RdYlGn_scaleRev_orientDef_090.png","fearful","1","26","26","RdYlGn","orientDef","scaleRev","090","",""
"","","","","","html-slider-response","41","240500","0.0-35.0","4bangbs55f","61","NaN","<div style=""width:500px;"">
                            <p style=""font-size:50px; font-weight:bold;""
                            >fearful</p>
                            <div style=""width:240px; margin: auto;"">
                                <img src=""images/map07_Greens_scaleRev_orientMir_090.png"" style= ""width:200px""alt=""img"">
                            </div>
                        </div>","-92","","0","","","","images/map07_Greens_scaleRev_orientMir_090.png","fearful","1","07","07","Greens","orientMir","scaleRev","090","",""
"","","","","","html-slider-response","42","241966","0.0-36.0","4bangbs55f","61","NaN","<div style=""width:500px;"">
                            <p style=""font-size:50px; font-weight:bold;""
                            >fearful</p>
                            <div style=""width:240px; margin: auto;"">
                                <img src=""images/map12_GnBu_scaleDef_orientMir_180.png"" style= ""width:200px""alt=""img"">
                            </div>
                        </div>","44","","0","","","","images/map12_GnBu_scaleDef_orientMir_180.png","fearful","1","12","12","GnBu","orientMir","scaleDef","180","",""
"","","","","","html-slider-response","43","246249","0.0-37.0","4bangbs55f","61","NaN","<div style=""width:500px;"">
                            <p style=""font-size:50px; font-weight:bold;""
                            >fearful</p>
                            <div style=""width:240px; margin: auto;"">
                                <img src=""images/map02_viridis_scaleDef_orientMir_000.png"" style= ""width:200px""alt=""img"">
                            </div>
                        </div>","92","","0","","","","images/map02_viridis_scaleDef_orientMir_000.png","fearful","1","02","02","viridis","orientMir","scaleDef","000","",""
"","","","","","html-slider-response","44","247933","0.0-38.0","4bangbs55f","61","NaN","<div style=""width:500px;"">
                            <p style=""font-size:50px; font-weight:bold;""
                            >fearful</p>
                            <div style=""width:240px; margin: auto;"">
                                <img src=""images/map13_PuBuGn_scaleDef_orientMir_000.png"" style= ""width:200px""alt=""img"">
                            </div>
                        </div>","87","","0","","","","images/map13_PuBuGn_scaleDef_orientMir_000.png","fearful","1","13","13","PuBuGn","orientMir","scaleDef","000","",""
"","","","","","html-slider-response","45","249566","0.0-39.0","4bangbs55f","61","NaN","<div style=""width:500px;"">
                            <p style=""font-size:50px; font-weight:bold;""
                            >fearful</p>
                            <div style=""width:240px; margin: auto;"">
                                <img src=""images/map02_turbo_scaleRev_orientDef_270.png"" style= ""width:200px""alt=""img"">
                            </div>
                        </div>","38","","0","","","","images/map02_turbo_scaleRev_orientDef_270.png","fearful","1","02","02","turbo","orientDef","scaleRev","270","",""
"","","","","","html-slider-response","46","251116","0.0-40.0","4bangbs55f","61","NaN","<div style=""width:500px;"">
                            <p style=""font-size:50px; font-weight:bold;""
                            >fearful</p>
                            <div style=""width:240px; margin: auto;"">
                                <img src=""images/map27_seismic_scaleRev_orientDef_090.png"" style= ""width:200px""alt=""img"">
                            </div>
                        </div>","125","","0","","","","images/map27_seismic_scaleRev_orientDef_090.png","fearful","1","27","27","seismic","orientDef","scaleRev","090","",""
"","","","","","html-slider-response","47","252432","0.0-41.0","4bangbs55f","61","NaN","<div style=""width:500px;"">
                            <p style=""font-size:50px; font-weight:bold;""
                            >fearful</p>
                            <div style=""width:240px; margin: auto;"">
                                <img src=""images/map27_managua_scaleRev_orientMir_090.png"" style= ""width:200px""alt=""img"">
                            </div>
                        </div>","130","","0","","","","images/map27_managua_scaleRev_orientMir_090.png","fearful","1","27","27","managua","orientMir","scaleRev","090","",""
"","","","","","html-slider-response","48","253866","0.0-42.0","4bangbs55f","61","NaN","<div style=""width:500px;"">
                            <p style=""font-size:50px; font-weight:bold;""
                            >fearful</p>
                            <div style=""width:240px; margin: auto;"">
                                <img src=""images/map23_RdYlBu_scaleRev_orientMir_270.png"" style= ""width:200px""alt=""img"">
                            </div>
                        </div>","167","","0","","","","images/map23_RdYlBu_scaleRev_orientMir_270.png","fearful","1","23","23","RdYlBu","orientMir","scaleRev","270","",""
"","","","","","html-slider-response","49","255866","0.0-43.0","4bangbs55f","61","NaN","<div style=""width:500px;"">
                            <p style=""font-size:50px; font-weight:bold;""
                            >fearful</p>
                            <div style=""width:240px; margin: auto;"">
                                <img src=""images/map07_Oranges_scaleDef_orientMir_180.png"" style= ""width:200px""alt=""img"">
                            </div>
                        </div>","54","","0","","","","images/map07_Oranges_scaleDef_orientMir_180.png","fearful","1","07","07","Oranges","orientMir","scaleDef","180","",""
"","","","","","html-slider-response","50","259116","0.0-44.0","4bangbs55f","61","NaN","<div style=""width:500px;"">
                            <p style=""font-size:50px; font-weight:bold;""
                            >fearful</p>
                            <div style=""width:240px; margin: auto;"">
                                <img src=""images/map23_RdGy_scaleRev_orientDef_270.png"" style= ""width:200px""alt=""img"">
                            </div>
                        </div>","46","","0","","","","images/map23_RdGy_scaleRev_orientDef_270.png","fearful","1","23","23","RdGy","orientDef","scaleRev","270","",""
"","","","","","html-slider-response","51","260916","0.0-45.0","4bangbs55f","61","NaN","<div style=""width:500px;"">
                            <p style=""font-size:50px; font-weight:bold;""
                            >fearful</p>
                            <div style=""width:240px; margin: auto;"">
                                <img src=""images/map10_YlOrBr_scaleRev_orientDef_270.png"" style= ""width:200px""alt=""img"">
                            </div>
                        </div>","-14","","0","","","","images/map10_YlOrBr_scaleRev_orientDef_270.png","fearful","1","10","10","YlOrBr","orientDef","scaleRev","270","",""
"","","","","","html-slider-response","52","265049","0.0-46.0","4bangbs55f","61","NaN","<div style=""width:500px;"">
                            <p style=""font-size:50px; font-weight:bold;""
                            >fearful</p>
                            <div style=""width:240px; margin: auto;"">
                                <img src=""images/map27_managua_scaleDef_orientMir_000.png"" style= ""width:200px""alt=""img"">
                            </div>
                        </div>","171","","0","","","","images/map27_managua_scaleDef_orientMir_000.png","fearful","1","27","27","managua","orientMir","scaleDef","000","",""
"","","","","","html-slider-response","53","267083","0.0-47.0","4bangbs55f","61","NaN","<div style=""width:500px;"">
                            <p style=""font-size:50px; font-weight:bold;""
                            >fearful</p>
                            <div style=""width:240px; margin: auto;"">
                                <img src=""images/map27_vanimo_scaleDef_orientMir_180.png"" style= ""width:200px""alt=""img"">
                            </div>
                        </div>","181","","0","","","","images/map27_vanimo_scaleDef_orientMir_180.png","fearful","1","27","27","vanimo","orientMir","scaleDef","180","",""
"","","","","","html-slider-response","54","269183","0.0-48.0","4bangbs55f","61","NaN","<div style=""width:500px;"">
                            <p style=""font-size:50px; font-weight:bold;""
                            >fearful</p>
                            <div style=""width:240px; margin: auto;"">
                                <img src=""images/map07_Blues_scaleRev_orientDef_270.png"" style= ""width:200px""alt=""img"">
                            </div>
                        </div>","32","","0","","","","images/map07_Blues_scaleRev_orientDef_270.png","fearful","1","07","07","Blues","orientDef","scaleRev","270","",""
"","","","","","html-slider-response","55","270967","0.0-49.0","4bangbs55f","61","NaN","<div style=""width:500px;"">
                            <p style=""font-size:50px; font-weight:bold;""
                            >fearful</p>
                            <div style=""width:240px; margin: auto;"">
                                <img src=""images/map07_Purples_scaleRev_orientDef_090.png"" style= ""width:200px""alt=""img"">
                            </div>
                        </div>","33","","0","","","","images/map07_Purples_scaleRev_orientDef_090.png","fearful","1","07","07","Purples","orientDef","scaleRev","090","",""
"","","","","","html-slider-response","56","272433","0.0-50.0","4bangbs55f","61","NaN","<div style=""width:500px;"">
                            <p style=""font-size:50px; font-weight:bold;""
                            >fearful</p>
                            <div style=""width:240px; margin: auto;"">
                                <img src=""images/map10_OrRd_scaleDef_orientMir_180.png"" style= ""width:200px""alt=""img"">
                            </div>
                        </div>","53","","0","","","","images/map10_OrRd_scaleDef_orientMir_180.png","fearful","1","10","10","OrRd","orientMir","scaleDef","180","",""
"","","","","","html-slider-response","57","274250","0.0-51.0","4bangbs55f","61","NaN","<div style=""width:500px;"">
                            <p style=""font-size:50px; font-weight:bold;""
                            >fearful</p>
                            <div style=""width:240px; margin: auto;"">
                                <img src=""images/map05_cividis_scaleRev_orientMir_090.png"" style= ""width:200px""alt=""img"">
                            </div>
                        </div>","106","","0","","","","images/map05_cividis_scaleRev_orientMir_090.png","fearful","1","05","05","cividis","orientMir","scaleRev","090","",""
"","","","","","html-slider-response","58","275615","0.0-52.0","4bangbs55f","61","NaN","<div style=""width:500px;"">
                            <p style=""font-size:50px; font-weight:bold;""
                            >fearful</p>
                            <div style=""width:240px; margin: auto;"">
                                <img src=""images/map23_PuOr_scaleRev_orientDef_090.png"" style= ""width:200px""alt=""img"">
                            </div>
                        </div>","73","","0","","","","images/map23_PuOr_scaleRev_orientDef_090.png","fearful","1","23","23","PuOr","orientDef","scaleRev","090","",""
"","","","","","html-slider-response","59","277715","0.0-53.0","4bangbs55f","61","NaN","<div style=""width:500px;"">
                            <p style=""font-size:50px; font-weight:bold;""
                            >fearful</p>
                            <div style=""width:240px; margin: auto;"">
                                <img src=""images/map10_YlOrRd_scaleDef_orientMir_000.png"" style= ""width:200px""alt=""img"">
                            </div>
                        </div>","100","","0","","","","images/map10_YlOrRd_scaleDef_orientMir_000.png","fearful","1","10","10","YlOrRd","orientMir","scaleDef","000","",""
"","","","","","html-button-response","60","279505","0.0-54.0","4bangbs55f","61","1287","<p>You are doing great!<br></br> You are halway done with the current block. When you are ready to continue, click the 'Continue' button.</p>","0","","","","","","","","","","","","","","","",""
"","","","","","html-slider-response","61","284815","0.0-55.0","4bangbs55f","61","NaN","<div style=""width:500px;"">
                            <p style=""font-size:50px; font-weight:bold;""
                            >fearful</p>
                            <div style=""width:240px; margin: auto;"">
                                <img src=""images/map26_coolwarm_scaleDef_orientMir_000.png"" style= ""width:200px""alt=""img"">
                            </div>
                        </div>","-33","","0","","","","images/map26_coolwarm_scaleDef_orientMir_000.png","fearful","1","26","26","coolwarm","orientMir","scaleDef","000","",""
"","","","","","html-slider-response","62","286300","0.0-56.0","4bangbs55f","61","NaN","<div style=""width:500px;"">
                            <p style=""font-size:50px; font-weight:bold;""
                            >fearful</p>
                            <div style=""width:240px; margin: auto;"">
                                <img src=""images/map15_BrBG_scaleDef_orientMir_180.png"" style= ""width:200px""alt=""img"">
                            </div>
                        </div>","60","","0","","","","images/map15_BrBG_scaleDef_orientMir_180.png","fearful","1","15","15","BrBG","orientMir","scaleDef","180","",""
"","","","","","html-slider-response","63","287483","0.0-57.0","4bangbs55f","61","NaN","<div style=""width:500px;"">
                            <p style=""font-size:50px; font-weight:bold;""
                            >fearful</p>
                            <div style=""width:240px; margin: auto;"">
                                <img src=""images/map23_RdYlBu_scaleDef_orientMir_180.png"" style= ""width:200px""alt=""img"">
                            </div>
                        </div>","90","","0","","","","images/map23_RdYlBu_scaleDef_orientMir_180.png","fearful","1","23","23","RdYlBu","orientMir","scaleDef","180","",""
"","","","","","html-slider-response","64","288932","0.0-58.0","4bangbs55f","61","NaN","<div style=""width:500px;"">
                            <p style=""font-size:50px; font-weight:bold;""
                            >fearful</p>
                            <div style=""width:240px; margin: auto;"">
                                <img src=""images/map26_RdYlGn_scaleDef_orientDef_000.png"" style= ""width:200px""alt=""img"">
                            </div>
                        </div>","54","","0","","","","images/map26_RdYlGn_scaleDef_orientDef_000.png","fearful","1","26","26","RdYlGn","orientDef","scaleDef","000","",""
"","","","","","html-slider-response","65","290716","0.0-59.0","4bangbs55f","61","NaN","<div style=""width:500px;"">
                            <p style=""font-size:50px; font-weight:bold;""
                            >fearful</p>
                            <div style=""width:240px; margin: auto;"">
                                <img src=""images/map27_berlin_scaleRev_orientDef_270.png"" style= ""width:200px""alt=""img"">
                            </div>
                        </div>","182","","0","","","","images/map27_berlin_scaleRev_orientDef_270.png","fearful","1","27","27","berlin","orientDef","scaleRev","270","",""
"","","","","","html-slider-response","66","292715","0.0-60.0","4bangbs55f","61","NaN","<div style=""width:500px;"">
                            <p style=""font-size:50px; font-weight:bold;""
                            >fearful</p>
                            <div style=""width:240px; margin: auto;"">
                                <img src=""images/map26_coolwarm_scaleRev_orientMir_090.png"" style= ""width:200px""alt=""img"">
                            </div>
                        </div>","24","","0","","","","images/map26_coolwarm_scaleRev_orientMir_090.png","fearful","1","26","26","coolwarm","orientMir","scaleRev","090","",""
"","","","","","html-slider-response","67","294483","0.0-61.0","4bangbs55f","61","NaN","<div style=""width:500px;"">
                            <p style=""font-size:50px; font-weight:bold;""
                            >fearful</p>
                            <div style=""width:240px; margin: auto;"">
                                <img src=""images/map27_vanimo_scaleRev_orientMir_270.png"" style= ""width:200px""alt=""img"">
                            </div>
                        </div>","183","","0","","","","images/map27_vanimo_scaleRev_orientMir_270.png","fearful","1","27","27","vanimo","orientMir","scaleRev","270","",""
"","","","","","html-slider-response","68","296083","0.0-62.0","4bangbs55f","61","NaN","<div style=""width:500px;"">
                            <p style=""font-size:50px; font-weight:bold;""
                            >fearful</p>
                            <div style=""width:240px; margin: auto;"">
                                <img src=""images/map23_RdGy_scaleDef_orientDef_180.png"" style= ""width:200px""alt=""img"">
                            </div>
                        </div>","174","","0","","","","images/map23_RdGy_scaleDef_orientDef_180.png","fearful","1","23","23","RdGy","orientDef","scaleDef","180","",""
"","","","","","html-slider-response","69","297816","0.0-63.0","4bangbs55f","61","NaN","<div style=""width:500px;"">
                            <p style=""font-size:50px; font-weight:bold;""
                            >fearful</p>
                            <div style=""width:240px; margin: auto;"">
                                <img src=""images/map12_PuRd_scaleRev_orientDef_090.png"" style= ""width:200px""alt=""img"">
                            </div>
                        </div>","-40","","0","","","","images/map12_PuRd_scaleRev_orientDef_090.png","fearful","1","12","12","PuRd","orientDef","scaleRev","090","",""
"","","","","","html-slider-response","70","299415","0.0-64.0","4bangbs55f","61","NaN","<div style=""width:500px;"">
                            <p style=""font-size:50px; font-weight:bold;""
                            >fearful</p>
                            <div style=""width:240px; margin: auto;"">
                                <img src=""images/map13_YlGnBu_scaleDef_orientDef_180.png"" style= ""width:200px""alt=""img"">
                            </div>
                        </div>","36","","0","","","","images/map13_YlGnBu_scaleDef_orientDef_180.png","fearful","1","13","13","YlGnBu","orientDef","scaleDef","180","",""
"","","","","","html-slider-response","71","301032","0.0-65.0","4bangbs55f","61","NaN","<div style=""width:500px;"">
                            <p style=""font-size:50px; font-weight:bold;""
                            >fearful</p>
                            <div style=""width:240px; margin: auto;"">
                                <img src=""images/map13_BuGn_scaleRev_orientMir_270.png"" style= ""width:200px""alt=""img"">
                            </div>
                        </div>","33","","0","","","","images/map13_BuGn_scaleRev_orientMir_270.png","fearful","1","13","13","BuGn","orientMir","scaleRev","270","",""
"","","","","","html-slider-response","72","302532","0.0-66.0","4bangbs55f","61","NaN","<div style=""width:500px;"">
                            <p style=""font-size:50px; font-weight:bold;""
                            >fearful</p>
                            <div style=""width:240px; margin: auto;"">
                                <img src=""images/map02_viridis_scaleRev_orientMir_090.png"" style= ""width:200px""alt=""img"">
                            </div>
                        </div>","-65","","0","","","","images/map02_viridis_scaleRev_orientMir_090.png","fearful","1","02","02","viridis","orientMir","scaleRev","090","",""
"","","","","","html-slider-response","73","304449","0.0-67.0","4bangbs55f","61","NaN","<div style=""width:500px;"">
                            <p style=""font-size:50px; font-weight:bold;""
                            >fearful</p>
                            <div style=""width:240px; margin: auto;"">
                                <img src=""images/map23_PuOr_scaleDef_orientDef_000.png"" style= ""width:200px""alt=""img"">
                            </div>
                        </div>","9","","0","","","","images/map23_PuOr_scaleDef_orientDef_000.png","fearful","1","23","23","PuOr","orientDef","scaleDef","000","",""
"","","","","","html-slider-response","74","306283","0.0-68.0","4bangbs55f","61","NaN","<div style=""width:500px;"">
                            <p style=""font-size:50px; font-weight:bold;""
                            >fearful</p>
                            <div style=""width:240px; margin: auto;"">
                                <img src=""images/map10_YlOrBr_scaleDef_orientDef_180.png"" style= ""width:200px""alt=""img"">
                            </div>
                        </div>","-15","","0","","","","images/map10_YlOrBr_scaleDef_orientDef_180.png","fearful","1","10","10","YlOrBr","orientDef","scaleDef","180","",""
"","","","","","html-slider-response","75","307899","0.0-69.0","4bangbs55f","61","NaN","<div style=""width:500px;"">
                            <p style=""font-size:50px; font-weight:bold;""
                            >fearful</p>
                            <div style=""width:240px; margin: auto;"">
                                <img src=""images/map12_GnBu_scaleRev_orientMir_270.png"" style= ""width:200px""alt=""img"">
                            </div>
                        </div>","22","","0","","","","images/map12_GnBu_scaleRev_orientMir_270.png","fearful","1","12","12","GnBu","orientMir","scaleRev","270","",""
"","","","","","html-slider-response","76","310283","0.0-70.0","4bangbs55f","61","NaN","<div style=""width:500px;"">
                            <p style=""font-size:50px; font-weight:bold;""
                            >fearful</p>
                            <div style=""width:240px; margin: auto;"">
                                <img src=""images/map07_Greens_scaleDef_orientMir_000.png"" style= ""width:200px""alt=""img"">
                            </div>
                        </div>","38","","0","","","","images/map07_Greens_scaleDef_orientMir_000.png","fearful","1","07","07","Greens","orientMir","scaleDef","000","",""
"","","","","","html-slider-response","77","311900","0.0-71.0","4bangbs55f","61","NaN","<div style=""width:500px;"">
                            <p style=""font-size:50px; font-weight:bold;""
                            >fearful</p>
                            <div style=""width:240px; margin: auto;"">
                                <img src=""images/map15_BrBG_scaleRev_orientMir_270.png"" style= ""width:200px""alt=""img"">
                            </div>
                        </div>","24","","0","","","","images/map15_BrBG_scaleRev_orientMir_270.png","fearful","1","15","15","BrBG","orientMir","scaleRev","270","",""
"","","","","","html-slider-response","78","313833","0.0-72.0","4bangbs55f","61","NaN","<div style=""width:500px;"">
                            <p style=""font-size:50px; font-weight:bold;""
                            >fearful</p>
                            <div style=""width:240px; margin: auto;"">
                                <img src=""images/map26_Spectral_scaleDef_orientDef_180.png"" style= ""width:200px""alt=""img"">
                            </div>
                        </div>","96","","0","","","","images/map26_Spectral_scaleDef_orientDef_180.png","fearful","1","26","26","Spectral","orientDef","scaleDef","180","",""
"","","","","","html-slider-response","79","315616","0.0-73.0","4bangbs55f","61","NaN","<div style=""width:500px;"">
                            <p style=""font-size:50px; font-weight:bold;""
                            >fearful</p>
                            <div style=""width:240px; margin: auto;"">
                                <img src=""images/map12_PuRd_scaleDef_orientDef_000.png"" style= ""width:200px""alt=""img"">
                            </div>
                        </div>","-98","","0","","","","images/map12_PuRd_scaleDef_orientDef_000.png","fearful","1","12","12","PuRd","orientDef","scaleDef","000","",""
"","","","","","html-slider-response","80","317683","0.0-74.0","4bangbs55f","61","NaN","<div style=""width:500px;"">
                            <p style=""font-size:50px; font-weight:bold;""
                            >fearful</p>
                            <div style=""width:240px; margin: auto;"">
                                <img src=""images/map26_bwr_scaleRev_orientMir_270.png"" style= ""width:200px""alt=""img"">
                            </div>
                        </div>","37","","0","","","","images/map26_bwr_scaleRev_orientMir_270.png","fearful","1","26","26","bwr","orientMir","scaleRev","270","",""
"","","","","","html-slider-response","81","319516","0.0-75.0","4bangbs55f","61","NaN","<div style=""width:500px;"">
                            <p style=""font-size:50px; font-weight:bold;""
                            >fearful</p>
                            <div style=""width:240px; margin: auto;"">
                                <img src=""images/map05_Greys_scaleRev_orientMir_270.png"" style= ""width:200px""alt=""img"">
                            </div>
                        </div>","167","","0","","","","images/map05_Greys_scaleRev_orientMir_270.png","fearful","1","05","05","Greys","orientMir","scaleRev","270","",""
"","","","","","html-slider-response","82","322333","0.0-76.0","4bangbs55f","61","NaN","<div style=""width:500px;"">
                            <p style=""font-size:50px; font-weight:bold;""
                            >fearful</p>
                            <div style=""width:240px; margin: auto;"">
                                <img src=""images/map23_RdBu_scaleRev_orientMir_090.png"" style= ""width:200px""alt=""img"">
                            </div>
                        </div>","31","","0","","","","images/map23_RdBu_scaleRev_orientMir_090.png","fearful","1","23","23","RdBu","orientMir","scaleRev","090","",""
"","","","","","html-slider-response","83","324000","0.0-77.0","4bangbs55f","61","NaN","<div style=""width:500px;"">
                            <p style=""font-size:50px; font-weight:bold;""
                            >fearful</p>
                            <div style=""width:240px; margin: auto;"">
                                <img src=""images/map26_Spectral_scaleRev_orientDef_270.png"" style= ""width:200px""alt=""img"">
                            </div>
                        </div>","61","","0","","","","images/map26_Spectral_scaleRev_orientDef_270.png","fearful","1","26","26","Spectral","orientDef","scaleRev","270","",""
"","","","","","html-slider-response","84","326917","0.0-78.0","4bangbs55f","61","NaN","<div style=""width:500px;"">
                            <p style=""font-size:50px; font-weight:bold;""
                            >fearful</p>
                            <div style=""width:240px; margin: auto;"">
                                <img src=""images/map10_YlOrRd_scaleRev_orientMir_090.png"" style= ""width:200px""alt=""img"">
                            </div>
                        </div>","118","","0","","","","images/map10_YlOrRd_scaleRev_orientMir_090.png","fearful","1","10","10","YlOrRd","orientMir","scaleRev","090","",""
"","","","","","html-slider-response","85","330350","0.0-79.0","4bangbs55f","61","NaN","<div style=""width:500px;"">
                            <p style=""font-size:50px; font-weight:bold;""
                            >fearful</p>
                            <div style=""width:240px; margin: auto;"">
                                <img src=""images/map15_PRGn_scaleDef_orientMir_000.png"" style= ""width:200px""alt=""img"">
                            </div>
                        </div>","-118","","0","","","","images/map15_PRGn_scaleDef_orientMir_000.png","fearful","1","15","15","PRGn","orientMir","scaleDef","000","",""
"","","","","","html-slider-response","86","331700","0.0-80.0","4bangbs55f","61","NaN","<div style=""width:500px;"">
                            <p style=""font-size:50px; font-weight:bold;""
                            >fearful</p>
                            <div style=""width:240px; margin: auto;"">
                                <img src=""images/map15_PiYG_scaleDef_orientDef_180.png"" style= ""width:200px""alt=""img"">
                            </div>
                        </div>","-84","","0","","","","images/map15_PiYG_scaleDef_orientDef_180.png","fearful","1","15","15","PiYG","orientDef","scaleDef","180","",""
"","","","","","html-slider-response","87","334798","0.0-81.0","4bangbs55f","61","NaN","<div style=""width:500px;"">
                            <p style=""font-size:50px; font-weight:bold;""
                            >fearful</p>
                            <div style=""width:240px; margin: auto;"">
                                <img src=""images/map07_Purples_scaleDef_orientDef_000.png"" style= ""width:200px""alt=""img"">
                            </div>
                        </div>","-12","","0","","","","images/map07_Purples_scaleDef_orientDef_000.png","fearful","1","07","07","Purples","orientDef","scaleDef","000","",""
"","","","","","html-slider-response","88","336465","0.0-82.0","4bangbs55f","61","NaN","<div style=""width:500px;"">
                            <p style=""font-size:50px; font-weight:bold;""
                            >fearful</p>
                            <div style=""width:240px; margin: auto;"">
                                <img src=""images/map02_turbo_scaleDef_orientDef_180.png"" style= ""width:200px""alt=""img"">
                            </div>
                        </div>","134","","0","","","","images/map02_turbo_scaleDef_orientDef_180.png","fearful","1","02","02","turbo","orientDef","scaleDef","180","",""
"","","","","","html-slider-response","89","338049","0.0-83.0","4bangbs55f","61","NaN","<div style=""width:500px;"">
                            <p style=""font-size:50px; font-weight:bold;""
                            >fearful</p>
                            <div style=""width:240px; margin: auto;"">
                                <img src=""images/map10_Reds_scaleDef_orientDef_000.png"" style= ""width:200px""alt=""img"">
                            </div>
                        </div>","166","","0","","","","images/map10_Reds_scaleDef_orientDef_000.png","fearful","1","10","10","Reds","orientDef","scaleDef","000","",""
"","","","","","html-slider-response","90","339800","0.0-84.0","4bangbs55f","61","NaN","<div style=""width:500px;"">
                            <p style=""font-size:50px; font-weight:bold;""
                            >fearful</p>
                            <div style=""width:240px; margin: auto;"">
                                <img src=""images/map15_PRGn_scaleRev_orientMir_090.png"" style= ""width:200px""alt=""img"">
                            </div>
                        </div>","-121","","0","","","","images/map15_PRGn_scaleRev_orientMir_090.png","fearful","1","15","15","PRGn","orientMir","scaleRev","090","",""
"","","","","","html-slider-response","91","342866","0.0-85.0","4bangbs55f","61","NaN","<div style=""width:500px;"">
                            <p style=""font-size:50px; font-weight:bold;""
                            >fearful</p>
                            <div style=""width:240px; margin: auto;"">
                                <img src=""images/map02_plasma_scaleRev_orientMir_270.png"" style= ""width:200px""alt=""img"">
                            </div>
                        </div>","110","","0","","","","images/map02_plasma_scaleRev_orientMir_270.png","fearful","1","02","02","plasma","orientMir","scaleRev","270","",""
"","","","","","html-slider-response","92","344549","0.0-86.0","4bangbs55f","61","NaN","<div style=""width:500px;"">
                            <p style=""font-size:50px; font-weight:bold;""
                            >fearful</p>
                            <div style=""width:240px; margin: auto;"">
                                <img src=""images/map15_PiYG_scaleRev_orientDef_270.png"" style= ""width:200px""alt=""img"">
                            </div>
                        </div>","-94","","0","","","","images/map15_PiYG_scaleRev_orientDef_270.png","fearful","1","15","15","PiYG","orientDef","scaleRev","270","",""
"","","","","","html-slider-response","93","346749","0.0-87.0","4bangbs55f","61","NaN","<div style=""width:500px;"">
                            <p style=""font-size:50px; font-weight:bold;""
                            >fearful</p>
                            <div style=""width:240px; margin: auto;"">
                                <img src=""images/map05_cividis_scaleDef_orientMir_000.png"" style= ""width:200px""alt=""img"">
                            </div>
                        </div>","162","","0","","","","images/map05_cividis_scaleDef_orientMir_000.png","fearful","1","05","05","cividis","orientMir","scaleDef","000","",""
"","","","","","html-slider-response","94","348550","0.0-88.0","4bangbs55f","61","NaN","<div style=""width:500px;"">
                            <p style=""font-size:50px; font-weight:bold;""
                            >fearful</p>
                            <div style=""width:240px; margin: auto;"">
                                <img src=""images/map02_gist_earth_scaleDef_orientDef_000.png"" style= ""width:200px""alt=""img"">
                            </div>
                        </div>","-75","","0","","","","images/map02_gist_earth_scaleDef_orientDef_000.png","fearful","1","02","02","gist","scaleDef","earth","orientDef","",""
"","","","","","html-slider-response","95","350316","0.0-89.0","4bangbs55f","61","NaN","<div style=""width:500px;"">
                            <p style=""font-size:50px; font-weight:bold;""
                            >fearful</p>
                            <div style=""width:240px; margin: auto;"">
                                <img src=""images/map12_BuPu_scaleRev_orientMir_090.png"" style= ""width:200px""alt=""img"">
                            </div>
                        </div>","118","","0","","","","images/map12_BuPu_scaleRev_orientMir_090.png","fearful","1","12","12","BuPu","orientMir","scaleRev","090","",""
"","","","","","html-slider-response","96","352916","0.0-90.0","4bangbs55f","61","NaN","<div style=""width:500px;"">
                            <p style=""font-size:50px; font-weight:bold;""
                            >fearful</p>
                            <div style=""width:240px; margin: auto;"">
                                <img src=""images/map02_plasma_scaleDef_orientMir_180.png"" style= ""width:200px""alt=""img"">
                            </div>
                        </div>","67","","0","","","","images/map02_plasma_scaleDef_orientMir_180.png","fearful","1","02","02","plasma","orientMir","scaleDef","180","",""
"","","","","","html-slider-response","97","354884","0.0-91.0","4bangbs55f","61","NaN","<div style=""width:500px;"">
                            <p style=""font-size:50px; font-weight:bold;""
                            >fearful</p>
                            <div style=""width:240px; margin: auto;"">
                                <img src=""images/map23_RdBu_scaleDef_orientMir_000.png"" style= ""width:200px""alt=""img"">
                            </div>
                        </div>","24","","0","","","","images/map23_RdBu_scaleDef_orientMir_000.png","fearful","1","23","23","RdBu","orientMir","scaleDef","000","",""
"","","","","","html-slider-response","98","356298","0.0-92.0","4bangbs55f","61","NaN","<div style=""width:500px;"">
                            <p style=""font-size:50px; font-weight:bold;""
                            >fearful</p>
                            <div style=""width:240px; margin: auto;"">
                                <img src=""images/map27_seismic_scaleDef_orientDef_000.png"" style= ""width:200px""alt=""img"">
                            </div>
                        </div>","62","","0","","","","images/map27_seismic_scaleDef_orientDef_000.png","fearful","1","27","27","seismic","orientDef","scaleDef","000","",""
"","","","","","html-slider-response","99","358049","0.0-93.0","4bangbs55f","61","NaN","<div style=""width:500px;"">
                            <p style=""font-size:50px; font-weight:bold;""
                            >fearful</p>
                            <div style=""width:240px; margin: auto;"">
                                <img src=""images/map13_PuBu_scaleRev_orientDef_090.png"" style= ""width:200px""alt=""img"">
                            </div>
                        </div>","68","","0","","","","images/map13_PuBu_scaleRev_orientDef_090.png","fearful","1","13","13","PuBu","orientDef","scaleRev","090","",""
"","","","","","html-slider-response","100","359683","0.0-94.0","4bangbs55f","61","NaN","<div style=""width:500px;"">
                            <p style=""font-size:50px; font-weight:bold;""
                            >fearful</p>
                            <div style=""width:240px; margin: auto;"">
                                <img src=""images/map15_YlGn_scaleRev_orientDef_090.png"" style= ""width:200px""alt=""img"">
                            </div>
                        </div>","-50","","0","","","","images/map15_YlGn_scaleRev_orientDef_090.png","fearful","1","15","15","YlGn","orientDef","scaleRev","090","",""
"","","","","","html-button-response","101","362472","0.0-95.0","4bangbs55f","61","2286","<p>Great Job! You've finished block 1.<br></br> You have 4 block(s) left to go.<br></br></p>","0","","","","","","","","","","","","","","","",""
"","","","","","html-button-response","102","376589","0.0-96.0","4bangbs55f","61","14116","<p>In this block of trials, you will be asked to rate how much you associate each map with:</p > <p style = 'font-size:150%; font-weight: bold'>angry</p><br></br>","0","","","","","","","","","","","","","","","",""
"","","","","","html-slider-response","103","378015","0.0-97.0","4bangbs55f","61","NaN","<div style=""width:500px;"">
                            <p style=""font-size:50px; font-weight:bold;""
                            >angry</p>
                            <div style=""width:240px; margin: auto;"">
                                <img src=""images/map12_RdPu_scaleRev_orientDef_270.png"" style= ""width:200px""alt=""img"">
                            </div>
                        </div>","32","","0","","","","images/map12_RdPu_scaleRev_orientDef_270.png","angry","1","12","12","RdPu","orientDef","scaleRev","270","",""
"","","","","","html-slider-response","104","380650","0.0-98.0","4bangbs55f","61","NaN","<div style=""width:500px;"">
                            <p style=""font-size:50px; font-weight:bold;""
                            >angry</p>
                            <div style=""width:240px; margin: auto;"">
                                <img src=""images/map23_RdBu_scaleRev_orientMir_090.png"" style= ""width:200px""alt=""img"">
                            </div>
                        </div>","-10","","0","","","","images/map23_RdBu_scaleRev_orientMir_090.png","angry","1","23","23","RdBu","orientMir","scaleRev","090","",""
"","","","","","html-slider-response","105","382048","0.0-99.0","4bangbs55f","61","NaN","<div style=""width:500px;"">
                            <p style=""font-size:50px; font-weight:bold;""
                            >angry</p>
                            <div style=""width:240px; margin: auto;"">
                                <img src=""images/map10_Reds_scaleRev_orientDef_090.png"" style= ""width:200px""alt=""img"">
                            </div>
                        </div>","61","","0","","","","images/map10_Reds_scaleRev_orientDef_090.png","angry","1","10","10","Reds","orientDef","scaleRev","090","",""
"","","","","","html-slider-response","106","383714","0.0-100.0","4bangbs55f","61","NaN","<div style=""width:500px;"">
                            <p style=""font-size:50px; font-weight:bold;""
                            >angry</p>
                            <div style=""width:240px; margin: auto;"">
                                <img src=""images/map23_RdBu_scaleDef_orientMir_000.png"" style= ""width:200px""alt=""img"">
                            </div>
                        </div>","-10","","0","","","","images/map23_RdBu_scaleDef_orientMir_000.png","angry","1","23","23","RdBu","orientMir","scaleDef","000","",""
"","","","","","html-slider-response","107","385115","0.0-101.0","4bangbs55f","61","NaN","<div style=""width:500px;"">
                            <p style=""font-size:50px; font-weight:bold;""
                            >angry</p>
                            <div style=""width:240px; margin: auto;"">
                                <img src=""images/map13_BuGn_scaleRev_orientMir_270.png"" style= ""width:200px""alt=""img"">
                            </div>
                        </div>","-15","","0","","","","images/map13_BuGn_scaleRev_orientMir_270.png","angry","1","13","13","BuGn","orientMir","scaleRev","270","",""
"","","","","","html-slider-response","108","387033","0.0-102.0","4bangbs55f","61","NaN","<div style=""width:500px;"">
                            <p style=""font-size:50px; font-weight:bold;""
                            >angry</p>
                            <div style=""width:240px; margin: auto;"">
                                <img src=""images/map07_Oranges_scaleDef_orientMir_180.png"" style= ""width:200px""alt=""img"">
                            </div>
                        </div>","-9","","0","","","","images/map07_Oranges_scaleDef_orientMir_180.png","angry","1","07","07","Oranges","orientMir","scaleDef","180","",""
"","","","","","html-slider-response","109","388615","0.0-103.0","4bangbs55f","61","NaN","<div style=""width:500px;"">
                            <p style=""font-size:50px; font-weight:bold;""
                            >angry</p>
                            <div style=""width:240px; margin: auto;"">
                                <img src=""images/map15_PiYG_scaleDef_orientDef_180.png"" style= ""width:200px""alt=""img"">
                            </div>
                        </div>","-96","","0","","","","images/map15_PiYG_scaleDef_orientDef_180.png","angry","1","15","15","PiYG","orientDef","scaleDef","180","",""
"","","","","","html-slider-response","110","390333","0.0-104.0","4bangbs55f","61","NaN","<div style=""width:500px;"">
                            <p style=""font-size:50px; font-weight:bold;""
                            >angry</p>
                            <div style=""width:240px; margin: auto;"">
                                <img src=""images/map10_YlOrRd_scaleDef_orientMir_000.png"" style= ""width:200px""alt=""img"">
                            </div>
                        </div>","134","","0","","","","images/map10_YlOrRd_scaleDef_orientMir_000.png","angry","1","10","10","YlOrRd","orientMir","scaleDef","000","",""
"","","","","","html-slider-response","111","391966","0.0-105.0","4bangbs55f","61","NaN","<div style=""width:500px;"">
                            <p style=""font-size:50px; font-weight:bold;""
                            >angry</p>
                            <div style=""width:240px; margin: auto;"">
                                <img src=""images/map02_turbo_scaleRev_orientDef_270.png"" style= ""width:200px""alt=""img"">
                            </div>
                        </div>","-22","","0","","","","images/map02_turbo_scaleRev_orientDef_270.png","angry","1","02","02","turbo","orientDef","scaleRev","270","",""
"","","","","","html-slider-response","112","393565","0.0-106.0","4bangbs55f","61","NaN","<div style=""width:500px;"">
                            <p style=""font-size:50px; font-weight:bold;""
                            >angry</p>
                            <div style=""width:240px; margin: auto;"">
                                <img src=""images/map15_PRGn_scaleRev_orientMir_090.png"" style= ""width:200px""alt=""img"">
                            </div>
                        </div>","-80","","0","","","","images/map15_PRGn_scaleRev_orientMir_090.png","angry","1","15","15","PRGn","orientMir","scaleRev","090","",""
"","","","","","html-slider-response","113","395249","0.0-107.0","4bangbs55f","61","NaN","<div style=""width:500px;"">
                            <p style=""font-size:50px; font-weight:bold;""
                            >angry</p>
                            <div style=""width:240px; margin: auto;"">
                                <img src=""images/map07_Blues_scaleRev_orientDef_270.png"" style= ""width:200px""alt=""img"">
                            </div>
                        </div>","-10","","0","","","","images/map07_Blues_scaleRev_orientDef_270.png","angry","1","07","07","Blues","orientDef","scaleRev","270","",""
"","","","","","html-slider-response","114","397116","0.0-108.0","4bangbs55f","61","NaN","<div style=""width:500px;"">
                            <p style=""font-size:50px; font-weight:bold;""
                            >angry</p>
                            <div style=""width:240px; margin: auto;"">
                                <img src=""images/map23_RdGy_scaleRev_orientDef_270.png"" style= ""width:200px""alt=""img"">
                            </div>
                        </div>","112","","0","","","","images/map23_RdGy_scaleRev_orientDef_270.png","angry","1","23","23","RdGy","orientDef","scaleRev","270","",""
"","","","","","html-slider-response","115","398916","0.0-109.0","4bangbs55f","61","NaN","<div style=""width:500px;"">
                            <p style=""font-size:50px; font-weight:bold;""
                            >angry</p>
                            <div style=""width:240px; margin: auto;"">
                                <img src=""images/map05_cividis_scaleRev_orientMir_090.png"" style= ""width:200px""alt=""img"">
                            </div>
                        </div>","170","","0","","","","images/map05_cividis_scaleRev_orientMir_090.png","angry","1","05","05","cividis","orientMir","scaleRev","090","",""
"","","","","","html-slider-response","116","401549","0.0-110.0","4bangbs55f","61","NaN","<div style=""width:500px;"">
                            <p style=""font-size:50px; font-weight:bold;""
                            >angry</p>
                            <div style=""width:240px; margin: auto;"">
                                <img src=""images/map12_PuRd_scaleRev_orientDef_090.png"" style= ""width:200px""alt=""img"">
                            </div>
                        </div>","-42","","0","","","","images/map12_PuRd_scaleRev_orientDef_090.png","angry","1","12","12","PuRd","orientDef","scaleRev","090","",""
"","","","","","html-slider-response","117","403114","0.0-111.0","4bangbs55f","61","NaN","<div style=""width:500px;"">
                            <p style=""font-size:50px; font-weight:bold;""
                            >angry</p>
                            <div style=""width:240px; margin: auto;"">
                                <img src=""images/map15_BrBG_scaleRev_orientMir_270.png"" style= ""width:200px""alt=""img"">
                            </div>
                        </div>","-63","","0","","","","images/map15_BrBG_scaleRev_orientMir_270.png","angry","1","15","15","BrBG","orientMir","scaleRev","270","",""
"","","","","","html-slider-response","118","404716","0.0-112.0","4bangbs55f","61","NaN","<div style=""width:500px;"">
                            <p style=""font-size:50px; font-weight:bold;""
                            >angry</p>
                            <div style=""width:240px; margin: auto;"">
                                <img src=""images/map26_RdYlGn_scaleDef_orientDef_000.png"" style= ""width:200px""alt=""img"">
                            </div>
                        </div>","-121","","0","","","","images/map26_RdYlGn_scaleDef_orientDef_000.png","angry","1","26","26","RdYlGn","orientDef","scaleDef","000","",""
"","","","","","html-slider-response","119","406249","0.0-113.0","4bangbs55f","61","NaN","<div style=""width:500px;"">
                            <p style=""font-size:50px; font-weight:bold;""
                            >angry</p>
                            <div style=""width:240px; margin: auto;"">
                                <img src=""images/map26_coolwarm_scaleDef_orientMir_000.png"" style= ""width:200px""alt=""img"">
                            </div>
                        </div>","-114","","0","","","","images/map26_coolwarm_scaleDef_orientMir_000.png","angry","1","26","26","coolwarm","orientMir","scaleDef","000","",""
"","","","","","html-slider-response","120","408634","0.0-114.0","4bangbs55f","61","NaN","<div style=""width:500px;"">
                            <p style=""font-size:50px; font-weight:bold;""
                            >angry</p>
                            <div style=""width:240px; margin: auto;"">
                                <img src=""images/map07_Purples_scaleRev_orientDef_090.png"" style= ""width:200px""alt=""img"">
                            </div>
                        </div>","-60","","0","","","","images/map07_Purples_scaleRev_orientDef_090.png","angry","1","07","07","Purples","orientDef","scaleRev","090","",""
"","","","","","html-slider-response","121","411030","0.0-115.0","4bangbs55f","61","NaN","<div style=""width:500px;"">
                            <p style=""font-size:50px; font-weight:bold;""
                            >angry</p>
                            <div style=""width:240px; margin: auto;"">
                                <img src=""images/map05_inferno_scaleDef_orientDef_000.png"" style= ""width:200px""alt=""img"">
                            </div>
                        </div>","200","","0","","","","images/map05_inferno_scaleDef_orientDef_000.png","angry","1","05","05","inferno","orientDef","scaleDef","000","",""
"","","","","","html-slider-response","122","412816","0.0-116.0","4bangbs55f","61","NaN","<div style=""width:500px;"">
                            <p style=""font-size:50px; font-weight:bold;""
                            >angry</p>
                            <div style=""width:240px; margin: auto;"">
                                <img src=""images/map12_PuRd_scaleDef_orientDef_000.png"" style= ""width:200px""alt=""img"">
                            </div>
                        </div>","-93","","0","","","","images/map12_PuRd_scaleDef_orientDef_000.png","angry","1","12","12","PuRd","orientDef","scaleDef","000","",""
"","","","","","html-slider-response","123","414416","0.0-117.0","4bangbs55f","61","NaN","<div style=""width:500px;"">
                            <p style=""font-size:50px; font-weight:bold;""
                            >angry</p>
                            <div style=""width:240px; margin: auto;"">
                                <img src=""images/map10_OrRd_scaleDef_orientMir_180.png"" style= ""width:200px""alt=""img"">
                            </div>
                        </div>","148","","0","","","","images/map10_OrRd_scaleDef_orientMir_180.png","angry","1","10","10","OrRd","orientMir","scaleDef","180","",""
"","","","","","html-slider-response","124","416282","0.0-118.0","4bangbs55f","61","NaN","<div style=""width:500px;"">
                            <p style=""font-size:50px; font-weight:bold;""
                            >angry</p>
                            <div style=""width:240px; margin: auto;"">
                                <img src=""images/map26_bwr_scaleRev_orientMir_270.png"" style= ""width:200px""alt=""img"">
                            </div>
                        </div>","-31","","0","","","","images/map26_bwr_scaleRev_orientMir_270.png","angry","1","26","26","bwr","orientMir","scaleRev","270","",""
"","","","","","html-slider-response","125","417915","0.0-119.0","4bangbs55f","61","NaN","<div style=""width:500px;"">
                            <p style=""font-size:50px; font-weight:bold;""
                            >angry</p>
                            <div style=""width:240px; margin: auto;"">
                                <img src=""images/map12_GnBu_scaleRev_orientMir_270.png"" style= ""width:200px""alt=""img"">
                            </div>
                        </div>","-30","","0","","","","images/map12_GnBu_scaleRev_orientMir_270.png","angry","1","12","12","GnBu","orientMir","scaleRev","270","",""
"","","","","","html-slider-response","126","419233","0.0-120.0","4bangbs55f","61","NaN","<div style=""width:500px;"">
                            <p style=""font-size:50px; font-weight:bold;""
                            >angry</p>
                            <div style=""width:240px; margin: auto;"">
                                <img src=""images/map02_turbo_scaleDef_orientDef_180.png"" style= ""width:200px""alt=""img"">
                            </div>
                        </div>","-69","","0","","","","images/map02_turbo_scaleDef_orientDef_180.png","angry","1","02","02","turbo","orientDef","scaleDef","180","",""
"","","","","","html-slider-response","127","421016","0.0-121.0","4bangbs55f","61","NaN","<div style=""width:500px;"">
                            <p style=""font-size:50px; font-weight:bold;""
                            >angry</p>
                            <div style=""width:240px; margin: auto;"">
                                <img src=""images/map02_plasma_scaleRev_orientMir_270.png"" style= ""width:200px""alt=""img"">
                            </div>
                        </div>","142","","0","","","","images/map02_plasma_scaleRev_orientMir_270.png","angry","1","02","02","plasma","orientMir","scaleRev","270","",""
"","","","","","html-slider-response","128","422516","0.0-122.0","4bangbs55f","61","NaN","<div style=""width:500px;"">
                            <p style=""font-size:50px; font-weight:bold;""
                            >angry</p>
                            <div style=""width:240px; margin: auto;"">
                                <img src=""images/map15_YlGn_scaleRev_orientDef_090.png"" style= ""width:200px""alt=""img"">
                            </div>
                        </div>","-58","","0","","","","images/map15_YlGn_scaleRev_orientDef_090.png","angry","1","15","15","YlGn","orientDef","scaleRev","090","",""
"","","","","","html-slider-response","129","424082","0.0-123.0","4bangbs55f","61","NaN","<div style=""width:500px;"">
                            <p style=""font-size:50px; font-weight:bold;""
                            >angry</p>
                            <div style=""width:240px; margin: auto;"">
                                <img src=""images/map05_magma_scaleRev_orientDef_270.png"" style= ""width:200px""alt=""img"">
                            </div>
                        </div>","131","","0","","","","images/map05_magma_scaleRev_orientDef_270.png","angry","1","05","05","magma","orientDef","scaleRev","270","",""
"","","","","","html-slider-response","130","425616","0.0-124.0","4bangbs55f","61","NaN","<div style=""width:500px;"">
                            <p style=""font-size:50px; font-weight:bold;""
                            >angry</p>
                            <div style=""width:240px; margin: auto;"">
                                <img src=""images/map13_PuBu_scaleRev_orientDef_090.png"" style= ""width:200px""alt=""img"">
                            </div>
                        </div>","-74","","0","","","","images/map13_PuBu_scaleRev_orientDef_090.png","angry","1","13","13","PuBu","orientDef","scaleRev","090","",""
"","","","","","html-slider-response","131","427465","0.0-125.0","4bangbs55f","61","NaN","<div style=""width:500px;"">
                            <p style=""font-size:50px; font-weight:bold;""
                            >angry</p>
                            <div style=""width:240px; margin: auto;"">
                                <img src=""images/map23_PuOr_scaleDef_orientDef_000.png"" style= ""width:200px""alt=""img"">
                            </div>
                        </div>","-55","","0","","","","images/map23_PuOr_scaleDef_orientDef_000.png","angry","1","23","23","PuOr","orientDef","scaleDef","000","",""
"","","","","","html-slider-response","132","429533","0.0-126.0","4bangbs55f","61","NaN","<div style=""width:500px;"">
                            <p style=""font-size:50px; font-weight:bold;""
                            >angry</p>
                            <div style=""width:240px; margin: auto;"">
                                <img src=""images/map27_berlin_scaleDef_orientDef_180.png"" style= ""width:200px""alt=""img"">
                            </div>
                        </div>","90","","0","","","","images/map27_berlin_scaleDef_orientDef_180.png","angry","1","27","27","berlin","orientDef","scaleDef","180","",""
"","","","","","html-slider-response","133","431849","0.0-127.0","4bangbs55f","61","NaN","<div style=""width:500px;"">
                            <p style=""font-size:50px; font-weight:bold;""
                            >angry</p>
                            <div style=""width:240px; margin: auto;"">
                                <img src=""images/map12_BuPu_scaleDef_orientMir_000.png"" style= ""width:200px""alt=""img"">
                            </div>
                        </div>","-57","","0","","","","images/map12_BuPu_scaleDef_orientMir_000.png","angry","1","12","12","BuPu","orientMir","scaleDef","000","",""
"","","","","","html-slider-response","134","433566","0.0-128.0","4bangbs55f","61","NaN","<div style=""width:500px;"">
                            <p style=""font-size:50px; font-weight:bold;""
                            >angry</p>
                            <div style=""width:240px; margin: auto;"">
                                <img src=""images/map27_managua_scaleRev_orientMir_090.png"" style= ""width:200px""alt=""img"">
                            </div>
                        </div>","53","","0","","","","images/map27_managua_scaleRev_orientMir_090.png","angry","1","27","27","managua","orientMir","scaleRev","090","",""
"","","","","","html-slider-response","135","435448","0.0-129.0","4bangbs55f","61","NaN","<div style=""width:500px;"">
                            <p style=""font-size:50px; font-weight:bold;""
                            >angry</p>
                            <div style=""width:240px; margin: auto;"">
                                <img src=""images/map23_RdGy_scaleDef_orientDef_180.png"" style= ""width:200px""alt=""img"">
                            </div>
                        </div>","75","","0","","","","images/map23_RdGy_scaleDef_orientDef_180.png","angry","1","23","23","RdGy","orientDef","scaleDef","180","",""
"","","","","","html-slider-response","136","437415","0.0-130.0","4bangbs55f","61","NaN","<div style=""width:500px;"">
                            <p style=""font-size:50px; font-weight:bold;""
                            >angry</p>
                            <div style=""width:240px; margin: auto;"">
                                <img src=""images/map26_Spectral_scaleRev_orientDef_270.png"" style= ""width:200px""alt=""img"">
                            </div>
                        </div>","135","","0","","","","images/map26_Spectral_scaleRev_orientDef_270.png","angry","1","26","26","Spectral","orientDef","scaleRev","270","",""
"","","","","","html-slider-response","137","438866","0.0-131.0","4bangbs55f","61","NaN","<div style=""width:500px;"">
                            <p style=""font-size:50px; font-weight:bold;""
                            >angry</p>
                            <div style=""width:240px; margin: auto;"">
                                <img src=""images/map27_vanimo_scaleRev_orientMir_270.png"" style= ""width:200px""alt=""img"">
                            </div>
                        </div>","118","","0","","","","images/map27_vanimo_scaleRev_orientMir_270.png","angry","1","27","27","vanimo","orientMir","scaleRev","270","",""
"","","","","","html-slider-response","138","440649","0.0-132.0","4bangbs55f","61","NaN","<div style=""width:500px;"">
                            <p style=""font-size:50px; font-weight:bold;""
                            >angry</p>
                            <div style=""width:240px; margin: auto;"">
                                <img src=""images/map13_YlGnBu_scaleDef_orientDef_180.png"" style= ""width:200px""alt=""img"">
                            </div>
                        </div>","-50","","0","","","","images/map13_YlGnBu_scaleDef_orientDef_180.png","angry","1","13","13","YlGnBu","orientDef","scaleDef","180","",""
"","","","","","html-slider-response","139","442216","0.0-133.0","4bangbs55f","61","NaN","<div style=""width:500px;"">
                            <p style=""font-size:50px; font-weight:bold;""
                            >angry</p>
                            <div style=""width:240px; margin: auto;"">
                                <img src=""images/map05_magma_scaleDef_orientDef_180.png"" style= ""width:200px""alt=""img"">
                            </div>
                        </div>","106","","0","","","","images/map05_magma_scaleDef_orientDef_180.png","angry","1","05","05","magma","orientDef","scaleDef","180","",""
"","","","","","html-slider-response","140","444583","0.0-134.0","4bangbs55f","61","NaN","<div style=""width:500px;"">
                            <p style=""font-size:50px; font-weight:bold;""
                            >angry</p>
                            <div style=""width:240px; margin: auto;"">
                                <img src=""images/map13_PuBuGn_scaleDef_orientMir_000.png"" style= ""width:200px""alt=""img"">
                            </div>
                        </div>","-117","","0","","","","images/map13_PuBuGn_scaleDef_orientMir_000.png","angry","1","13","13","PuBuGn","orientMir","scaleDef","000","",""
"","","","","","html-slider-response","141","445697","0.0-135.0","4bangbs55f","61","NaN","<div style=""width:500px;"">
                            <p style=""font-size:50px; font-weight:bold;""
                            >angry</p>
                            <div style=""width:240px; margin: auto;"">
                                <img src=""images/map27_managua_scaleDef_orientMir_000.png"" style= ""width:200px""alt=""img"">
                            </div>
                        </div>","154","","0","","","","images/map27_managua_scaleDef_orientMir_000.png","angry","1","27","27","managua","orientMir","scaleDef","000","",""
"","","","","","html-slider-response","142","448299","0.0-136.0","4bangbs55f","61","NaN","<div style=""width:500px;"">
                            <p style=""font-size:50px; font-weight:bold;""
                            >angry</p>
                            <div style=""width:240px; margin: auto;"">
                                <img src=""images/map02_plasma_scaleDef_orientMir_180.png"" style= ""width:200px""alt=""img"">
                            </div>
                        </div>","200","","0","","","","images/map02_plasma_scaleDef_orientMir_180.png","angry","1","02","02","plasma","orientMir","scaleDef","180","",""
"","","","","","html-button-response","143","450622","0.0-137.0","4bangbs55f","61","1820","<p>You are doing great!<br></br> You are halway done with the current block. When you are ready to continue, click the 'Continue' button.</p>","0","","","","","","","","","","","","","","","",""
"","","","","","html-slider-response","144","452032","0.0-138.0","4bangbs55f","61","NaN","<div style=""width:500px;"">
                            <p style=""font-size:50px; font-weight:bold;""
                            >angry</p>
                            <div style=""width:240px; margin: auto;"">
                                <img src=""images/map10_YlOrBr_scaleDef_orientDef_180.png"" style= ""width:200px""alt=""img"">
                            </div>
                        </div>","78","","0","","","","images/map10_YlOrBr_scaleDef_orientDef_180.png","angry","1","10","10","YlOrBr","orientDef","scaleDef","180","",""
"","","","","","html-slider-response","145","453216","0.0-139.0","4bangbs55f","61","NaN","<div style=""width:500px;"">
                            <p style=""font-size:50px; font-weight:bold;""
                            >angry</p>
                            <div style=""width:240px; margin: auto;"">
                                <img src=""images/map26_RdYlGn_scaleRev_orientDef_090.png"" style= ""width:200px""alt=""img"">
                            </div>
                        </div>","-115","","0","","","","images/map26_RdYlGn_scaleRev_orientDef_090.png","angry","1","26","26","RdYlGn","orientDef","scaleRev","090","",""
"","","","","","html-slider-response","146","454433","0.0-140.0","4bangbs55f","61","NaN","<div style=""width:500px;"">
                            <p style=""font-size:50px; font-weight:bold;""
                            >angry</p>
                            <div style=""width:240px; margin: auto;"">
                                <img src=""images/map10_Reds_scaleDef_orientDef_000.png"" style= ""width:200px""alt=""img"">
                            </div>
                        </div>","164","","0","","","","images/map10_Reds_scaleDef_orientDef_000.png","angry","1","10","10","Reds","orientDef","scaleDef","000","",""
"","","","","","html-slider-response","147","455499","0.0-141.0","4bangbs55f","61","NaN","<div style=""width:500px;"">
                            <p style=""font-size:50px; font-weight:bold;""
                            >angry</p>
                            <div style=""width:240px; margin: auto;"">
                                <img src=""images/map02_gist_earth_scaleDef_orientDef_000.png"" style= ""width:200px""alt=""img"">
                            </div>
                        </div>","-124","","0","","","","images/map02_gist_earth_scaleDef_orientDef_000.png","angry","1","02","02","gist","scaleDef","earth","orientDef","",""
"","","","","","html-slider-response","148","456733","0.0-142.0","4bangbs55f","61","NaN","<div style=""width:500px;"">
                            <p style=""font-size:50px; font-weight:bold;""
                            >angry</p>
                            <div style=""width:240px; margin: auto;"">
                                <img src=""images/map23_PuOr_scaleRev_orientDef_090.png"" style= ""width:200px""alt=""img"">
                            </div>
                        </div>","-128","","0","","","","images/map23_PuOr_scaleRev_orientDef_090.png","angry","1","23","23","PuOr","orientDef","scaleRev","090","",""
"","","","","","html-slider-response","149","457982","0.0-143.0","4bangbs55f","61","NaN","<div style=""width:500px;"">
                            <p style=""font-size:50px; font-weight:bold;""
                            >angry</p>
                            <div style=""width:240px; margin: auto;"">
                                <img src=""images/map02_viridis_scaleDef_orientMir_000.png"" style= ""width:200px""alt=""img"">
                            </div>
                        </div>","-130","","0","","","","images/map02_viridis_scaleDef_orientMir_000.png","angry","1","02","02","viridis","orientMir","scaleDef","000","",""
"","","","","","html-slider-response","150","459098","0.0-144.0","4bangbs55f","61","NaN","<div style=""width:500px;"">
                            <p style=""font-size:50px; font-weight:bold;""
                            >angry</p>
                            <div style=""width:240px; margin: auto;"">
                                <img src=""images/map07_Greens_scaleRev_orientMir_090.png"" style= ""width:200px""alt=""img"">
                            </div>
                        </div>","-125","","0","","","","images/map07_Greens_scaleRev_orientMir_090.png","angry","1","07","07","Greens","orientMir","scaleRev","090","",""
"","","","","","html-slider-response","151","460966","0.0-145.0","4bangbs55f","61","NaN","<div style=""width:500px;"">
                            <p style=""font-size:50px; font-weight:bold;""
                            >angry</p>
                            <div style=""width:240px; margin: auto;"">
                                <img src=""images/map26_bwr_scaleDef_orientMir_180.png"" style= ""width:200px""alt=""img"">
                            </div>
                        </div>","90","","0","","","","images/map26_bwr_scaleDef_orientMir_180.png","angry","1","26","26","bwr","orientMir","scaleDef","180","",""
"","","","","","html-slider-response","152","462416","0.0-146.0","4bangbs55f","61","NaN","<div style=""width:500px;"">
                            <p style=""font-size:50px; font-weight:bold;""
                            >angry</p>
                            <div style=""width:240px; margin: auto;"">
                                <img src=""images/map05_cividis_scaleDef_orientMir_000.png"" style= ""width:200px""alt=""img"">
                            </div>
                        </div>","196","","0","","","","images/map05_cividis_scaleDef_orientMir_000.png","angry","1","05","05","cividis","orientMir","scaleDef","000","",""
"","","","","","html-slider-response","153","463832","0.0-147.0","4bangbs55f","61","NaN","<div style=""width:500px;"">
                            <p style=""font-size:50px; font-weight:bold;""
                            >angry</p>
                            <div style=""width:240px; margin: auto;"">
                                <img src=""images/map15_PiYG_scaleRev_orientDef_270.png"" style= ""width:200px""alt=""img"">
                            </div>
                        </div>","-127","","0","","","","images/map15_PiYG_scaleRev_orientDef_270.png","angry","1","15","15","PiYG","orientDef","scaleRev","270","",""
"","","","","","html-slider-response","154","465431","0.0-148.0","4bangbs55f","61","NaN","<div style=""width:500px;"">
                            <p style=""font-size:50px; font-weight:bold;""
                            >angry</p>
                            <div style=""width:240px; margin: auto;"">
                                <img src=""images/map07_Purples_scaleDef_orientDef_000.png"" style= ""width:200px""alt=""img"">
                            </div>
                        </div>","-194","","0","","","","images/map07_Purples_scaleDef_orientDef_000.png","angry","1","07","07","Purples","orientDef","scaleDef","000","",""
"","","","","","html-slider-response","155","466717","0.0-149.0","4bangbs55f","61","NaN","<div style=""width:500px;"">
                            <p style=""font-size:50px; font-weight:bold;""
                            >angry</p>
                            <div style=""width:240px; margin: auto;"">
                                <img src=""images/map26_Spectral_scaleDef_orientDef_180.png"" style= ""width:200px""alt=""img"">
                            </div>
                        </div>","-194","","0","","","","images/map26_Spectral_scaleDef_orientDef_180.png","angry","1","26","26","Spectral","orientDef","scaleDef","180","",""
"","","","","","html-slider-response","156","467866","0.0-150.0","4bangbs55f","61","NaN","<div style=""width:500px;"">
                            <p style=""font-size:50px; font-weight:bold;""
                            >angry</p>
                            <div style=""width:240px; margin: auto;"">
                                <img src=""images/map15_PRGn_scaleDef_orientMir_000.png"" style= ""width:200px""alt=""img"">
                            </div>
                        </div>","-130","","0","","","","images/map15_PRGn_scaleDef_orientMir_000.png","angry","1","15","15","PRGn","orientMir","scaleDef","000","",""
"","","","","","html-slider-response","157","469632","0.0-151.0","4bangbs55f","61","NaN","<div style=""width:500px;"">
                            <p style=""font-size:50px; font-weight:bold;""
                            >angry</p>
                            <div style=""width:240px; margin: auto;"">
                                <img src=""images/map10_OrRd_scaleRev_orientMir_270.png"" style= ""width:200px""alt=""img"">
                            </div>
                        </div>","85","","0","","","","images/map10_OrRd_scaleRev_orientMir_270.png","angry","1","10","10","OrRd","orientMir","scaleRev","270","",""
"","","","","","html-slider-response","158","472015","0.0-152.0","4bangbs55f","61","NaN","<div style=""width:500px;"">
                            <p style=""font-size:50px; font-weight:bold;""
                            >angry</p>
                            <div style=""width:240px; margin: auto;"">
                                <img src=""images/map27_berlin_scaleRev_orientDef_270.png"" style= ""width:200px""alt=""img"">
