"success","timeout","failed_images","failed_audio","failed_video","trial_type","trial_index","time_elapsed","internal_node_id","subject_id","condition_num","rt","stimulus","response","question_order","slider_start","practiceTrial","practiceTrialNum","correct","image_path","concept","repetition","map_id","map_num","scale_name","orientation_code","mapping_code","rotation_code","ishihara_plate","correct_response"
"true","false","[]","[]","[]","preload","0","2928","0.0-0.0","4hjz6gf53p","56","","","","","","","","","","","","","","","","","","",""
"","","","","","html-button-response","1","8589","0.0-1.0","4hjz6gf53p","56","5658","Welcome to our experiment!<p>At the bottom of this screen, you will see a button that says ""Begin Experiment"".<br>Please only click that button when you are ready to complete the 30 minute experiment in one sitting.</p><p> Once you click that button, it will not be possible to restart the experiment.","0","","","","","","","","","","","","","","","",""
"true","","","","","fullscreen","2","11786","0.0-2.0","4hjz6gf53p","56","2188","","","","","","","","","","","","","","","","","",""
"","","","","","survey-multi-select","3","23264","0.0-3.0","4hjz6gf53p","56","11471","","{""Consent"":[""<strong>I consent</strong>""]}","[0]","","","","","","","","","","","","","","",""
"","","","","","html-button-response","4","26148","0.0-4.0","4hjz6gf53p","56","2882","Welcome! <p> This experiment involves two parts: demographic information, followed by the experimental task.<p> It will take about 30 minutes to complete both parts.","0","","","","","","","","","","","","","","","",""
"","","","","","survey-text","5","38246","0.0-5.0","4hjz6gf53p","56","12049","","{""Age"":""18"",""Gender"":""Male"",""Race/ethnicity"":""White"",""Languages"":""English, Spanish""}","","","","","","","","","","","","","","","",""
"","","","","","html-slider-response","6","89420","0.0-6.0","4hjz6gf53p","56","51169","<div style='text-align:left; font-size:20px; line-height:25px; width: 1000px;'>
                                During this experiment you will be asked to rate how much you associate maps with                    different concepts.<br> Below, you can see some examples of the maps you will be asked to rate. Above the maps
                    is the list of concepts.<br>You will be asked                    to rate how much you associate each map with each concept on a scale from 'not at all' to 'very much' like the
                    one below. <br><br>
                    Now, please look at the list of concepts and maps. For each concept, think about the map you associate 'very
                    much' with the concept.<br>                     When you see that map during the experiment, please rate it near the 'very much' endpoint of the
                    scale.<br>Now, please think about which map you associate 'not at all'                     with each concept. When you see that map during the experiment, please rate it near the 'not at all' endpoint
                    of the scale.<br>
                    Please use the full range of the scale. That is, if a map is somewhat associated with the concept, you would
                    click partway between the middle point and right side of the scale.                    You will be asked to rate each map for a given concept before moving on to the next concept.<br>Press the
                    'Continue' button for instructions on how to use the slider.                    <br>
                </div>

                <div style=""width: 500px; margin: 0 auto;"">
                    <!-- Centered text paragraphs -->
                    <div style=""text-align: center; width: 500px;"">
                        <p style=""font-size:25px; line-height:15px;"">
                            happy&nbsp;&nbsp;&nbsp;&nbsp;
                            fearful&nbsp;&nbsp;&nbsp;&nbsp;
                            disgust&nbsp;&nbsp;&nbsp;&nbsp;
                            angry&nbsp;&nbsp;&nbsp;&nbsp;
                            sad
                        </p>
                        <!-- <p style=""font-size:20px; line-height:15px;"">fearful</p>
                        <p style=""font-size:20px;line-height:15px;"">disgust</p>
                        <p style=""font-size:20px;line-height:15px;"">angry</p>
                        <p style=""font-size:20px;line-height:15px;"">sad</p> -->
                    </div>
            

                    <!-- Grid section -->
                   <div style=""display: flex; justify-content: center; padding-top: 15px;"">
                    <div style=""display: grid; grid-template-columns: repeat(10, 55px); grid-gap: 5px; width: auto;"">
                        <img src=""images/map05_Reds_scaleDef_orientDef_090.png"" alt=""map"" style=""width: 100%;""><img src=""images/map05_OrRd_scaleDef_orientMir_270.png"" alt=""map"" style=""width: 100%;""><img src=""images/map10_YlGnBu_scaleRev_orientMir_000.png"" alt=""map"" style=""width: 100%;""><img src=""images/map15_coolwarm_scaleDef_orientMir_090.png"" alt=""map"" style=""width: 100%;""><img src=""images/map27_cividis_scaleRev_orientMir_180.png"" alt=""map"" style=""width: 100%;""><img src=""images/map07_GnBu_scaleDef_orientMir_270.png"" alt=""map"" style=""width: 100%;""><img src=""images/map12_PRGn_scaleDef_orientMir_090.png"" alt=""map"" style=""width: 100%;""><img src=""images/map23_seismic_scaleRev_orientDef_180.png"" alt=""map"" style=""width: 100%;""><img src=""images/map12_YlGn_scaleDef_orientDef_090.png"" alt=""map"" style=""width: 100%;""><img src=""images/map13_PuOr_scaleRev_orientDef_180.png"" alt=""map"" style=""width: 100%;""><img src=""images/map15_RdYlGn_scaleRev_orientDef_180.png"" alt=""map"" style=""width: 100%;""><img src=""images/map27_plasma_scaleRev_orientDef_000.png"" alt=""map"" style=""width: 100%;""><img src=""images/map23_managua_scaleRev_orientMir_180.png"" alt=""map"" style=""width: 100%;""><img src=""images/map05_YlOrRd_scaleDef_orientMir_090.png"" alt=""map"" style=""width: 100%;""><img src=""images/map07_RdPu_scaleDef_orientDef_270.png"" alt=""map"" style=""width: 100%;""><img src=""images/map12_PiYG_scaleDef_orientDef_270.png"" alt=""map"" style=""width: 100%;""><img src=""images/map23_berlin_scaleDef_orientDef_270.png"" alt=""map"" style=""width: 100%;""><img src=""images/map05_YlOrBr_scaleDef_orientDef_270.png"" alt=""map"" style=""width: 100%;""><img src=""images/map07_PuRd_scaleDef_orientDef_090.png"" alt=""map"" style=""width: 100%;""><img src=""images/map26_vanimo_scaleRev_orientDef_000.png"" alt=""map"" style=""width: 100%;""><img src=""images/map27_magma_scaleRev_orientMir_000.png"" alt=""map"" style=""width: 100%;""><img src=""images/map26_turbo_scaleDef_orientDef_270.png"" alt=""map"" style=""width: 100%;""><img src=""images/map26_viridis_scaleRev_orientMir_180.png"" alt=""map"" style=""width: 100%;""><img src=""images/map07_BuPu_scaleRev_orientMir_180.png"" alt=""map"" style=""width: 100%;""><img src=""images/map10_PuBuGn_scaleDef_orientMir_090.png"" alt=""map"" style=""width: 100%;""><img src=""images/map13_RdYlBu_scaleDef_orientMir_270.png"" alt=""map"" style=""width: 100%;""><img src=""images/map02_Greens_scaleRev_orientMir_180.png"" alt=""map"" style=""width: 100%;""><img src=""images/map15_Spectral_scaleRev_orientMir_000.png"" alt=""map"" style=""width: 100%;""><img src=""images/map13_RdGy_scaleDef_orientDef_270.png"" alt=""map"" style=""width: 100%;""><img src=""images/map02_Purples_scaleDef_orientDef_090.png"" alt=""map"" style=""width: 100%;""><img src=""images/map27_Greys_scaleDef_orientMir_270.png"" alt=""map"" style=""width: 100%;""><img src=""images/map02_Blues_scaleRev_orientMir_000.png"" alt=""map"" style=""width: 100%;""><img src=""images/map15_bwr_scaleDef_orientMir_270.png"" alt=""map"" style=""width: 100%;""><img src=""images/map13_BrBG_scaleRev_orientDef_000.png"" alt=""map"" style=""width: 100%;""><img src=""images/map27_inferno_scaleDef_orientDef_090.png"" alt=""map"" style=""width: 100%;""><img src=""images/map13_RdBu_scaleDef_orientMir_090.png"" alt=""map"" style=""width: 100%;""><img src=""images/map26_gist_earth_scaleDef_orientDef_090.png"" alt=""map"" style=""width: 100%;""><img src=""images/map12_BuGn_scaleRev_orientDef_000.png"" alt=""map"" style=""width: 100%;""><img src=""images/map05_Oranges_scaleRev_orientDef_000.png"" alt=""map"" style=""width: 100%;""><img src=""images/map10_PuBu_scaleRev_orientDef_180.png"" alt=""map"" style=""width: 100%;"">
                    </div>
                </div>

                    <!-- Clear floats -->
                    <div style=""clear: both;""></div>
                </div>
                            ","67","","0","true","","","","","","","","","","","","",""
"","","","","","html-button-response","7","99186","0.0-7.0","4hjz6gf53p","56","9763","<div style=""width:800px;""><p style=""text-align:left"">To move the slider, click and drag your cursor to the location of the scale where you would like to make your rating and then let go. When you let go of the slider, your response will be recorded and the next trial will begin. <br>
                    We are interested in your initial impressions of each map for the given concept, so please go with your first intuition. <br>
                    Before you begin the experiment, there will be four training trials for you to practice using the scale. <br>
                     When you are ready to start the training trials, please click ""Continue"".</p><br></div>","0","","","","","","","","","","","","","","","",""
"","","","","","html-slider-response","8","102275","0.0-8.0-0.0","4hjz6gf53p","56","NaN","<div style=""width:500px;"">
                                    <p style=""font-size:25px;"">Please move the slider all the way to the <br> right endpoint of the scale</p>

                                    </div>
                                </div>","200","","0","true","0","true","","","","","","","","","","",""
"","","","","","html-button-response","9","104100","0.0-8.0-1.0","4hjz6gf53p","56","1312","<p align='center'><b>Good job!</b> Click on 'Continue' to proceed.</p>","0","","","","","","","","","","","","","","","",""
"","","","","","html-slider-response","10","106239","0.0-9.0-0.0","4hjz6gf53p","56","NaN","<div style=""width:500px;"">
                                    <p style=""font-size:25px;"">Please move the slider all the way to the <br> left endpoint of the scale</p>

                                    </div>
                                </div>","-200","","0","true","1","true","","","","","","","","","","",""
"","","","","","html-button-response","11","107411","0.0-9.0-1.0","4hjz6gf53p","56","668","<p align='center'><b>Good job!</b> Click on 'Continue' to proceed.</p>","0","","","","","","","","","","","","","","","",""
"","","","","","html-slider-response","12","110755","0.0-10.0-0.0","4hjz6gf53p","56","NaN","<div style=""width:500px;"">
                                    <p style=""font-size:25px;"">Please move the slider halfway between the center and right endpoint of the scale</p>

                                    </div>
                                </div>","108","","0","true","2","true","","","","","","","","","","",""
"","","","","","html-button-response","13","111960","0.0-10.0-1.0","4hjz6gf53p","56","698","<p align='center'><b>Good job!</b> Click on 'Continue' to proceed.</p>","0","","","","","","","","","","","","","","","",""
"","","","","","html-slider-response","14","115359","0.0-11.0-0.0","4hjz6gf53p","56","NaN","<div style=""width:500px;"">
                                    <p style=""font-size:25px;"">Please move the slider halfway between the center and left endpoint of the scale</p>

                                    </div>
                                </div>","-109","","0","true","3","true","","","","","","","","","","",""
"","","","","","html-button-response","15","116757","0.0-11.0-1.0","4hjz6gf53p","56","888","<p align='center'><b>Good job!</b> Click on 'Continue' to proceed.</p>","0","","","","","","","","","","","","","","","",""
"","","","","","html-button-response","16","118220","0.0-12.0","4hjz6gf53p","56","1462","<p>Great job! You've completed the practice trials. Now you will begin the main task.</p>","0","","","","","","","","","","","","","","","",""
"","","","","","html-button-response","17","121662","0.0-13.0","4hjz6gf53p","56","3439","<p>In this block of trials, you will be asked to rate how much you associate each map with:</p > <p style = 'font-size:150%; font-weight: bold'>happy</p><br></br>","0","","","","","","","","","","","","","","","",""
"","","","","","html-slider-response","18","124705","0.0-14.0","4hjz6gf53p","56","NaN","<div style=""width:500px;"">
                            <p style=""font-size:50px; font-weight:bold;""
                            >happy</p>
                            <div style=""width:240px; margin: auto;"">
                                <img src=""images/map15_bwr_scaleDef_orientMir_270.png"" style= ""width:200px""alt=""img"">
                            </div>
                        </div>","78","","0","","","","images/map15_bwr_scaleDef_orientMir_270.png","happy","1","15","15","bwr","orientMir","scaleDef","270","",""
"","","","","","html-slider-response","19","127491","0.0-15.0","4hjz6gf53p","56","NaN","<div style=""width:500px;"">
                            <p style=""font-size:50px; font-weight:bold;""
                            >happy</p>
                            <div style=""width:240px; margin: auto;"">
                                <img src=""images/map10_GnBu_scaleRev_orientDef_000.png"" style= ""width:200px""alt=""img"">
                            </div>
                        </div>","200","","0","","","","images/map10_GnBu_scaleRev_orientDef_000.png","happy","1","10","10","GnBu","orientDef","scaleRev","000","",""
"","","","","","html-slider-response","20","130774","0.0-16.0","4hjz6gf53p","56","NaN","<div style=""width:500px;"">
                            <p style=""font-size:50px; font-weight:bold;""
                            >happy</p>
                            <div style=""width:240px; margin: auto;"">
                                <img src=""images/map05_Reds_scaleDef_orientDef_090.png"" style= ""width:200px""alt=""img"">
                            </div>
                        </div>","-115","","0","","","","images/map05_Reds_scaleDef_orientDef_090.png","happy","1","05","05","Reds","orientDef","scaleDef","090","",""
"","","","","","html-slider-response","21","133574","0.0-17.0","4hjz6gf53p","56","NaN","<div style=""width:500px;"">
                            <p style=""font-size:50px; font-weight:bold;""
                            >happy</p>
                            <div style=""width:240px; margin: auto;"">
                                <img src=""images/map07_GnBu_scaleDef_orientMir_270.png"" style= ""width:200px""alt=""img"">
                            </div>
                        </div>","99","","0","","","","images/map07_GnBu_scaleDef_orientMir_270.png","happy","1","07","07","GnBu","orientMir","scaleDef","270","",""
"","","","","","html-slider-response","22","135851","0.0-18.0","4hjz6gf53p","56","NaN","<div style=""width:500px;"">
                            <p style=""font-size:50px; font-weight:bold;""
                            >happy</p>
                            <div style=""width:240px; margin: auto;"">
                                <img src=""images/map02_Greens_scaleDef_orientMir_090.png"" style= ""width:200px""alt=""img"">
                            </div>
                        </div>","146","","0","","","","images/map02_Greens_scaleDef_orientMir_090.png","happy","1","02","02","Greens","orientMir","scaleDef","090","",""
"","","","","","html-slider-response","23","138425","0.0-19.0","4hjz6gf53p","56","NaN","<div style=""width:500px;"">
                            <p style=""font-size:50px; font-weight:bold;""
                            >happy</p>
                            <div style=""width:240px; margin: auto;"">
                                <img src=""images/map12_YlGn_scaleRev_orientDef_180.png"" style= ""width:200px""alt=""img"">
                            </div>
                        </div>","200","","0","","","","images/map12_YlGn_scaleRev_orientDef_180.png","happy","1","12","12","YlGn","orientDef","scaleRev","180","",""
"","","","","","html-slider-response","24","141779","0.0-20.0","4hjz6gf53p","56","NaN","<div style=""width:500px;"">
                            <p style=""font-size:50px; font-weight:bold;""
                            >happy</p>
                            <div style=""width:240px; margin: auto;"">
                                <img src=""images/map27_cividis_scaleRev_orientMir_180.png"" style= ""width:200px""alt=""img"">
                            </div>
                        </div>","-79","","0","","","","images/map27_cividis_scaleRev_orientMir_180.png","happy","1","27","27","cividis","orientMir","scaleRev","180","",""
"","","","","","html-slider-response","25","143984","0.0-21.0","4hjz6gf53p","56","NaN","<div style=""width:500px;"">
                            <p style=""font-size:50px; font-weight:bold;""
                            >happy</p>
                            <div style=""width:240px; margin: auto;"">
                                <img src=""images/map27_magma_scaleDef_orientDef_270.png"" style= ""width:200px""alt=""img"">
                            </div>
                        </div>","-195","","0","","","","images/map27_magma_scaleDef_orientDef_270.png","happy","1","27","27","magma","orientDef","scaleDef","270","",""
"","","","","","html-slider-response","26","146349","0.0-22.0","4hjz6gf53p","56","NaN","<div style=""width:500px;"">
                            <p style=""font-size:50px; font-weight:bold;""
                            >happy</p>
                            <div style=""width:240px; margin: auto;"">
                                <img src=""images/map13_RdBu_scaleDef_orientMir_090.png"" style= ""width:200px""alt=""img"">
                            </div>
                        </div>","-200","","0","","","","images/map13_RdBu_scaleDef_orientMir_090.png","happy","1","13","13","RdBu","orientMir","scaleDef","090","",""
"","","","","","html-slider-response","27","148630","0.0-23.0","4hjz6gf53p","56","NaN","<div style=""width:500px;"">
                            <p style=""font-size:50px; font-weight:bold;""
                            >happy</p>
                            <div style=""width:240px; margin: auto;"">
                                <img src=""images/map10_BuGn_scaleDef_orientMir_270.png"" style= ""width:200px""alt=""img"">
                            </div>
                        </div>","200","","0","","","","images/map10_BuGn_scaleDef_orientMir_270.png","happy","1","10","10","BuGn","orientMir","scaleDef","270","",""
"","","","","","html-slider-response","28","151019","0.0-24.0","4hjz6gf53p","56","NaN","<div style=""width:500px;"">
                            <p style=""font-size:50px; font-weight:bold;""
                            >happy</p>
                            <div style=""width:240px; margin: auto;"">
                                <img src=""images/map05_YlOrBr_scaleDef_orientDef_270.png"" style= ""width:200px""alt=""img"">
                            </div>
                        </div>","-200","","0","","","","images/map05_YlOrBr_scaleDef_orientDef_270.png","happy","1","05","05","YlOrBr","orientDef","scaleDef","270","",""
"","","","","","html-slider-response","29","153360","0.0-25.0","4hjz6gf53p","56","NaN","<div style=""width:500px;"">
                            <p style=""font-size:50px; font-weight:bold;""
                            >happy</p>
                            <div style=""width:240px; margin: auto;"">
                                <img src=""images/map27_Greys_scaleDef_orientMir_270.png"" style= ""width:200px""alt=""img"">
                            </div>
                        </div>","-200","","0","","","","images/map27_Greys_scaleDef_orientMir_270.png","happy","1","27","27","Greys","orientMir","scaleDef","270","",""
"","","","","","html-slider-response","30","155706","0.0-26.0","4hjz6gf53p","56","NaN","<div style=""width:500px;"">
                            <p style=""font-size:50px; font-weight:bold;""
                            >happy</p>
                            <div style=""width:240px; margin: auto;"">
                                <img src=""images/map13_RdGy_scaleDef_orientDef_270.png"" style= ""width:200px""alt=""img"">
                            </div>
                        </div>","-200","","0","","","","images/map13_RdGy_scaleDef_orientDef_270.png","happy","1","13","13","RdGy","orientDef","scaleDef","270","",""
"","","","","","html-slider-response","31","158646","0.0-27.0","4hjz6gf53p","56","NaN","<div style=""width:500px;"">
                            <p style=""font-size:50px; font-weight:bold;""
                            >happy</p>
                            <div style=""width:240px; margin: auto;"">
                                <img src=""images/map27_inferno_scaleDef_orientDef_090.png"" style= ""width:200px""alt=""img"">
                            </div>
                        </div>","-75","","0","","","","images/map27_inferno_scaleDef_orientDef_090.png","happy","1","27","27","inferno","orientDef","scaleDef","090","",""
"","","","","","html-slider-response","32","160726","0.0-28.0","4hjz6gf53p","56","NaN","<div style=""width:500px;"">
                            <p style=""font-size:50px; font-weight:bold;""
                            >happy</p>
                            <div style=""width:240px; margin: auto;"">
                                <img src=""images/map12_BuGn_scaleRev_orientDef_000.png"" style= ""width:200px""alt=""img"">
                            </div>
                        </div>","112","","0","","","","images/map12_BuGn_scaleRev_orientDef_000.png","happy","1","12","12","BuGn","orientDef","scaleRev","000","",""
"","","","","","html-slider-response","33","163643","0.0-29.0","4hjz6gf53p","56","NaN","<div style=""width:500px;"">
                            <p style=""font-size:50px; font-weight:bold;""
                            >happy</p>
                            <div style=""width:240px; margin: auto;"">
                                <img src=""images/map23_berlin_scaleRev_orientMir_000.png"" style= ""width:200px""alt=""img"">
                            </div>
                        </div>","-162","","0","","","","images/map23_berlin_scaleRev_orientMir_000.png","happy","1","23","23","berlin","orientMir","scaleRev","000","",""
"","","","","","html-slider-response","34","165786","0.0-30.0","4hjz6gf53p","56","NaN","<div style=""width:500px;"">
                            <p style=""font-size:50px; font-weight:bold;""
                            >happy</p>
                            <div style=""width:240px; margin: auto;"">
                                <img src=""images/map15_RdYlGn_scaleDef_orientDef_090.png"" style= ""width:200px""alt=""img"">
                            </div>
                        </div>","-97","","0","","","","images/map15_RdYlGn_scaleDef_orientDef_090.png","happy","1","15","15","RdYlGn","orientDef","scaleDef","090","",""
"","","","","","html-slider-response","35","168648","0.0-31.0","4hjz6gf53p","56","NaN","<div style=""width:500px;"">
                            <p style=""font-size:50px; font-weight:bold;""
                            >happy</p>
                            <div style=""width:240px; margin: auto;"">
                                <img src=""images/map12_PiYG_scaleDef_orientDef_270.png"" style= ""width:200px""alt=""img"">
                            </div>
                        </div>","146","","0","","","","images/map12_PiYG_scaleDef_orientDef_270.png","happy","1","12","12","PiYG","orientDef","scaleDef","270","",""
"","","","","","html-slider-response","36","171192","0.0-32.0","4hjz6gf53p","56","NaN","<div style=""width:500px;"">
                            <p style=""font-size:50px; font-weight:bold;""
                            >happy</p>
                            <div style=""width:240px; margin: auto;"">
                                <img src=""images/map02_Greens_scaleRev_orientMir_180.png"" style= ""width:200px""alt=""img"">
                            </div>
                        </div>","118","","0","","","","images/map02_Greens_scaleRev_orientMir_180.png","happy","1","02","02","Greens","orientMir","scaleRev","180","",""
"","","","","","html-slider-response","37","175092","0.0-33.0","4hjz6gf53p","56","NaN","<div style=""width:500px;"">
                            <p style=""font-size:50px; font-weight:bold;""
                            >happy</p>
                            <div style=""width:240px; margin: auto;"">
                                <img src=""images/map26_turbo_scaleRev_orientMir_000.png"" style= ""width:200px""alt=""img"">
                            </div>
                        </div>","-93","","0","","","","images/map26_turbo_scaleRev_orientMir_000.png","happy","1","26","26","turbo","orientMir","scaleRev","000","",""
"","","","","","html-slider-response","38","179007","0.0-34.0","4hjz6gf53p","56","NaN","<div style=""width:500px;"">
                            <p style=""font-size:50px; font-weight:bold;""
                            >happy</p>
                            <div style=""width:240px; margin: auto;"">
                                <img src=""images/map27_inferno_scaleRev_orientDef_180.png"" style= ""width:200px""alt=""img"">
                            </div>
                        </div>","-167","","0","","","","images/map27_inferno_scaleRev_orientDef_180.png","happy","1","27","27","inferno","orientDef","scaleRev","180","",""
"","","","","","html-slider-response","39","181379","0.0-35.0","4hjz6gf53p","56","NaN","<div style=""width:500px;"">
                            <p style=""font-size:50px; font-weight:bold;""
                            >happy</p>
                            <div style=""width:240px; margin: auto;"">
                                <img src=""images/map02_Blues_scaleDef_orientDef_270.png"" style= ""width:200px""alt=""img"">
                            </div>
                        </div>","123","","0","","","","images/map02_Blues_scaleDef_orientDef_270.png","happy","1","02","02","Blues","orientDef","scaleDef","270","",""
"","","","","","html-slider-response","40","184707","0.0-36.0","4hjz6gf53p","56","NaN","<div style=""width:500px;"">
                            <p style=""font-size:50px; font-weight:bold;""
                            >happy</p>
                            <div style=""width:240px; margin: auto;"">
                                <img src=""images/map26_plasma_scaleDef_orientMir_270.png"" style= ""width:200px""alt=""img"">
                            </div>
                        </div>","144","","0","","","","images/map26_plasma_scaleDef_orientMir_270.png","happy","1","26","26","plasma","orientMir","scaleDef","270","",""
"","","","","","html-slider-response","41","187457","0.0-37.0","4hjz6gf53p","56","NaN","<div style=""width:500px;"">
                            <p style=""font-size:50px; font-weight:bold;""
                            >happy</p>
                            <div style=""width:240px; margin: auto;"">
                                <img src=""images/map13_PuOr_scaleDef_orientDef_090.png"" style= ""width:200px""alt=""img"">
                            </div>
                        </div>","-118","","0","","","","images/map13_PuOr_scaleDef_orientDef_090.png","happy","1","13","13","PuOr","orientDef","scaleDef","090","",""
"","","","","","html-slider-response","42","189609","0.0-38.0","4hjz6gf53p","56","NaN","<div style=""width:500px;"">
                            <p style=""font-size:50px; font-weight:bold;""
                            >happy</p>
                            <div style=""width:240px; margin: auto;"">
                                <img src=""images/map12_YlGn_scaleDef_orientDef_090.png"" style= ""width:200px""alt=""img"">
                            </div>
                        </div>","147","","0","","","","images/map12_YlGn_scaleDef_orientDef_090.png","happy","1","12","12","YlGn","orientDef","scaleDef","090","",""
"","","","","","html-slider-response","43","192660","0.0-39.0","4hjz6gf53p","56","NaN","<div style=""width:500px;"">
                            <p style=""font-size:50px; font-weight:bold;""
                            >happy</p>
                            <div style=""width:240px; margin: auto;"">
                                <img src=""images/map12_PRGn_scaleRev_orientMir_180.png"" style= ""width:200px""alt=""img"">
                            </div>
                        </div>","130","","0","","","","images/map12_PRGn_scaleRev_orientMir_180.png","happy","1","12","12","PRGn","orientMir","scaleRev","180","",""
"","","","","","html-slider-response","44","195481","0.0-40.0","4hjz6gf53p","56","NaN","<div style=""width:500px;"">
                            <p style=""font-size:50px; font-weight:bold;""
                            >happy</p>
                            <div style=""width:240px; margin: auto;"">
                                <img src=""images/map27_cividis_scaleDef_orientMir_090.png"" style= ""width:200px""alt=""img"">
                            </div>
                        </div>","146","","0","","","","images/map27_cividis_scaleDef_orientMir_090.png","happy","1","27","27","cividis","orientMir","scaleDef","090","",""
"","","","","","html-slider-response","45","197526","0.0-41.0","4hjz6gf53p","56","NaN","<div style=""width:500px;"">
                            <p style=""font-size:50px; font-weight:bold;""
                            >happy</p>
                            <div style=""width:240px; margin: auto;"">
                                <img src=""images/map23_berlin_scaleDef_orientDef_270.png"" style= ""width:200px""alt=""img"">
                            </div>
                        </div>","-200","","0","","","","images/map23_berlin_scaleDef_orientDef_270.png","happy","1","23","23","berlin","orientDef","scaleDef","270","",""
"","","","","","html-slider-response","46","199713","0.0-42.0","4hjz6gf53p","56","NaN","<div style=""width:500px;"">
                            <p style=""font-size:50px; font-weight:bold;""
                            >happy</p>
                            <div style=""width:240px; margin: auto;"">
                                <img src=""images/map15_coolwarm_scaleDef_orientMir_090.png"" style= ""width:200px""alt=""img"">
                            </div>
                        </div>","-200","","0","","","","images/map15_coolwarm_scaleDef_orientMir_090.png","happy","1","15","15","coolwarm","orientMir","scaleDef","090","",""
"","","","","","html-slider-response","47","202352","0.0-43.0","4hjz6gf53p","56","NaN","<div style=""width:500px;"">
                            <p style=""font-size:50px; font-weight:bold;""
                            >happy</p>
                            <div style=""width:240px; margin: auto;"">
                                <img src=""images/map02_Oranges_scaleDef_orientMir_270.png"" style= ""width:200px""alt=""img"">
                            </div>
                        </div>","-131","","0","","","","images/map02_Oranges_scaleDef_orientMir_270.png","happy","1","02","02","Oranges","orientMir","scaleDef","270","",""
"","","","","","html-slider-response","48","204817","0.0-44.0","4hjz6gf53p","56","NaN","<div style=""width:500px;"">
                            <p style=""font-size:50px; font-weight:bold;""
                            >happy</p>
                            <div style=""width:240px; margin: auto;"">
                                <img src=""images/map07_BuPu_scaleRev_orientMir_180.png"" style= ""width:200px""alt=""img"">
                            </div>
                        </div>","111","","0","","","","images/map07_BuPu_scaleRev_orientMir_180.png","happy","1","07","07","BuPu","orientMir","scaleRev","180","",""
"","","","","","html-slider-response","49","207274","0.0-45.0","4hjz6gf53p","56","NaN","<div style=""width:500px;"">
                            <p style=""font-size:50px; font-weight:bold;""
                            >happy</p>
                            <div style=""width:240px; margin: auto;"">
                                <img src=""images/map12_PRGn_scaleDef_orientMir_090.png"" style= ""width:200px""alt=""img"">
                            </div>
                        </div>","123","","0","","","","images/map12_PRGn_scaleDef_orientMir_090.png","happy","1","12","12","PRGn","orientMir","scaleDef","090","",""
"","","","","","html-slider-response","50","211057","0.0-46.0","4hjz6gf53p","56","NaN","<div style=""width:500px;"">
                            <p style=""font-size:50px; font-weight:bold;""
                            >happy</p>
                            <div style=""width:240px; margin: auto;"">
                                <img src=""images/map10_PuBuGn_scaleRev_orientMir_180.png"" style= ""width:200px""alt=""img"">
                            </div>
                        </div>","-165","","0","","","","images/map10_PuBuGn_scaleRev_orientMir_180.png","happy","1","10","10","PuBuGn","orientMir","scaleRev","180","",""
"","","","","","html-slider-response","51","213680","0.0-47.0","4hjz6gf53p","56","NaN","<div style=""width:500px;"">
                            <p style=""font-size:50px; font-weight:bold;""
                            >happy</p>
                            <div style=""width:240px; margin: auto;"">
                                <img src=""images/map15_RdYlBu_scaleRev_orientDef_000.png"" style= ""width:200px""alt=""img"">
                            </div>
                        </div>","107","","0","","","","images/map15_RdYlBu_scaleRev_orientDef_000.png","happy","1","15","15","RdYlBu","orientDef","scaleRev","000","",""
"","","","","","html-slider-response","52","215892","0.0-48.0","4hjz6gf53p","56","NaN","<div style=""width:500px;"">
                            <p style=""font-size:50px; font-weight:bold;""
                            >happy</p>
                            <div style=""width:240px; margin: auto;"">
                                <img src=""images/map07_BuPu_scaleDef_orientMir_090.png"" style= ""width:200px""alt=""img"">
                            </div>
                        </div>","134","","0","","","","images/map07_BuPu_scaleDef_orientMir_090.png","happy","1","07","07","BuPu","orientMir","scaleDef","090","",""
"","","","","","html-slider-response","53","218217","0.0-49.0","4hjz6gf53p","56","NaN","<div style=""width:500px;"">
                            <p style=""font-size:50px; font-weight:bold;""
                            >happy</p>
                            <div style=""width:240px; margin: auto;"">
                                <img src=""images/map07_PuRd_scaleDef_orientDef_090.png"" style= ""width:200px""alt=""img"">
                            </div>
                        </div>","194","","0","","","","images/map07_PuRd_scaleDef_orientDef_090.png","happy","1","07","07","PuRd","orientDef","scaleDef","090","",""
"","","","","","html-slider-response","54","222150","0.0-50.0","4hjz6gf53p","56","NaN","<div style=""width:500px;"">
                            <p style=""font-size:50px; font-weight:bold;""
                            >happy</p>
                            <div style=""width:240px; margin: auto;"">
                                <img src=""images/map05_YlOrBr_scaleRev_orientMir_000.png"" style= ""width:200px""alt=""img"">
                            </div>
                        </div>","83","","0","","","","images/map05_YlOrBr_scaleRev_orientMir_000.png","happy","1","05","05","YlOrBr","orientMir","scaleRev","000","",""
"","","","","","html-slider-response","55","224249","0.0-51.0","4hjz6gf53p","56","NaN","<div style=""width:500px;"">
                            <p style=""font-size:50px; font-weight:bold;""
                            >happy</p>
                            <div style=""width:240px; margin: auto;"">
                                <img src=""images/map05_Reds_scaleRev_orientDef_180.png"" style= ""width:200px""alt=""img"">
                            </div>
                        </div>","158","","0","","","","images/map05_Reds_scaleRev_orientDef_180.png","happy","1","05","05","Reds","orientDef","scaleRev","180","",""
"","","","","","html-slider-response","56","227933","0.0-52.0","4hjz6gf53p","56","NaN","<div style=""width:500px;"">
                            <p style=""font-size:50px; font-weight:bold;""
                            >happy</p>
                            <div style=""width:240px; margin: auto;"">
                                <img src=""images/map02_Purples_scaleDef_orientDef_090.png"" style= ""width:200px""alt=""img"">
                            </div>
                        </div>","169","","0","","","","images/map02_Purples_scaleDef_orientDef_090.png","happy","1","02","02","Purples","orientDef","scaleDef","090","",""
"","","","","","html-slider-response","57","230109","0.0-53.0","4hjz6gf53p","56","NaN","<div style=""width:500px;"">
                            <p style=""font-size:50px; font-weight:bold;""
                            >happy</p>
                            <div style=""width:240px; margin: auto;"">
                                <img src=""images/map10_PuBu_scaleRev_orientDef_180.png"" style= ""width:200px""alt=""img"">
                            </div>
                        </div>","187","","0","","","","images/map10_PuBu_scaleRev_orientDef_180.png","happy","1","10","10","PuBu","orientDef","scaleRev","180","",""
"","","","","","html-button-response","58","232790","0.0-54.0","4hjz6gf53p","56","2171","<p>You are doing great!<br></br> You are halway done with the current block. When you are ready to continue, click the 'Continue' button.</p>","0","","","","","","","","","","","","","","","",""
"","","","","","html-slider-response","59","237286","0.0-55.0","4hjz6gf53p","56","NaN","<div style=""width:500px;"">
                            <p style=""font-size:50px; font-weight:bold;""
                            >happy</p>
                            <div style=""width:240px; margin: auto;"">
                                <img src=""images/map13_RdYlBu_scaleDef_orientMir_270.png"" style= ""width:200px""alt=""img"">
                            </div>
                        </div>","-121","","0","","","","images/map13_RdYlBu_scaleDef_orientMir_270.png","happy","1","13","13","RdYlBu","orientMir","scaleDef","270","",""
"","","","","","html-slider-response","60","239922","0.0-56.0","4hjz6gf53p","56","NaN","<div style=""width:500px;"">
                            <p style=""font-size:50px; font-weight:bold;""
                            >happy</p>
                            <div style=""width:240px; margin: auto;"">
                                <img src=""images/map27_magma_scaleRev_orientMir_000.png"" style= ""width:200px""alt=""img"">
                            </div>
                        </div>","-200","","0","","","","images/map27_magma_scaleRev_orientMir_000.png","happy","1","27","27","magma","orientMir","scaleRev","000","",""
"","","","","","html-slider-response","61","242160","0.0-57.0","4hjz6gf53p","56","NaN","<div style=""width:500px;"">
                            <p style=""font-size:50px; font-weight:bold;""
                            >happy</p>
                            <div style=""width:240px; margin: auto;"">
                                <img src=""images/map05_OrRd_scaleDef_orientMir_270.png"" style= ""width:200px""alt=""img"">
                            </div>
                        </div>","82","","0","","","","images/map05_OrRd_scaleDef_orientMir_270.png","happy","1","05","05","OrRd","orientMir","scaleDef","270","",""
"","","","","","html-slider-response","62","244471","0.0-58.0","4hjz6gf53p","56","NaN","<div style=""width:500px;"">
                            <p style=""font-size:50px; font-weight:bold;""
                            >happy</p>
                            <div style=""width:240px; margin: auto;"">
                                <img src=""images/map27_plasma_scaleRev_orientDef_000.png"" style= ""width:200px""alt=""img"">
                            </div>
                        </div>","-120","","0","","","","images/map27_plasma_scaleRev_orientDef_000.png","happy","1","27","27","plasma","orientDef","scaleRev","000","",""
"","","","","","html-slider-response","63","246845","0.0-59.0","4hjz6gf53p","56","NaN","<div style=""width:500px;"">
                            <p style=""font-size:50px; font-weight:bold;""
                            >happy</p>
                            <div style=""width:240px; margin: auto;"">
                                <img src=""images/map23_managua_scaleDef_orientMir_090.png"" style= ""width:200px""alt=""img"">
                            </div>
                        </div>","114","","0","","","","images/map23_managua_scaleDef_orientMir_090.png","happy","1","23","23","managua","orientMir","scaleDef","090","",""
"","","","","","html-slider-response","64","250792","0.0-60.0","4hjz6gf53p","56","NaN","<div style=""width:500px;"">
                            <p style=""font-size:50px; font-weight:bold;""
                            >happy</p>
                            <div style=""width:240px; margin: auto;"">
                                <img src=""images/map07_RdPu_scaleDef_orientDef_270.png"" style= ""width:200px""alt=""img"">
                            </div>
                        </div>","93","","0","","","","images/map07_RdPu_scaleDef_orientDef_270.png","happy","1","07","07","RdPu","orientDef","scaleDef","270","",""
"","","","","","html-slider-response","65","252789","0.0-61.0","4hjz6gf53p","56","NaN","<div style=""width:500px;"">
                            <p style=""font-size:50px; font-weight:bold;""
                            >happy</p>
                            <div style=""width:240px; margin: auto;"">
                                <img src=""images/map07_PuRd_scaleRev_orientDef_180.png"" style= ""width:200px""alt=""img"">
                            </div>
                        </div>","159","","0","","","","images/map07_PuRd_scaleRev_orientDef_180.png","happy","1","07","07","PuRd","orientDef","scaleRev","180","",""
"","","","","","html-slider-response","66","256292","0.0-62.0","4hjz6gf53p","56","NaN","<div style=""width:500px;"">
                            <p style=""font-size:50px; font-weight:bold;""
                            >happy</p>
                            <div style=""width:240px; margin: auto;"">
                                <img src=""images/map26_viridis_scaleDef_orientMir_090.png"" style= ""width:200px""alt=""img"">
                            </div>
                        </div>","-90","","0","","","","images/map26_viridis_scaleDef_orientMir_090.png","happy","1","26","26","viridis","orientMir","scaleDef","090","",""
"","","","","","html-slider-response","67","258376","0.0-63.0","4hjz6gf53p","56","NaN","<div style=""width:500px;"">
                            <p style=""font-size:50px; font-weight:bold;""
                            >happy</p>
                            <div style=""width:240px; margin: auto;"">
                                <img src=""images/map15_RdYlGn_scaleRev_orientDef_180.png"" style= ""width:200px""alt=""img"">
                            </div>
                        </div>","124","","0","","","","images/map15_RdYlGn_scaleRev_orientDef_180.png","happy","1","15","15","RdYlGn","orientDef","scaleRev","180","",""
"","","","","","html-slider-response","68","260587","0.0-64.0","4hjz6gf53p","56","NaN","<div style=""width:500px;"">
                            <p style=""font-size:50px; font-weight:bold;""
                            >happy</p>
                            <div style=""width:240px; margin: auto;"">
                                <img src=""images/map07_RdPu_scaleRev_orientMir_000.png"" style= ""width:200px""alt=""img"">
                            </div>
                        </div>","126","","0","","","","images/map07_RdPu_scaleRev_orientMir_000.png","happy","1","07","07","RdPu","orientMir","scaleRev","000","",""
"","","","","","html-slider-response","69","263166","0.0-65.0","4hjz6gf53p","56","NaN","<div style=""width:500px;"">
                            <p style=""font-size:50px; font-weight:bold;""
                            >happy</p>
                            <div style=""width:240px; margin: auto;"">
                                <img src=""images/map13_RdGy_scaleRev_orientMir_000.png"" style= ""width:200px""alt=""img"">
                            </div>
                        </div>","-200","","0","","","","images/map13_RdGy_scaleRev_orientMir_000.png","happy","1","13","13","RdGy","orientMir","scaleRev","000","",""
"","","","","","html-slider-response","70","265658","0.0-66.0","4hjz6gf53p","56","NaN","<div style=""width:500px;"">
                            <p style=""font-size:50px; font-weight:bold;""
                            >happy</p>
                            <div style=""width:240px; margin: auto;"">
                                <img src=""images/map26_turbo_scaleDef_orientDef_270.png"" style= ""width:200px""alt=""img"">
                            </div>
                        </div>","51","","0","","","","images/map26_turbo_scaleDef_orientDef_270.png","happy","1","26","26","turbo","orientDef","scaleDef","270","",""
"","","","","","html-slider-response","71","267989","0.0-67.0","4hjz6gf53p","56","NaN","<div style=""width:500px;"">
                            <p style=""font-size:50px; font-weight:bold;""
                            >happy</p>
                            <div style=""width:240px; margin: auto;"">
                                <img src=""images/map07_OrRd_scaleRev_orientDef_000.png"" style= ""width:200px""alt=""img"">
                            </div>
                        </div>","33","","0","","","","images/map07_OrRd_scaleRev_orientDef_000.png","happy","1","07","07","OrRd","orientDef","scaleRev","000","",""
"","","","","","html-slider-response","72","270141","0.0-68.0","4hjz6gf53p","56","NaN","<div style=""width:500px;"">
                            <p style=""font-size:50px; font-weight:bold;""
                            >happy</p>
                            <div style=""width:240px; margin: auto;"">
                                <img src=""images/map26_gist_earth_scaleDef_orientDef_090.png"" style= ""width:200px""alt=""img"">
                            </div>
                        </div>","30","","0","","","","images/map26_gist_earth_scaleDef_orientDef_090.png","happy","1","26","26","gist","scaleDef","earth","orientDef","",""
"","","","","","html-slider-response","73","272440","0.0-69.0","4hjz6gf53p","56","NaN","<div style=""width:500px;"">
                            <p style=""font-size:50px; font-weight:bold;""
                            >happy</p>
                            <div style=""width:240px; margin: auto;"">
                                <img src=""images/map02_Greys_scaleRev_orientDef_000.png"" style= ""width:200px""alt=""img"">
                            </div>
                        </div>","-181","","0","","","","images/map02_Greys_scaleRev_orientDef_000.png","happy","1","02","02","Greys","orientDef","scaleRev","000","",""
"","","","","","html-slider-response","74","274475","0.0-70.0","4hjz6gf53p","56","NaN","<div style=""width:500px;"">
                            <p style=""font-size:50px; font-weight:bold;""
                            >happy</p>
                            <div style=""width:240px; margin: auto;"">
                                <img src=""images/map15_coolwarm_scaleRev_orientMir_180.png"" style= ""width:200px""alt=""img"">
                            </div>
                        </div>","40","","0","","","","images/map15_coolwarm_scaleRev_orientMir_180.png","happy","1","15","15","coolwarm","orientMir","scaleRev","180","",""
"","","","","","html-slider-response","75","276959","0.0-71.0","4hjz6gf53p","56","NaN","<div style=""width:500px;"">
                            <p style=""font-size:50px; font-weight:bold;""
                            >happy</p>
                            <div style=""width:240px; margin: auto;"">
                                <img src=""images/map02_Blues_scaleRev_orientMir_000.png"" style= ""width:200px""alt=""img"">
                            </div>
                        </div>","154","","0","","","","images/map02_Blues_scaleRev_orientMir_000.png","happy","1","02","02","Blues","orientMir","scaleRev","000","",""
"","","","","","html-slider-response","76","279244","0.0-72.0","4hjz6gf53p","56","NaN","<div style=""width:500px;"">
                            <p style=""font-size:50px; font-weight:bold;""
                            >happy</p>
                            <div style=""width:240px; margin: auto;"">
                                <img src=""images/map10_PuBuGn_scaleDef_orientMir_090.png"" style= ""width:200px""alt=""img"">
                            </div>
                        </div>","172","","0","","","","images/map10_PuBuGn_scaleDef_orientMir_090.png","happy","1","10","10","PuBuGn","orientMir","scaleDef","090","",""
"","","","","","html-slider-response","77","283543","0.0-73.0","4hjz6gf53p","56","NaN","<div style=""width:500px;"">
                            <p style=""font-size:50px; font-weight:bold;""
                            >happy</p>
                            <div style=""width:240px; margin: auto;"">
                                <img src=""images/map23_vanimo_scaleDef_orientMir_270.png"" style= ""width:200px""alt=""img"">
                            </div>
                        </div>","-51","","0","","","","images/map23_vanimo_scaleDef_orientMir_270.png","happy","1","23","23","vanimo","orientMir","scaleDef","270","",""
"","","","","","html-slider-response","78","287016","0.0-74.0","4hjz6gf53p","56","NaN","<div style=""width:500px;"">
                            <p style=""font-size:50px; font-weight:bold;""
                            >happy</p>
                            <div style=""width:240px; margin: auto;"">
                                <img src=""images/map23_managua_scaleRev_orientMir_180.png"" style= ""width:200px""alt=""img"">
                            </div>
                        </div>","46","","0","","","","images/map23_managua_scaleRev_orientMir_180.png","happy","1","23","23","managua","orientMir","scaleRev","180","",""
"","","","","","html-slider-response","79","289216","0.0-75.0","4hjz6gf53p","56","NaN","<div style=""width:500px;"">
                            <p style=""font-size:50px; font-weight:bold;""
                            >happy</p>
                            <div style=""width:240px; margin: auto;"">
                                <img src=""images/map26_viridis_scaleRev_orientMir_180.png"" style= ""width:200px""alt=""img"">
                            </div>
                        </div>","94","","0","","","","images/map26_viridis_scaleRev_orientMir_180.png","happy","1","26","26","viridis","orientMir","scaleRev","180","",""
"","","","","","html-slider-response","80","290990","0.0-76.0","4hjz6gf53p","56","NaN","<div style=""width:500px;"">
                            <p style=""font-size:50px; font-weight:bold;""
                            >happy</p>
                            <div style=""width:240px; margin: auto;"">
                                <img src=""images/map10_YlGnBu_scaleDef_orientDef_270.png"" style= ""width:200px""alt=""img"">
                            </div>
                        </div>","198","","0","","","","images/map10_YlGnBu_scaleDef_orientDef_270.png","happy","1","10","10","YlGnBu","orientDef","scaleDef","270","",""
"","","","","","html-slider-response","81","294790","0.0-77.0","4hjz6gf53p","56","NaN","<div style=""width:500px;"">
                            <p style=""font-size:50px; font-weight:bold;""
                            >happy</p>
                            <div style=""width:240px; margin: auto;"">
                                <img src=""images/map05_YlOrRd_scaleDef_orientMir_090.png"" style= ""width:200px""alt=""img"">
                            </div>
                        </div>","147","","0","","","","images/map05_YlOrRd_scaleDef_orientMir_090.png","happy","1","05","05","YlOrRd","orientMir","scaleDef","090","",""
"","","","","","html-slider-response","82","297381","0.0-78.0","4hjz6gf53p","56","NaN","<div style=""width:500px;"">
                            <p style=""font-size:50px; font-weight:bold;""
                            >happy</p>
                            <div style=""width:240px; margin: auto;"">
                                <img src=""images/map15_Spectral_scaleDef_orientDef_270.png"" style= ""width:200px""alt=""img"">
                            </div>
                        </div>","-46","","0","","","","images/map15_Spectral_scaleDef_orientDef_270.png","happy","1","15","15","Spectral","orientDef","scaleDef","270","",""
"","","","","","html-slider-response","83","298875","0.0-79.0","4hjz6gf53p","56","NaN","<div style=""width:500px;"">
                            <p style=""font-size:50px; font-weight:bold;""
                            >happy</p>
                            <div style=""width:240px; margin: auto;"">
                                <img src=""images/map12_PiYG_scaleRev_orientMir_000.png"" style= ""width:200px""alt=""img"">
                            </div>
                        </div>","-54","","0","","","","images/map12_PiYG_scaleRev_orientMir_000.png","happy","1","12","12","PiYG","orientMir","scaleRev","000","",""
"","","","","","html-slider-response","84","301174","0.0-80.0","4hjz6gf53p","56","NaN","<div style=""width:500px;"">
                            <p style=""font-size:50px; font-weight:bold;""
                            >happy</p>
                            <div style=""width:240px; margin: auto;"">
                                <img src=""images/map12_BrBG_scaleDef_orientMir_270.png"" style= ""width:200px""alt=""img"">
                            </div>
                        </div>","-86","","0","","","","images/map12_BrBG_scaleDef_orientMir_270.png","happy","1","12","12","BrBG","orientMir","scaleDef","270","",""
"","","","","","html-slider-response","85","303376","0.0-81.0","4hjz6gf53p","56","NaN","<div style=""width:500px;"">
                            <p style=""font-size:50px; font-weight:bold;""
                            >happy</p>
                            <div style=""width:240px; margin: auto;"">
                                <img src=""images/map13_BrBG_scaleRev_orientDef_000.png"" style= ""width:200px""alt=""img"">
                            </div>
                        </div>","-103","","0","","","","images/map13_BrBG_scaleRev_orientDef_000.png","happy","1","13","13","BrBG","orientDef","scaleRev","000","",""
"","","","","","html-slider-response","86","305892","0.0-82.0","4hjz6gf53p","56","NaN","<div style=""width:500px;"">
                            <p style=""font-size:50px; font-weight:bold;""
                            >happy</p>
                            <div style=""width:240px; margin: auto;"">
                                <img src=""images/map13_RdBu_scaleRev_orientMir_180.png"" style= ""width:200px""alt=""img"">
                            </div>
                        </div>","98","","0","","","","images/map13_RdBu_scaleRev_orientMir_180.png","happy","1","13","13","RdBu","orientMir","scaleRev","180","",""
"","","","","","html-slider-response","87","309058","0.0-83.0","4hjz6gf53p","56","NaN","<div style=""width:500px;"">
                            <p style=""font-size:50px; font-weight:bold;""
                            >happy</p>
                            <div style=""width:240px; margin: auto;"">
                                <img src=""images/map23_seismic_scaleDef_orientDef_090.png"" style= ""width:200px""alt=""img"">
                            </div>
                        </div>","-45","","0","","","","images/map23_seismic_scaleDef_orientDef_090.png","happy","1","23","23","seismic","orientDef","scaleDef","090","",""
"","","","","","html-slider-response","88","311833","0.0-84.0","4hjz6gf53p","56","NaN","<div style=""width:500px;"">
                            <p style=""font-size:50px; font-weight:bold;""
                            >happy</p>
                            <div style=""width:240px; margin: auto;"">
                                <img src=""images/map10_YlGnBu_scaleRev_orientMir_000.png"" style= ""width:200px""alt=""img"">
                            </div>
                        </div>","96","","0","","","","images/map10_YlGnBu_scaleRev_orientMir_000.png","happy","1","10","10","YlGnBu","orientMir","scaleRev","000","",""
"","","","","","html-slider-response","89","313958","0.0-85.0","4hjz6gf53p","56","NaN","<div style=""width:500px;"">
                            <p style=""font-size:50px; font-weight:bold;""
                            >happy</p>
                            <div style=""width:240px; margin: auto;"">
                                <img src=""images/map02_Purples_scaleRev_orientDef_180.png"" style= ""width:200px""alt=""img"">
                            </div>
                        </div>","150","","0","","","","images/map02_Purples_scaleRev_orientDef_180.png","happy","1","02","02","Purples","orientDef","scaleRev","180","",""
"","","","","","html-slider-response","90","315860","0.0-86.0","4hjz6gf53p","56","NaN","<div style=""width:500px;"">
                            <p style=""font-size:50px; font-weight:bold;""
                            >happy</p>
                            <div style=""width:240px; margin: auto;"">
                                <img src=""images/map05_YlOrRd_scaleRev_orientMir_180.png"" style= ""width:200px""alt=""img"">
                            </div>
                        </div>","51","","0","","","","images/map05_YlOrRd_scaleRev_orientMir_180.png","happy","1","05","05","YlOrRd","orientMir","scaleRev","180","",""
"","","","","","html-slider-response","91","318290","0.0-87.0","4hjz6gf53p","56","NaN","<div style=""width:500px;"">
                            <p style=""font-size:50px; font-weight:bold;""
                            >happy</p>
                            <div style=""width:240px; margin: auto;"">
                                <img src=""images/map23_bwr_scaleRev_orientDef_000.png"" style= ""width:200px""alt=""img"">
                            </div>
                        </div>","-44","","0","","","","images/map23_bwr_scaleRev_orientDef_000.png","happy","1","23","23","bwr","orientDef","scaleRev","000","",""
"","","","","","html-slider-response","92","320592","0.0-88.0","4hjz6gf53p","56","NaN","<div style=""width:500px;"">
                            <p style=""font-size:50px; font-weight:bold;""
                            >happy</p>
                            <div style=""width:240px; margin: auto;"">
                                <img src=""images/map23_seismic_scaleRev_orientDef_180.png"" style= ""width:200px""alt=""img"">
                            </div>
                        </div>","-59","","0","","","","images/map23_seismic_scaleRev_orientDef_180.png","happy","1","23","23","seismic","orientDef","scaleRev","180","",""
"","","","","","html-slider-response","93","323943","0.0-89.0","4hjz6gf53p","56","NaN","<div style=""width:500px;"">
                            <p style=""font-size:50px; font-weight:bold;""
                            >happy</p>
                            <div style=""width:240px; margin: auto;"">
                                <img src=""images/map13_PuOr_scaleRev_orientDef_180.png"" style= ""width:200px""alt=""img"">
                            </div>
                        </div>","-51","","0","","","","images/map13_PuOr_scaleRev_orientDef_180.png","happy","1","13","13","PuOr","orientDef","scaleRev","180","",""
"","","","","","html-slider-response","94","327123","0.0-90.0","4hjz6gf53p","56","NaN","<div style=""width:500px;"">
                            <p style=""font-size:50px; font-weight:bold;""
                            >happy</p>
                            <div style=""width:240px; margin: auto;"">
                                <img src=""images/map05_Oranges_scaleRev_orientDef_000.png"" style= ""width:200px""alt=""img"">
                            </div>
                        </div>","53","","0","","","","images/map05_Oranges_scaleRev_orientDef_000.png","happy","1","05","05","Oranges","orientDef","scaleRev","000","",""
"","","","","","html-slider-response","95","330569","0.0-91.0","4hjz6gf53p","56","NaN","<div style=""width:500px;"">
                            <p style=""font-size:50px; font-weight:bold;""
                            >happy</p>
                            <div style=""width:240px; margin: auto;"">
                                <img src=""images/map26_gist_earth_scaleRev_orientDef_180.png"" style= ""width:200px""alt=""img"">
                            </div>
                        </div>","66","","0","","","","images/map26_gist_earth_scaleRev_orientDef_180.png","happy","1","26","26","gist","scaleRev","earth","orientDef","",""
"","","","","","html-slider-response","96","333370","0.0-92.0","4hjz6gf53p","56","NaN","<div style=""width:500px;"">
                            <p style=""font-size:50px; font-weight:bold;""
                            >happy</p>
                            <div style=""width:240px; margin: auto;"">
                                <img src=""images/map15_Spectral_scaleRev_orientMir_000.png"" style= ""width:200px""alt=""img"">
                            </div>
                        </div>","49","","0","","","","images/map15_Spectral_scaleRev_orientMir_000.png","happy","1","15","15","Spectral","orientMir","scaleRev","000","",""
"","","","","","html-slider-response","97","336133","0.0-93.0","4hjz6gf53p","56","NaN","<div style=""width:500px;"">
                            <p style=""font-size:50px; font-weight:bold;""
                            >happy</p>
                            <div style=""width:240px; margin: auto;"">
                                <img src=""images/map26_vanimo_scaleRev_orientDef_000.png"" style= ""width:200px""alt=""img"">
                            </div>
                        </div>","-72","","0","","","","images/map26_vanimo_scaleRev_orientDef_000.png","happy","1","26","26","vanimo","orientDef","scaleRev","000","",""
"","","","","","html-slider-response","98","338552","0.0-94.0","4hjz6gf53p","56","NaN","<div style=""width:500px;"">
                            <p style=""font-size:50px; font-weight:bold;""
                            >happy</p>
                            <div style=""width:240px; margin: auto;"">
                                <img src=""images/map10_PuBu_scaleDef_orientDef_090.png"" style= ""width:200px""alt=""img"">
                            </div>
                        </div>","164","","0","","","","images/map10_PuBu_scaleDef_orientDef_090.png","happy","1","10","10","PuBu","orientDef","scaleDef","090","",""
"","","","","","html-button-response","99","341043","0.0-95.0","4hjz6gf53p","56","1987","<p>Great Job! You've finished block 1.<br></br> You have 4 block(s) left to go.<br></br></p>","0","","","","","","","","","","","","","","","",""
"","","","","","html-button-response","100","342577","0.0-96.0","4hjz6gf53p","56","1533","<p>In this block of trials, you will be asked to rate how much you associate each map with:</p > <p style = 'font-size:150%; font-weight: bold'>fearful</p><br></br>","0","","","","","","","","","","","","","","","",""
"","","","","","html-slider-response","101","345994","0.0-97.0","4hjz6gf53p","56","NaN","<div style=""width:500px;"">
                            <p style=""font-size:50px; font-weight:bold;""
                            >fearful</p>
                            <div style=""width:240px; margin: auto;"">
                                <img src=""images/map10_BuGn_scaleDef_orientMir_270.png"" style= ""width:200px""alt=""img"">
                            </div>
                        </div>","-92","","0","","","","images/map10_BuGn_scaleDef_orientMir_270.png","fearful","1","10","10","BuGn","orientMir","scaleDef","270","",""
"","","","","","html-slider-response","102","348306","0.0-98.0","4hjz6gf53p","56","NaN","<div style=""width:500px;"">
                            <p style=""font-size:50px; font-weight:bold;""
                            >fearful</p>
                            <div style=""width:240px; margin: auto;"">
                                <img src=""images/map15_Spectral_scaleDef_orientDef_270.png"" style= ""width:200px""alt=""img"">
                            </div>
                        </div>","166","","0","","","","images/map15_Spectral_scaleDef_orientDef_270.png","fearful","1","15","15","Spectral","orientDef","scaleDef","270","",""
"","","","","","html-slider-response","103","350694","0.0-99.0","4hjz6gf53p","56","NaN","<div style=""width:500px;"">
                            <p style=""font-size:50px; font-weight:bold;""
                            >fearful</p>
                            <div style=""width:240px; margin: auto;"">
                                <img src=""images/map27_magma_scaleRev_orientMir_000.png"" style= ""width:200px""alt=""img"">
                            </div>
                        </div>","200","","0","","","","images/map27_magma_scaleRev_orientMir_000.png","fearful","1","27","27","magma","orientMir","scaleRev","000","",""
"","","","","","html-slider-response","104","352759","0.0-100.0","4hjz6gf53p","56","NaN","<div style=""width:500px;"">
                            <p style=""font-size:50px; font-weight:bold;""
                            >fearful</p>
                            <div style=""width:240px; margin: auto;"">
                                <img src=""images/map23_managua_scaleRev_orientMir_180.png"" style= ""width:200px""alt=""img"">
                            </div>
                        </div>","200","","0","","","","images/map23_managua_scaleRev_orientMir_180.png","fearful","1","23","23","managua","orientMir","scaleRev","180","",""
"","","","","","html-slider-response","105","355725","0.0-101.0","4hjz6gf53p","56","NaN","<div style=""width:500px;"">
                            <p style=""font-size:50px; font-weight:bold;""
                            >fearful</p>
                            <div style=""width:240px; margin: auto;"">
                                <img src=""images/map26_turbo_scaleDef_orientDef_270.png"" style= ""width:200px""alt=""img"">
                            </div>
                        </div>","45","","0","","","","images/map26_turbo_scaleDef_orientDef_270.png","fearful","1","26","26","turbo","orientDef","scaleDef","270","",""
"","","","","","html-slider-response","106","358075","0.0-102.0","4hjz6gf53p","56","NaN","<div style=""width:500px;"">
                            <p style=""font-size:50px; font-weight:bold;""
                            >fearful</p>
                            <div style=""width:240px; margin: auto;"">
                                <img src=""images/map12_BrBG_scaleDef_orientMir_270.png"" style= ""width:200px""alt=""img"">
                            </div>
                        </div>","-70","","0","","","","images/map12_BrBG_scaleDef_orientMir_270.png","fearful","1","12","12","BrBG","orientMir","scaleDef","270","",""
"","","","","","html-slider-response","107","361128","0.0-103.0","4hjz6gf53p","56","NaN","<div style=""width:500px;"">
                            <p style=""font-size:50px; font-weight:bold;""
                            >fearful</p>
                            <div style=""width:240px; margin: auto;"">
                                <img src=""images/map13_RdGy_scaleRev_orientMir_000.png"" style= ""width:200px""alt=""img"">
                            </div>
                        </div>","200","","0","","","","images/map13_RdGy_scaleRev_orientMir_000.png","fearful","1","13","13","RdGy","orientMir","scaleRev","000","",""
"","","","","","html-slider-response","108","363751","0.0-104.0","4hjz6gf53p","56","NaN","<div style=""width:500px;"">
                            <p style=""font-size:50px; font-weight:bold;""
                            >fearful</p>
                            <div style=""width:240px; margin: auto;"">
                                <img src=""images/map10_PuBu_scaleDef_orientDef_090.png"" style= ""width:200px""alt=""img"">
                            </div>
                        </div>","-200","","0","","","","images/map10_PuBu_scaleDef_orientDef_090.png","fearful","1","10","10","PuBu","orientDef","scaleDef","090","",""
"","","","","","html-slider-response","109","366752","0.0-105.0","4hjz6gf53p","56","NaN","<div style=""width:500px;"">
                            <p style=""font-size:50px; font-weight:bold;""
                            >fearful</p>
                            <div style=""width:240px; margin: auto;"">
                                <img src=""images/map23_seismic_scaleRev_orientDef_180.png"" style= ""width:200px""alt=""img"">
                            </div>
                        </div>","-62","","0","","","","images/map23_seismic_scaleRev_orientDef_180.png","fearful","1","23","23","seismic","orientDef","scaleRev","180","",""
"","","","","","html-slider-response","110","369344","0.0-106.0","4hjz6gf53p","56","NaN","<div style=""width:500px;"">
                            <p style=""font-size:50px; font-weight:bold;""
                            >fearful</p>
                            <div style=""width:240px; margin: auto;"">
                                <img src=""images/map02_Greens_scaleDef_orientMir_090.png"" style= ""width:200px""alt=""img"">
                            </div>
                        </div>","-184","","0","","","","images/map02_Greens_scaleDef_orientMir_090.png","fearful","1","02","02","Greens","orientMir","scaleDef","090","",""
"","","","","","html-slider-response","111","372649","0.0-107.0","4hjz6gf53p","56","NaN","<div style=""width:500px;"">
                            <p style=""font-size:50px; font-weight:bold;""
                            >fearful</p>
                            <div style=""width:240px; margin: auto;"">
                                <img src=""images/map15_coolwarm_scaleDef_orientMir_090.png"" style= ""width:200px""alt=""img"">
                            </div>
                        </div>","-171","","0","","","","images/map15_coolwarm_scaleDef_orientMir_090.png","fearful","1","15","15","coolwarm","orientMir","scaleDef","090","",""
"","","","","","html-slider-response","112","375210","0.0-108.0","4hjz6gf53p","56","NaN","<div style=""width:500px;"">
                            <p style=""font-size:50px; font-weight:bold;""
                            >fearful</p>
                            <div style=""width:240px; margin: auto;"">
                                <img src=""images/map10_PuBuGn_scaleDef_orientMir_090.png"" style= ""width:200px""alt=""img"">
                            </div>
                        </div>","-200","","0","","","","images/map10_PuBuGn_scaleDef_orientMir_090.png","fearful","1","10","10","PuBuGn","orientMir","scaleDef","090","",""
"","","","","","html-slider-response","113","377144","0.0-109.0","4hjz6gf53p","56","NaN","<div style=""width:500px;"">
                            <p style=""font-size:50px; font-weight:bold;""
                            >fearful</p>
                            <div style=""width:240px; margin: auto;"">
                                <img src=""images/map10_PuBu_scaleRev_orientDef_180.png"" style= ""width:200px""alt=""img"">
                            </div>
                        </div>","-200","","0","","","","images/map10_PuBu_scaleRev_orientDef_180.png","fearful","1","10","10","PuBu","orientDef","scaleRev","180","",""
"","","","","","html-slider-response","114","380777","0.0-110.0","4hjz6gf53p","56","NaN","<div style=""width:500px;"">
                            <p style=""font-size:50px; font-weight:bold;""
                            >fearful</p>
                            <div style=""width:240px; margin: auto;"">
                                <img src=""images/map05_OrRd_scaleDef_orientMir_270.png"" style= ""width:200px""alt=""img"">
                            </div>
                        </div>","-70","","0","","","","images/map05_OrRd_scaleDef_orientMir_270.png","fearful","1","05","05","OrRd","orientMir","scaleDef","270","",""
"","","","","","html-slider-response","115","383237","0.0-111.0","4hjz6gf53p","56","NaN","<div style=""width:500px;"">
                            <p style=""font-size:50px; font-weight:bold;""
                            >fearful</p>
                            <div style=""width:240px; margin: auto;"">
                                <img src=""images/map12_PiYG_scaleRev_orientMir_000.png"" style= ""width:200px""alt=""img"">
                            </div>
                        </div>","72","","0","","","","images/map12_PiYG_scaleRev_orientMir_000.png","fearful","1","12","12","PiYG","orientMir","scaleRev","000","",""
"","","","","","html-slider-response","116","386908","0.0-112.0","4hjz6gf53p","56","NaN","<div style=""width:500px;"">
                            <p style=""font-size:50px; font-weight:bold;""
                            >fearful</p>
                            <div style=""width:240px; margin: auto;"">
                                <img src=""images/map05_Reds_scaleDef_orientDef_090.png"" style= ""width:200px""alt=""img"">
                            </div>
                        </div>","-38","","0","","","","images/map05_Reds_scaleDef_orientDef_090.png","fearful","1","05","05","Reds","orientDef","scaleDef","090","",""
"","","","","","html-slider-response","117","388826","0.0-113.0","4hjz6gf53p","56","NaN","<div style=""width:500px;"">
                            <p style=""font-size:50px; font-weight:bold;""
                            >fearful</p>
                            <div style=""width:240px; margin: auto;"">
                                <img src=""images/map26_viridis_scaleRev_orientMir_180.png"" style= ""width:200px""alt=""img"">
                            </div>
                        </div>","-62","","0","","","","images/map26_viridis_scaleRev_orientMir_180.png","fearful","1","26","26","viridis","orientMir","scaleRev","180","",""
"","","","","","html-slider-response","118","392446","0.0-114.0","4hjz6gf53p","56","NaN","<div style=""width:500px;"">
                            <p style=""font-size:50px; font-weight:bold;""
                            >fearful</p>
                            <div style=""width:240px; margin: auto;"">
                                <img src=""images/map27_Greys_scaleDef_orientMir_270.png"" style= ""width:200px""alt=""img"">
                            </div>
                        </div>","56","","0","","","","images/map27_Greys_scaleDef_orientMir_270.png","fearful","1","27","27","Greys","orientMir","scaleDef","270","",""
"","","","","","html-slider-response","119","395725","0.0-115.0","4hjz6gf53p","56","NaN","<div style=""width:500px;"">
                            <p style=""font-size:50px; font-weight:bold;""
                            >fearful</p>
                            <div style=""width:240px; margin: auto;"">
                                <img src=""images/map26_plasma_scaleDef_orientMir_270.png"" style= ""width:200px""alt=""img"">
                            </div>
                        </div>","187","","0","","","","images/map26_plasma_scaleDef_orientMir_270.png","fearful","1","26","26","plasma","orientMir","scaleDef","270","",""
"","","","","","html-slider-response","120","400143","0.0-116.0","4hjz6gf53p","56","NaN","<div style=""width:500px;"">
                            <p style=""font-size:50px; font-weight:bold;""
                            >fearful</p>
                            <div style=""width:240px; margin: auto;"">
                                <img src=""images/map02_Greens_scaleRev_orientMir_180.png"" style= ""width:200px""alt=""img"">
                            </div>
                        </div>","-77","","0","","","","images/map02_Greens_scaleRev_orientMir_180.png","fearful","1","02","02","Greens","orientMir","scaleRev","180","",""
"","","","","","html-slider-response","121","401671","0.0-117.0","4hjz6gf53p","56","NaN","<div style=""width:500px;"">
                            <p style=""font-size:50px; font-weight:bold;""
                            >fearful</p>
                            <div style=""width:240px; margin: auto;"">
                                <img src=""images/map12_PRGn_scaleDef_orientMir_090.png"" style= ""width:200px""alt=""img"">
                            </div>
                        </div>","-77","","0","","","","images/map12_PRGn_scaleDef_orientMir_090.png","fearful","1","12","12","PRGn","orientMir","scaleDef","090","",""
"","","","","","html-slider-response","122","404734","0.0-118.0","4hjz6gf53p","56","NaN","<div style=""width:500px;"">
                            <p style=""font-size:50px; font-weight:bold;""
                            >fearful</p>
                            <div style=""width:240px; margin: auto;"">
                                <img src=""images/map15_bwr_scaleDef_orientMir_270.png"" style= ""width:200px""alt=""img"">
                            </div>
                        </div>","79","","0","","","","images/map15_bwr_scaleDef_orientMir_270.png","fearful","1","15","15","bwr","orientMir","scaleDef","270","",""
"","","","","","html-slider-response","123","407225","0.0-119.0","4hjz6gf53p","56","NaN","<div style=""width:500px;"">
                            <p style=""font-size:50px; font-weight:bold;""
                            >fearful</p>
                            <div style=""width:240px; margin: auto;"">
                                <img src=""images/map05_YlOrRd_scaleRev_orientMir_180.png"" style= ""width:200px""alt=""img"">
                            </div>
                        </div>","38","","0","","","","images/map05_YlOrRd_scaleRev_orientMir_180.png","fearful","1","05","05","YlOrRd","orientMir","scaleRev","180","",""
"","","","","","html-slider-response","124","408948","0.0-120.0","4hjz6gf53p","56","NaN","<div style=""width:500px;"">
                            <p style=""font-size:50px; font-weight:bold;""
                            >fearful</p>
                            <div style=""width:240px; margin: auto;"">
                                <img src=""images/map15_coolwarm_scaleRev_orientMir_180.png"" style= ""width:200px""alt=""img"">
                            </div>
                        </div>","40","","0","","","","images/map15_coolwarm_scaleRev_orientMir_180.png","fearful","1","15","15","coolwarm","orientMir","scaleRev","180","",""
"","","","","","html-slider-response","125","413000","0.0-121.0","4hjz6gf53p","56","NaN","<div style=""width:500px;"">
                            <p style=""font-size:50px; font-weight:bold;""
                            >fearful</p>
                            <div style=""width:240px; margin: auto;"">
                                <img src=""images/map02_Purples_scaleRev_orientDef_180.png"" style= ""width:200px""alt=""img"">
                            </div>
                        </div>","-33","","0","","","","images/map02_Purples_scaleRev_orientDef_180.png","fearful","1","02","02","Purples","orientDef","scaleRev","180","",""
"","","","","","html-slider-response","126","415679","0.0-122.0","4hjz6gf53p","56","NaN","<div style=""width:500px;"">
                            <p style=""font-size:50px; font-weight:bold;""
                            >fearful</p>
                            <div style=""width:240px; margin: auto;"">
                                <img src=""images/map27_cividis_scaleDef_orientMir_090.png"" style= ""width:200px""alt=""img"">
                            </div>
                        </div>","193","","0","","","","images/map27_cividis_scaleDef_orientMir_090.png","fearful","1","27","27","cividis","orientMir","scaleDef","090","",""
"","","","","","html-slider-response","127","422931","0.0-123.0","4hjz6gf53p","56","NaN","<div style=""width:500px;"">
                            <p style=""font-size:50px; font-weight:bold;""
                            >fearful</p>
                            <div style=""width:240px; margin: auto;"">
                                <img src=""images/map07_PuRd_scaleRev_orientDef_180.png"" style= ""width:200px""alt=""img"">
                            </div>
                        </div>","-114","","0","","","","images/map07_PuRd_scaleRev_orientDef_180.png","fearful","1","07","07","PuRd","orientDef","scaleRev","180","",""
"","","","","","html-slider-response","128","426690","0.0-124.0","4hjz6gf53p","56","NaN","<div style=""width:500px;"">
                            <p style=""font-size:50px; font-weight:bold;""
                            >fearful</p>
                            <div style=""width:240px; margin: auto;"">
                                <img src=""images/map15_RdYlGn_scaleDef_orientDef_090.png"" style= ""width:200px""alt=""img"">
                            </div>
                        </div>","-93","","0","","","","images/map15_RdYlGn_scaleDef_orientDef_090.png","fearful","1","15","15","RdYlGn","orientDef","scaleDef","090","",""
"","","","","","html-slider-response","129","429421","0.0-125.0","4hjz6gf53p","56","NaN","<div style=""width:500px;"">
                            <p style=""font-size:50px; font-weight:bold;""
                            >fearful</p>
                            <div style=""width:240px; margin: auto;"">
                                <img src=""images/map27_inferno_scaleRev_orientDef_180.png"" style= ""width:200px""alt=""img"">
                            </div>
                        </div>","196","","0","","","","images/map27_inferno_scaleRev_orientDef_180.png","fearful","1","27","27","inferno","orientDef","scaleRev","180","",""
"","","","","","html-slider-response","130","431625","0.0-126.0","4hjz6gf53p","56","NaN","<div style=""width:500px;"">
                            <p style=""font-size:50px; font-weight:bold;""
                            >fearful</p>
                            <div style=""width:240px; margin: auto;"">
                                <img src=""images/map05_Reds_scaleRev_orientDef_180.png"" style= ""width:200px""alt=""img"">
                            </div>
                        </div>","32","","0","","","","images/map05_Reds_scaleRev_orientDef_180.png","fearful","1","05","05","Reds","orientDef","scaleRev","180","",""
"","","","","","html-slider-response","131","439743","0.0-127.0","4hjz6gf53p","56","NaN","<div style=""width:500px;"">
                            <p style=""font-size:50px; font-weight:bold;""
                            >fearful</p>
                            <div style=""width:240px; margin: auto;"">
                                <img src=""images/map05_YlOrBr_scaleDef_orientDef_270.png"" style= ""width:200px""alt=""img"">
                            </div>
                        </div>","-62","","0","","","","images/map05_YlOrBr_scaleDef_orientDef_270.png","fearful","1","05","05","YlOrBr","orientDef","scaleDef","270","",""
"","","","","","html-slider-response","132","441365","0.0-128.0","4hjz6gf53p","56","NaN","<div style=""width:500px;"">
                            <p style=""font-size:50px; font-weight:bold;""
                            >fearful</p>
                            <div style=""width:240px; margin: auto;"">
                                <img src=""images/map05_YlOrBr_scaleRev_orientMir_000.png"" style= ""width:200px""alt=""img"">
                            </div>
                        </div>","-62","","0","","","","images/map05_YlOrBr_scaleRev_orientMir_000.png","fearful","1","05","05","YlOrBr","orientMir","scaleRev","000","",""
"","","","","","html-slider-response","133","444201","0.0-129.0","4hjz6gf53p","56","NaN","<div style=""width:500px;"">
                            <p style=""font-size:50px; font-weight:bold;""
                            >fearful</p>
                            <div style=""width:240px; margin: auto;"">
                                <img src=""images/map13_RdBu_scaleDef_orientMir_090.png"" style= ""width:200px""alt=""img"">
                            </div>
                        </div>","-61","","0","","","","images/map13_RdBu_scaleDef_orientMir_090.png","fearful","1","13","13","RdBu","orientMir","scaleDef","090","",""
"","","","","","html-slider-response","134","446960","0.0-130.0","4hjz6gf53p","56","NaN","<div style=""width:500px;"">
                            <p style=""font-size:50px; font-weight:bold;""
                            >fearful</p>
                            <div style=""width:240px; margin: auto;"">
                                <img src=""images/map10_YlGnBu_scaleRev_orientMir_000.png"" style= ""width:200px""alt=""img"">
                            </div>
                        </div>","-148","","0","","","","images/map10_YlGnBu_scaleRev_orientMir_000.png","fearful","1","10","10","YlGnBu","orientMir","scaleRev","000","",""
"","","","","","html-slider-response","135","448393","0.0-131.0","4hjz6gf53p","56","NaN","<div style=""width:500px;"">
                            <p style=""font-size:50px; font-weight:bold;""
                            >fearful</p>
                            <div style=""width:240px; margin: auto;"">
                                <img src=""images/map26_gist_earth_scaleRev_orientDef_180.png"" style= ""width:200px""alt=""img"">
                            </div>
                        </div>","-148","","0","","","","images/map26_gist_earth_scaleRev_orientDef_180.png","fearful","1","26","26","gist","scaleRev","earth","orientDef","",""
"","","","","","html-slider-response","136","450377","0.0-132.0","4hjz6gf53p","56","NaN","<div style=""width:500px;"">
                            <p style=""font-size:50px; font-weight:bold;""
                            >fearful</p>
                            <div style=""width:240px; margin: auto;"">
                                <img src=""images/map26_vanimo_scaleRev_orientDef_000.png"" style= ""width:200px""alt=""img"">
                            </div>
                        </div>","104","","0","","","","images/map26_vanimo_scaleRev_orientDef_000.png","fearful","1","26","26","vanimo","orientDef","scaleRev","000","",""
"","","","","","html-slider-response","137","453893","0.0-133.0","4hjz6gf53p","56","NaN","<div style=""width:500px;"">
                            <p style=""font-size:50px; font-weight:bold;""
                            >fearful</p>
                            <div style=""width:240px; margin: auto;"">
                                <img src=""images/map07_GnBu_scaleDef_orientMir_270.png"" style= ""width:200px""alt=""img"">
                            </div>
                        </div>","-194","","0","","","","images/map07_GnBu_scaleDef_orientMir_270.png","fearful","1","07","07","GnBu","orientMir","scaleDef","270","",""
"","","","","","html-slider-response","138","458266","0.0-134.0","4hjz6gf53p","56","NaN","<div style=""width:500px;"">
                            <p style=""font-size:50px; font-weight:bold;""
                            >fearful</p>
                            <div style=""width:240px; margin: auto;"">
                                <img src=""images/map07_BuPu_scaleRev_orientMir_180.png"" style= ""width:200px""alt=""img"">
                            </div>
                        </div>","-191","","0","","","","images/map07_BuPu_scaleRev_orientMir_180.png","fearful","1","07","07","BuPu","orientMir","scaleRev","180","",""
"","","","","","html-slider-response","139","461383","0.0-135.0","4hjz6gf53p","56","NaN","<div style=""width:500px;"">
                            <p style=""font-size:50px; font-weight:bold;""
                            >fearful</p>
                            <div style=""width:240px; margin: auto;"">
                                <img src=""images/map05_YlOrRd_scaleDef_orientMir_090.png"" style= ""width:200px""alt=""img"">
                            </div>
                        </div>","-22","","0","","","","images/map05_YlOrRd_scaleDef_orientMir_090.png","fearful","1","05","05","YlOrRd","orientMir","scaleDef","090","",""
"","","","","","html-slider-response","140","463856","0.0-136.0","4hjz6gf53p","56","NaN","<div style=""width:500px;"">
                            <p style=""font-size:50px; font-weight:bold;""
                            >fearful</p>
                            <div style=""width:240px; margin: auto;"">
                                <img src=""images/map27_magma_scaleDef_orientDef_270.png"" style= ""width:200px""alt=""img"">
                            </div>
                        </div>","196","","0","","","","images/map27_magma_scaleDef_orientDef_270.png","fearful","1","27","27","magma","orientDef","scaleDef","270","",""
"","","","","","html-button-response","141","488901","0.0-137.0","4hjz6gf53p","56","24540","<p>You are doing great!<br></br> You are halway done with the current block. When you are ready to continue, click the 'Continue' button.</p>","0","","","","","","","","","","","","","","","",""
"","","","","","html-slider-response","142","490558","0.0-138.0","4hjz6gf53p","56","NaN","<div style=""width:500px;"">
                            <p style=""font-size:50px; font-weight:bold;""
                            >fearful</p>
                            <div style=""width:240px; margin: auto;"">
                                <img src=""images/map02_Blues_scaleRev_orientMir_000.png"" style= ""width:200px""alt=""img"">
                            </div>
                        </div>","-188","","0","","","","images/map02_Blues_scaleRev_orientMir_000.png","fearful","1","02","02","Blues","orientMir","scaleRev","000","",""
"","","","","","html-slider-response","143","492490","0.0-139.0","4hjz6gf53p","56","NaN","<div style=""width:500px;"">
                            <p style=""font-size:50px; font-weight:bold;""
                            >fearful</p>
                            <div style=""width:240px; margin: auto;"">
                                <img src=""images/map02_Purples_scaleDef_orientDef_090.png"" style= ""width:200px""alt=""img"">
                            </div>
                        </div>","-151","","0","","","","images/map02_Purples_scaleDef_orientDef_090.png","fearful","1","02","02","Purples","orientDef","scaleDef","090","",""
"","","","","","html-slider-response","144","495067","0.0-140.0","4hjz6gf53p","56","NaN","<div style=""width:500px;"">
                            <p style=""font-size:50px; font-weight:bold;""
                            >fearful</p>
                            <div style=""width:240px; margin: auto;"">
                                <img src=""images/map23_berlin_scaleRev_orientMir_000.png"" style= ""width:200px""alt=""img"">
                            </div>
                        </div>","99","","0","","","","images/map23_berlin_scaleRev_orientMir_000.png","fearful","1","23","23","berlin","orientMir","scaleRev","000","",""
"","","","","","html-slider-response","145","496677","0.0-141.0","4hjz6gf53p","56","NaN","<div style=""width:500px;"">
                            <p style=""font-size:50px; font-weight:bold;""
                            >fearful</p>
                            <div style=""width:240px; margin: auto;"">
                                <img src=""images/map13_PuOr_scaleDef_orientDef_090.png"" style= ""width:200px""alt=""img"">
                            </div>
                        </div>","126","","0","","","","images/map13_PuOr_scaleDef_orientDef_090.png","fearful","1","13","13","PuOr","orientDef","scaleDef","090","",""
"","","","","","html-slider-response","146","498315","0.0-142.0","4hjz6gf53p","56","NaN","<div style=""width:500px;"">
                            <p style=""font-size:50px; font-weight:bold;""
                            >fearful</p>
                            <div style=""width:240px; margin: auto;"">
                                <img src=""images/map13_RdBu_scaleRev_orientMir_180.png"" style= ""width:200px""alt=""img"">
                            </div>
                        </div>","110","","0","","","","images/map13_RdBu_scaleRev_orientMir_180.png","fearful","1","13","13","RdBu","orientMir","scaleRev","180","",""
"","","","","","html-slider-response","147","500449","0.0-143.0","4hjz6gf53p","56","NaN","<div style=""width:500px;"">
                            <p style=""font-size:50px; font-weight:bold;""
                            >fearful</p>
                            <div style=""width:240px; margin: auto;"">
                                <img src=""images/map27_inferno_scaleDef_orientDef_090.png"" style= ""width:200px""alt=""img"">
                            </div>
                        </div>","199","","0","","","","images/map27_inferno_scaleDef_orientDef_090.png","fearful","1","27","27","inferno","orientDef","scaleDef","090","",""
"","","","","","html-slider-response","148","502840","0.0-144.0","4hjz6gf53p","56","NaN","<div style=""width:500px;"">
                            <p style=""font-size:50px; font-weight:bold;""
                            >fearful</p>
                            <div style=""width:240px; margin: auto;"">
                                <img src=""images/map26_gist_earth_scaleDef_orientDef_090.png"" style= ""width:200px""alt=""img"">
                            </div>
                        </div>","-144","","0","","","","images/map26_gist_earth_scaleDef_orientDef_090.png","fearful","1","26","26","gist","scaleDef","earth","orientDef","",""
"","","","","","html-slider-response","149","504823","0.0-145.0","4hjz6gf53p","56","NaN","<div style=""width:500px;"">
                            <p style=""font-size:50px; font-weight:bold;""
                            >fearful</p>
                            <div style=""width:240px; margin: auto;"">
                                <img src=""images/map23_seismic_scaleDef_orientDef_090.png"" style= ""width:200px""alt=""img"">
                            </div>
                        </div>","79","","0","","","","images/map23_seismic_scaleDef_orientDef_090.png","fearful","1","23","23","seismic","orientDef","scaleDef","090","",""
"","","","","","html-slider-response","150","506381","0.0-146.0","4hjz6gf53p","56","NaN","<div style=""width:500px;"">
                            <p style=""font-size:50px; font-weight:bold;""
                            >fearful</p>
                            <div style=""width:240px; margin: auto;"">
                                <img src=""images/map13_PuOr_scaleRev_orientDef_180.png"" style= ""width:200px""alt=""img"">
                            </div>
                        </div>","93","","0","","","","images/map13_PuOr_scaleRev_orientDef_180.png","fearful","1","13","13","PuOr","orientDef","scaleRev","180","",""
"","","","","","html-slider-response","151","508566","0.0-147.0","4hjz6gf53p","56","NaN","<div style=""width:500px;"">
                            <p style=""font-size:50px; font-weight:bold;""
                            >fearful</p>
                            <div style=""width:240px; margin: auto;"">
                                <img src=""images/map23_berlin_scaleDef_orientDef_270.png"" style= ""width:200px""alt=""img"">
                            </div>
                        </div>","182","","0","","","","images/map23_berlin_scaleDef_orientDef_270.png","fearful","1","23","23","berlin","orientDef","scaleDef","270","",""
"","","","","","html-slider-response","152","511460","0.0-148.0","4hjz6gf53p","56","NaN","<div style=""width:500px;"">
                            <p style=""font-size:50px; font-weight:bold;""
                            >fearful</p>
                            <div style=""width:240px; margin: auto;"">
                                <img src=""images/map02_Greys_scaleRev_orientDef_000.png"" style= ""width:200px""alt=""img"">
                            </div>
                        </div>","-21","","0","","","","images/map02_Greys_scaleRev_orientDef_000.png","fearful","1","02","02","Greys","orientDef","scaleRev","000","",""
"","","","","","html-slider-response","153","513266","0.0-149.0","4hjz6gf53p","56","NaN","<div style=""width:500px;"">
                            <p style=""font-size:50px; font-weight:bold;""
                            >fearful</p>
                            <div style=""width:240px; margin: auto;"">
                                <img src=""images/map27_cividis_scaleRev_orientMir_180.png"" style= ""width:200px""alt=""img"">
                            </div>
                        </div>","-27","","0","","","","images/map27_cividis_scaleRev_orientMir_180.png","fearful","1","27","27","cividis","orientMir","scaleRev","180","",""
"","","","","","html-slider-response","154","515681","0.0-150.0","4hjz6gf53p","56","NaN","<div style=""width:500px;"">
                            <p style=""font-size:50px; font-weight:bold;""
                            >fearful</p>
                            <div style=""width:240px; margin: auto;"">
                                <img src=""images/map12_YlGn_scaleDef_orientDef_090.png"" style= ""width:200px""alt=""img"">
                            </div>
                        </div>","-129","","0","","","","images/map12_YlGn_scaleDef_orientDef_090.png","fearful","1","12","12","YlGn","orientDef","scaleDef","090","",""
"","","","","","html-slider-response","155","518207","0.0-151.0","4hjz6gf53p","56","NaN","<div style=""width:500px;"">
                            <p style=""font-size:50px; font-weight:bold;""
                            >fearful</p>
                            <div style=""width:240px; margin: auto;"">
                                <img src=""images/map02_Oranges_scaleDef_orientMir_270.png"" style= ""width:200px""alt=""img"">
                            </div>
                        </div>","-34","","0","","","","images/map02_Oranges_scaleDef_orientMir_270.png","fearful","1","02","02","Oranges","orientMir","scaleDef","270","",""
"","","","","","html-slider-response","156","520085","0.0-152.0","4hjz6gf53p","56","NaN","<div style=""width:500px;"">
                            <p style=""font-size:50px; font-weight:bold;""
                            >fearful</p>
                            <div style=""width:240px; margin: auto;"">
                                <img src=""images/map23_managua_scaleDef_orientMir_090.png"" style= ""width:200px""alt=""img"">
                            </div>
                        </div>","87","","0","","","","images/map23_managua_scaleDef_orientMir_090.png","fearful","1","23","23","managua","orientMir","scaleDef","090","",""
"","","","","","html-slider-response","157","521614","0.0-153.0","4hjz6gf53p","56","NaN","<div style=""width:500px;"">
                            <p style=""font-size:50px; font-weight:bold;""
                            >fearful</p>
                            <div style=""width:240px; margin: auto;"">
                                <img src=""images/map13_BrBG_scaleRev_orientDef_000.png"" style= ""width:200px""alt=""img"">
                            </div>
