"success","timeout","failed_images","failed_audio","failed_video","trial_type","trial_index","time_elapsed","internal_node_id","subject_id","condition_num","rt","stimulus","response","question_order","slider_start","practiceTrial","practiceTrialNum","correct","image_path","concept","repetition","map_id","map_num","scale_name","orientation_code","mapping_code","rotation_code","ishihara_plate","correct_response"
"true","false","[]","[]","[]","preload","0","590","0.0-0.0","4rw6duu0ss","40","","","","","","","","","","","","","","","","","","",""
"","","","","","html-button-response","1","6939","0.0-1.0","4rw6duu0ss","40","6348","Welcome to our experiment!<p>At the bottom of this screen, you will see a button that says ""Begin Experiment"".<br>Please only click that button when you are ready to complete the 30 minute experiment in one sitting.</p><p> Once you click that button, it will not be possible to restart the experiment.","0","","","","","","","","","","","","","","","",""
"true","","","","","fullscreen","2","9086","0.0-2.0","4rw6duu0ss","40","1143","","","","","","","","","","","","","","","","","",""
"","","","","","survey-multi-select","3","15494","0.0-3.0","4rw6duu0ss","40","6404","","{""Consent"":[""<strong>I consent</strong>""]}","[0]","","","","","","","","","","","","","","",""
"","","","","","html-button-response","4","18696","0.0-4.0","4rw6duu0ss","40","3200","Welcome! <p> This experiment involves two parts: demographic information, followed by the experimental task.<p> It will take about 30 minutes to complete both parts.","0","","","","","","","","","","","","","","","",""
"","","","","","survey-text","5","34824","0.0-5.0","4rw6duu0ss","40","16119","","{""Age"":""21"",""Gender"":""man"",""Race/ethnicity"":""white/middle eastern"",""Languages"":""English, Turkish""}","","","","","","","","","","","","","","","",""
"","","","","","html-slider-response","6","53099","0.0-6.0","4rw6duu0ss","40","18272","<div style='text-align:left; font-size:20px; line-height:25px; width: 1000px;'>
                                During this experiment you will be asked to rate how much you associate maps with                    different concepts.<br> Below, you can see some examples of the maps you will be asked to rate. Above the maps
                    is the list of concepts.<br>You will be asked                    to rate how much you associate each map with each concept on a scale from 'not at all' to 'very much' like the
                    one below. <br><br>
                    Now, please look at the list of concepts and maps. For each concept, think about the map you associate 'very
                    much' with the concept.<br>                     When you see that map during the experiment, please rate it near the 'very much' endpoint of the
                    scale.<br>Now, please think about which map you associate 'not at all'                     with each concept. When you see that map during the experiment, please rate it near the 'not at all' endpoint
                    of the scale.<br>
                    Please use the full range of the scale. That is, if a map is somewhat associated with the concept, you would
                    click partway between the middle point and right side of the scale.                    You will be asked to rate each map for a given concept before moving on to the next concept.<br>Press the
                    'Continue' button for instructions on how to use the slider.                    <br>
                </div>

                <div style=""width: 500px; margin: 0 auto;"">
                    <!-- Centered text paragraphs -->
                    <div style=""text-align: center; width: 500px;"">
                        <p style=""font-size:25px; line-height:15px;"">
                            sad&nbsp;&nbsp;&nbsp;&nbsp;
                            happy&nbsp;&nbsp;&nbsp;&nbsp;
                            disgust&nbsp;&nbsp;&nbsp;&nbsp;
                            fearful&nbsp;&nbsp;&nbsp;&nbsp;
                            angry
                        </p>
                        <!-- <p style=""font-size:20px; line-height:15px;"">happy</p>
                        <p style=""font-size:20px;line-height:15px;"">disgust</p>
                        <p style=""font-size:20px;line-height:15px;"">fearful</p>
                        <p style=""font-size:20px;line-height:15px;"">angry</p> -->
                    </div>
            

                    <!-- Grid section -->
                   <div style=""display: flex; justify-content: center; padding-top: 15px;"">
                    <div style=""display: grid; grid-template-columns: repeat(10, 55px); grid-gap: 5px; width: auto;"">
                        <img src=""images/map13_magma_scaleRev_orientMir_270.png"" alt=""map"" style=""width: 100%;""><img src=""images/map23_Greens_scaleDef_orientDef_000.png"" alt=""map"" style=""width: 100%;""><img src=""images/map27_PuBu_scaleRev_orientMir_090.png"" alt=""map"" style=""width: 100%;""><img src=""images/map15_Blues_scaleRev_orientMir_270.png"" alt=""map"" style=""width: 100%;""><img src=""images/map27_YlGnBu_scaleDef_orientMir_180.png"" alt=""map"" style=""width: 100%;""><img src=""images/map27_GnBu_scaleRev_orientDef_270.png"" alt=""map"" style=""width: 100%;""><img src=""images/map23_Oranges_scaleRev_orientDef_270.png"" alt=""map"" style=""width: 100%;""><img src=""images/map02_PiYG_scaleRev_orientMir_270.png"" alt=""map"" style=""width: 100%;""><img src=""images/map07_Spectral_scaleDef_orientMir_180.png"" alt=""map"" style=""width: 100%;""><img src=""images/map12_vanimo_scaleDef_orientDef_180.png"" alt=""map"" style=""width: 100%;""><img src=""images/map05_RdGy_scaleRev_orientMir_270.png"" alt=""map"" style=""width: 100%;""><img src=""images/map23_YlOrBr_scaleDef_orientMir_180.png"" alt=""map"" style=""width: 100%;""><img src=""images/map23_Reds_scaleDef_orientMir_000.png"" alt=""map"" style=""width: 100%;""><img src=""images/map02_BuGn_scaleRev_orientDef_270.png"" alt=""map"" style=""width: 100%;""><img src=""images/map07_RdYlBu_scaleRev_orientDef_270.png"" alt=""map"" style=""width: 100%;""><img src=""images/map05_PuOr_scaleRev_orientMir_090.png"" alt=""map"" style=""width: 100%;""><img src=""images/map26_RdPu_scaleDef_orientMir_180.png"" alt=""map"" style=""width: 100%;""><img src=""images/map12_gist_earth_scaleDef_orientMir_000.png"" alt=""map"" style=""width: 100%;""><img src=""images/map02_YlGn_scaleRev_orientMir_090.png"" alt=""map"" style=""width: 100%;""><img src=""images/map27_BuPu_scaleRev_orientDef_090.png"" alt=""map"" style=""width: 100%;""><img src=""images/map26_OrRd_scaleDef_orientDef_180.png"" alt=""map"" style=""width: 100%;""><img src=""images/map13_plasma_scaleRev_orientDef_270.png"" alt=""map"" style=""width: 100%;""><img src=""images/map05_PRGn_scaleDef_orientDef_000.png"" alt=""map"" style=""width: 100%;""><img src=""images/map13_inferno_scaleRev_orientMir_090.png"" alt=""map"" style=""width: 100%;""><img src=""images/map15_Greys_scaleDef_orientDef_180.png"" alt=""map"" style=""width: 100%;""><img src=""images/map10_bwr_scaleDef_orientDef_180.png"" alt=""map"" style=""width: 100%;""><img src=""images/map26_PuRd_scaleDef_orientMir_000.png"" alt=""map"" style=""width: 100%;""><img src=""images/map12_turbo_scaleDef_orientMir_180.png"" alt=""map"" style=""width: 100%;""><img src=""images/map07_RdBu_scaleRev_orientDef_090.png"" alt=""map"" style=""width: 100%;""><img src=""images/map10_coolwarm_scaleRev_orientDef_090.png"" alt=""map"" style=""width: 100%;""><img src=""images/map10_berlin_scaleDef_orientMir_180.png"" alt=""map"" style=""width: 100%;""><img src=""images/map07_RdYlGn_scaleDef_orientMir_000.png"" alt=""map"" style=""width: 100%;""><img src=""images/map05_BrBG_scaleRev_orientDef_270.png"" alt=""map"" style=""width: 100%;""><img src=""images/map26_YlOrRd_scaleRev_orientDef_090.png"" alt=""map"" style=""width: 100%;""><img src=""images/map12_managua_scaleDef_orientDef_000.png"" alt=""map"" style=""width: 100%;""><img src=""images/map13_viridis_scaleRev_orientDef_090.png"" alt=""map"" style=""width: 100%;""><img src=""images/map02_PuBuGn_scaleDef_orientDef_000.png"" alt=""map"" style=""width: 100%;""><img src=""images/map10_seismic_scaleDef_orientMir_000.png"" alt=""map"" style=""width: 100%;""><img src=""images/map15_Purples_scaleRev_orientMir_090.png"" alt=""map"" style=""width: 100%;""><img src=""images/map15_cividis_scaleRev_orientDef_090.png"" alt=""map"" style=""width: 100%;"">
                    </div>
                </div>

                    <!-- Clear floats -->
                    <div style=""clear: both;""></div>
                </div>
                            ","null","","0","true","","","","","","","","","","","","",""
"","","","","","html-button-response","7","55491","0.0-7.0","4rw6duu0ss","40","2390","<div style=""width:800px;""><p style=""text-align:left"">To move the slider, click and drag your cursor to the location of the scale where you would like to make your rating and then let go. When you let go of the slider, your response will be recorded and the next trial will begin. <br>
                    We are interested in your initial impressions of each map for the given concept, so please go with your first intuition. <br>
                    Before you begin the experiment, there will be four training trials for you to practice using the scale. <br>
                     When you are ready to start the training trials, please click ""Continue"".</p><br></div>","0","","","","","","","","","","","","","","","",""
"","","","","","html-slider-response","8","58878","0.0-8.0-0.0","4rw6duu0ss","40","NaN","<div style=""width:500px;"">
                                    <p style=""font-size:25px;"">Please move the slider all the way to the <br> right endpoint of the scale</p>

                                    </div>
                                </div>","200","","0","true","0","true","","","","","","","","","","",""
"","","","","","html-button-response","9","60303","0.0-8.0-1.0","4rw6duu0ss","40","923","<p align='center'><b>Good job!</b> Click on 'Continue' to proceed.</p>","0","","","","","","","","","","","","","","","",""
"","","","","","html-slider-response","10","62202","0.0-9.0-0.0","4rw6duu0ss","40","NaN","<div style=""width:500px;"">
                                    <p style=""font-size:25px;"">Please move the slider all the way to the <br> left endpoint of the scale</p>

                                    </div>
                                </div>","-200","","0","true","1","true","","","","","","","","","","",""
"","","","","","html-button-response","11","63466","0.0-9.0-1.0","4rw6duu0ss","40","760","<p align='center'><b>Good job!</b> Click on 'Continue' to proceed.</p>","0","","","","","","","","","","","","","","","",""
"","","","","","html-slider-response","12","67964","0.0-10.0-0.0","4rw6duu0ss","40","NaN","<div style=""width:500px;"">
                                    <p style=""font-size:25px;"">Please move the slider halfway between the center and right endpoint of the scale</p>

                                    </div>
                                </div>","104","","0","true","2","true","","","","","","","","","","",""
"","","","","","html-button-response","13","69237","0.0-10.0-1.0","4rw6duu0ss","40","769","<p align='center'><b>Good job!</b> Click on 'Continue' to proceed.</p>","0","","","","","","","","","","","","","","","",""
"","","","","","html-slider-response","14","71215","0.0-11.0-0.0","4rw6duu0ss","40","NaN","<div style=""width:500px;"">
                                    <p style=""font-size:25px;"">Please move the slider halfway between the center and left endpoint of the scale</p>

                                    </div>
                                </div>","-103","","0","true","3","true","","","","","","","","","","",""
"","","","","","html-button-response","15","72425","0.0-11.0-1.0","4rw6duu0ss","40","707","<p align='center'><b>Good job!</b> Click on 'Continue' to proceed.</p>","0","","","","","","","","","","","","","","","",""
"","","","","","html-button-response","16","73399","0.0-12.0","4rw6duu0ss","40","973","<p>Great job! You've completed the practice trials. Now you will begin the main task.</p>","0","","","","","","","","","","","","","","","",""
"","","","","","html-button-response","17","79328","0.0-13.0","4rw6duu0ss","40","5928","<p>In this block of trials, you will be asked to rate how much you associate each map with:</p > <p style = 'font-size:150%; font-weight: bold'>sad</p><br></br>","0","","","","","","","","","","","","","","","",""
"","","","","","html-slider-response","18","81159","0.0-14.0","4rw6duu0ss","40","NaN","<div style=""width:500px;"">
                            <p style=""font-size:50px; font-weight:bold;""
                            >sad</p>
                            <div style=""width:240px; margin: auto;"">
                                <img src=""images/map15_Blues_scaleDef_orientMir_180.png"" style= ""width:200px""alt=""img"">
                            </div>
                        </div>","25","","0","","","","images/map15_Blues_scaleDef_orientMir_180.png","sad","1","15","15","Blues","orientMir","scaleDef","180","",""
"","","","","","html-slider-response","19","82946","0.0-15.0","4rw6duu0ss","40","NaN","<div style=""width:500px;"">
                            <p style=""font-size:50px; font-weight:bold;""
                            >sad</p>
                            <div style=""width:240px; margin: auto;"">
                                <img src=""images/map13_plasma_scaleDef_orientDef_180.png"" style= ""width:200px""alt=""img"">
                            </div>
                        </div>","-39","","0","","","","images/map13_plasma_scaleDef_orientDef_180.png","sad","1","13","13","plasma","orientDef","scaleDef","180","",""
"","","","","","html-slider-response","20","84358","0.0-16.0","4rw6duu0ss","40","NaN","<div style=""width:500px;"">
                            <p style=""font-size:50px; font-weight:bold;""
                            >sad</p>
                            <div style=""width:240px; margin: auto;"">
                                <img src=""images/map27_YlGnBu_scaleRev_orientMir_270.png"" style= ""width:200px""alt=""img"">
                            </div>
                        </div>","106","","0","","","","images/map27_YlGnBu_scaleRev_orientMir_270.png","sad","1","27","27","YlGnBu","orientMir","scaleRev","270","",""
"","","","","","html-slider-response","21","85913","0.0-17.0","4rw6duu0ss","40","NaN","<div style=""width:500px;"">
                            <p style=""font-size:50px; font-weight:bold;""
                            >sad</p>
                            <div style=""width:240px; margin: auto;"">
                                <img src=""images/map02_PiYG_scaleRev_orientMir_270.png"" style= ""width:200px""alt=""img"">
                            </div>
                        </div>","-78","","0","","","","images/map02_PiYG_scaleRev_orientMir_270.png","sad","1","02","02","PiYG","orientMir","scaleRev","270","",""
"","","","","","html-slider-response","22","87967","0.0-18.0","4rw6duu0ss","40","NaN","<div style=""width:500px;"">
                            <p style=""font-size:50px; font-weight:bold;""
                            >sad</p>
                            <div style=""width:240px; margin: auto;"">
                                <img src=""images/map26_YlOrRd_scaleDef_orientDef_000.png"" style= ""width:200px""alt=""img"">
                            </div>
                        </div>","63","","0","","","","images/map26_YlOrRd_scaleDef_orientDef_000.png","sad","1","26","26","YlOrRd","orientDef","scaleDef","000","",""
"","","","","","html-slider-response","23","89854","0.0-19.0","4rw6duu0ss","40","NaN","<div style=""width:500px;"">
                            <p style=""font-size:50px; font-weight:bold;""
                            >sad</p>
                            <div style=""width:240px; margin: auto;"">
                                <img src=""images/map23_Greens_scaleRev_orientDef_090.png"" style= ""width:200px""alt=""img"">
                            </div>
                        </div>","19","","0","","","","images/map23_Greens_scaleRev_orientDef_090.png","sad","1","23","23","Greens","orientDef","scaleRev","090","",""
"","","","","","html-slider-response","24","91471","0.0-20.0","4rw6duu0ss","40","NaN","<div style=""width:500px;"">
                            <p style=""font-size:50px; font-weight:bold;""
                            >sad</p>
                            <div style=""width:240px; margin: auto;"">
                                <img src=""images/map26_PuRd_scaleDef_orientMir_000.png"" style= ""width:200px""alt=""img"">
                            </div>
                        </div>","-23","","0","","","","images/map26_PuRd_scaleDef_orientMir_000.png","sad","1","26","26","PuRd","orientMir","scaleDef","000","",""
"","","","","","html-slider-response","25","92975","0.0-21.0","4rw6duu0ss","40","NaN","<div style=""width:500px;"">
                            <p style=""font-size:50px; font-weight:bold;""
                            >sad</p>
                            <div style=""width:240px; margin: auto;"">
                                <img src=""images/map10_seismic_scaleDef_orientMir_000.png"" style= ""width:200px""alt=""img"">
                            </div>
                        </div>","-92","","0","","","","images/map10_seismic_scaleDef_orientMir_000.png","sad","1","10","10","seismic","orientMir","scaleDef","000","",""
"","","","","","html-slider-response","26","94642","0.0-22.0","4rw6duu0ss","40","NaN","<div style=""width:500px;"">
                            <p style=""font-size:50px; font-weight:bold;""
                            >sad</p>
                            <div style=""width:240px; margin: auto;"">
                                <img src=""images/map15_Greys_scaleRev_orientDef_270.png"" style= ""width:200px""alt=""img"">
                            </div>
                        </div>","-158","","0","","","","images/map15_Greys_scaleRev_orientDef_270.png","sad","1","15","15","Greys","orientDef","scaleRev","270","",""
"","","","","","html-slider-response","27","97093","0.0-23.0","4rw6duu0ss","40","NaN","<div style=""width:500px;"">
                            <p style=""font-size:50px; font-weight:bold;""
                            >sad</p>
                            <div style=""width:240px; margin: auto;"">
                                <img src=""images/map07_RdYlGn_scaleRev_orientMir_090.png"" style= ""width:200px""alt=""img"">
                            </div>
                        </div>","92","","0","","","","images/map07_RdYlGn_scaleRev_orientMir_090.png","sad","1","07","07","RdYlGn","orientMir","scaleRev","090","",""
"","","","","","html-slider-response","28","98781","0.0-24.0","4rw6duu0ss","40","NaN","<div style=""width:500px;"">
                            <p style=""font-size:50px; font-weight:bold;""
                            >sad</p>
                            <div style=""width:240px; margin: auto;"">
                                <img src=""images/map15_Purples_scaleDef_orientMir_000.png"" style= ""width:200px""alt=""img"">
                            </div>
                        </div>","-44","","0","","","","images/map15_Purples_scaleDef_orientMir_000.png","sad","1","15","15","Purples","orientMir","scaleDef","000","",""
"","","","","","html-slider-response","29","100513","0.0-25.0","4rw6duu0ss","40","NaN","<div style=""width:500px;"">
                            <p style=""font-size:50px; font-weight:bold;""
                            >sad</p>
                            <div style=""width:240px; margin: auto;"">
                                <img src=""images/map23_Reds_scaleRev_orientMir_090.png"" style= ""width:200px""alt=""img"">
                            </div>
                        </div>","-162","","0","","","","images/map23_Reds_scaleRev_orientMir_090.png","sad","1","23","23","Reds","orientMir","scaleRev","090","",""
"","","","","","html-slider-response","30","102046","0.0-26.0","4rw6duu0ss","40","NaN","<div style=""width:500px;"">
                            <p style=""font-size:50px; font-weight:bold;""
                            >sad</p>
                            <div style=""width:240px; margin: auto;"">
                                <img src=""images/map12_turbo_scaleRev_orientMir_270.png"" style= ""width:200px""alt=""img"">
                            </div>
                        </div>","51","","0","","","","images/map12_turbo_scaleRev_orientMir_270.png","sad","1","12","12","turbo","orientMir","scaleRev","270","",""
"","","","","","html-slider-response","31","108764","0.0-27.0","4rw6duu0ss","40","NaN","<div style=""width:500px;"">
                            <p style=""font-size:50px; font-weight:bold;""
                            >sad</p>
                            <div style=""width:240px; margin: auto;"">
                                <img src=""images/map27_GnBu_scaleDef_orientDef_180.png"" style= ""width:200px""alt=""img"">
                            </div>
                        </div>","42","","0","","","","images/map27_GnBu_scaleDef_orientDef_180.png","sad","1","27","27","GnBu","orientDef","scaleDef","180","",""
"","","","","","html-slider-response","32","111005","0.0-28.0","4rw6duu0ss","40","NaN","<div style=""width:500px;"">
                            <p style=""font-size:50px; font-weight:bold;""
                            >sad</p>
                            <div style=""width:240px; margin: auto;"">
                                <img src=""images/map15_cividis_scaleRev_orientDef_090.png"" style= ""width:200px""alt=""img"">
                            </div>
                        </div>","-56","","0","","","","images/map15_cividis_scaleRev_orientDef_090.png","sad","1","15","15","cividis","orientDef","scaleRev","090","",""
"","","","","","html-slider-response","33","113075","0.0-29.0","4rw6duu0ss","40","NaN","<div style=""width:500px;"">
                            <p style=""font-size:50px; font-weight:bold;""
                            >sad</p>
                            <div style=""width:240px; margin: auto;"">
                                <img src=""images/map10_bwr_scaleRev_orientDef_270.png"" style= ""width:200px""alt=""img"">
                            </div>
                        </div>","66","","0","","","","images/map10_bwr_scaleRev_orientDef_270.png","sad","1","10","10","bwr","orientDef","scaleRev","270","",""
"","","","","","html-slider-response","34","114947","0.0-30.0","4rw6duu0ss","40","NaN","<div style=""width:500px;"">
                            <p style=""font-size:50px; font-weight:bold;""
                            >sad</p>
                            <div style=""width:240px; margin: auto;"">
                                <img src=""images/map27_YlGnBu_scaleDef_orientMir_180.png"" style= ""width:200px""alt=""img"">
                            </div>
                        </div>","46","","0","","","","images/map27_YlGnBu_scaleDef_orientMir_180.png","sad","1","27","27","YlGnBu","orientMir","scaleDef","180","",""
"","","","","","html-slider-response","35","118359","0.0-31.0","4rw6duu0ss","40","NaN","<div style=""width:500px;"">
                            <p style=""font-size:50px; font-weight:bold;""
                            >sad</p>
                            <div style=""width:240px; margin: auto;"">
                                <img src=""images/map12_managua_scaleRev_orientDef_090.png"" style= ""width:200px""alt=""img"">
                            </div>
                        </div>","-58","","0","","","","images/map12_managua_scaleRev_orientDef_090.png","sad","1","12","12","managua","orientDef","scaleRev","090","",""
"","","","","","html-slider-response","36","121860","0.0-32.0","4rw6duu0ss","40","NaN","<div style=""width:500px;"">
                            <p style=""font-size:50px; font-weight:bold;""
                            >sad</p>
                            <div style=""width:240px; margin: auto;"">
                                <img src=""images/map23_Greens_scaleDef_orientDef_000.png"" style= ""width:200px""alt=""img"">
                            </div>
                        </div>","-90","","0","","","","images/map23_Greens_scaleDef_orientDef_000.png","sad","1","23","23","Greens","orientDef","scaleDef","000","",""
"","","","","","html-slider-response","37","128401","0.0-33.0","4rw6duu0ss","40","NaN","<div style=""width:500px;"">
                            <p style=""font-size:50px; font-weight:bold;""
                            >sad</p>
                            <div style=""width:240px; margin: auto;"">
                                <img src=""images/map07_Spectral_scaleRev_orientMir_270.png"" style= ""width:200px""alt=""img"">
                            </div>
                        </div>","88","","0","","","","images/map07_Spectral_scaleRev_orientMir_270.png","sad","1","07","07","Spectral","orientMir","scaleRev","270","",""
"","","","","","html-slider-response","38","132109","0.0-34.0","4rw6duu0ss","40","NaN","<div style=""width:500px;"">
                            <p style=""font-size:50px; font-weight:bold;""
                            >sad</p>
                            <div style=""width:240px; margin: auto;"">
                                <img src=""images/map15_Purples_scaleRev_orientMir_090.png"" style= ""width:200px""alt=""img"">
                            </div>
                        </div>","-75","","0","","","","images/map15_Purples_scaleRev_orientMir_090.png","sad","1","15","15","Purples","orientMir","scaleRev","090","",""
"","","","","","html-slider-response","39","134556","0.0-35.0","4rw6duu0ss","40","NaN","<div style=""width:500px;"">
                            <p style=""font-size:50px; font-weight:bold;""
                            >sad</p>
                            <div style=""width:240px; margin: auto;"">
                                <img src=""images/map27_PuBu_scaleDef_orientMir_000.png"" style= ""width:200px""alt=""img"">
                            </div>
                        </div>","-46","","0","","","","images/map27_PuBu_scaleDef_orientMir_000.png","sad","1","27","27","PuBu","orientMir","scaleDef","000","",""
"","","","","","html-slider-response","40","135804","0.0-36.0","4rw6duu0ss","40","NaN","<div style=""width:500px;"">
                            <p style=""font-size:50px; font-weight:bold;""
                            >sad</p>
                            <div style=""width:240px; margin: auto;"">
                                <img src=""images/map27_BuPu_scaleRev_orientDef_090.png"" style= ""width:200px""alt=""img"">
                            </div>
                        </div>","107","","0","","","","images/map27_BuPu_scaleRev_orientDef_090.png","sad","1","27","27","BuPu","orientDef","scaleRev","090","",""
"","","","","","html-slider-response","41","137051","0.0-37.0","4rw6duu0ss","40","NaN","<div style=""width:500px;"">
                            <p style=""font-size:50px; font-weight:bold;""
                            >sad</p>
                            <div style=""width:240px; margin: auto;"">
                                <img src=""images/map23_Reds_scaleDef_orientMir_000.png"" style= ""width:200px""alt=""img"">
                            </div>
                        </div>","17","","0","","","","images/map23_Reds_scaleDef_orientMir_000.png","sad","1","23","23","Reds","orientMir","scaleDef","000","",""
"","","","","","html-slider-response","42","138096","0.0-38.0","4rw6duu0ss","40","NaN","<div style=""width:500px;"">
                            <p style=""font-size:50px; font-weight:bold;""
                            >sad</p>
                            <div style=""width:240px; margin: auto;"">
                                <img src=""images/map15_cividis_scaleDef_orientDef_000.png"" style= ""width:200px""alt=""img"">
                            </div>
                        </div>","-42","","0","","","","images/map15_cividis_scaleDef_orientDef_000.png","sad","1","15","15","cividis","orientDef","scaleDef","000","",""
"","","","","","html-slider-response","43","139342","0.0-39.0","4rw6duu0ss","40","NaN","<div style=""width:500px;"">
                            <p style=""font-size:50px; font-weight:bold;""
                            >sad</p>
                            <div style=""width:240px; margin: auto;"">
                                <img src=""images/map10_coolwarm_scaleRev_orientDef_090.png"" style= ""width:200px""alt=""img"">
                            </div>
                        </div>","159","","0","","","","images/map10_coolwarm_scaleRev_orientDef_090.png","sad","1","10","10","coolwarm","orientDef","scaleRev","090","",""
"","","","","","html-slider-response","44","140488","0.0-40.0","4rw6duu0ss","40","NaN","<div style=""width:500px;"">
                            <p style=""font-size:50px; font-weight:bold;""
                            >sad</p>
                            <div style=""width:240px; margin: auto;"">
                                <img src=""images/map07_RdYlGn_scaleDef_orientMir_000.png"" style= ""width:200px""alt=""img"">
                            </div>
                        </div>","-52","","0","","","","images/map07_RdYlGn_scaleDef_orientMir_000.png","sad","1","07","07","RdYlGn","orientMir","scaleDef","000","",""
"","","","","","html-slider-response","45","141483","0.0-41.0","4rw6duu0ss","40","NaN","<div style=""width:500px;"">
                            <p style=""font-size:50px; font-weight:bold;""
                            >sad</p>
                            <div style=""width:240px; margin: auto;"">
                                <img src=""images/map07_Spectral_scaleDef_orientMir_180.png"" style= ""width:200px""alt=""img"">
                            </div>
                        </div>","-62","","0","","","","images/map07_Spectral_scaleDef_orientMir_180.png","sad","1","07","07","Spectral","orientMir","scaleDef","180","",""
"","","","","","html-slider-response","46","142698","0.0-42.0","4rw6duu0ss","40","NaN","<div style=""width:500px;"">
                            <p style=""font-size:50px; font-weight:bold;""
                            >sad</p>
                            <div style=""width:240px; margin: auto;"">
                                <img src=""images/map13_viridis_scaleRev_orientDef_090.png"" style= ""width:200px""alt=""img"">
                            </div>
                        </div>","-60","","0","","","","images/map13_viridis_scaleRev_orientDef_090.png","sad","1","13","13","viridis","orientDef","scaleRev","090","",""
"","","","","","html-slider-response","47","143959","0.0-43.0","4rw6duu0ss","40","NaN","<div style=""width:500px;"">
                            <p style=""font-size:50px; font-weight:bold;""
                            >sad</p>
                            <div style=""width:240px; margin: auto;"">
                                <img src=""images/map02_YlGn_scaleDef_orientMir_000.png"" style= ""width:200px""alt=""img"">
                            </div>
                        </div>","-91","","0","","","","images/map02_YlGn_scaleDef_orientMir_000.png","sad","1","02","02","YlGn","orientMir","scaleDef","000","",""
"","","","","","html-slider-response","48","145071","0.0-44.0","4rw6duu0ss","40","NaN","<div style=""width:500px;"">
                            <p style=""font-size:50px; font-weight:bold;""
                            >sad</p>
                            <div style=""width:240px; margin: auto;"">
                                <img src=""images/map26_RdPu_scaleDef_orientMir_180.png"" style= ""width:200px""alt=""img"">
                            </div>
                        </div>","-93","","0","","","","images/map26_RdPu_scaleDef_orientMir_180.png","sad","1","26","26","RdPu","orientMir","scaleDef","180","",""
"","","","","","html-slider-response","49","146525","0.0-45.0","4rw6duu0ss","40","NaN","<div style=""width:500px;"">
                            <p style=""font-size:50px; font-weight:bold;""
                            >sad</p>
                            <div style=""width:240px; margin: auto;"">
                                <img src=""images/map02_PiYG_scaleDef_orientMir_180.png"" style= ""width:200px""alt=""img"">
                            </div>
                        </div>","78","","0","","","","images/map02_PiYG_scaleDef_orientMir_180.png","sad","1","02","02","PiYG","orientMir","scaleDef","180","",""
"","","","","","html-slider-response","50","147900","0.0-46.0","4rw6duu0ss","40","NaN","<div style=""width:500px;"">
                            <p style=""font-size:50px; font-weight:bold;""
                            >sad</p>
                            <div style=""width:240px; margin: auto;"">
                                <img src=""images/map23_Oranges_scaleRev_orientDef_270.png"" style= ""width:200px""alt=""img"">
                            </div>
                        </div>","-100","","0","","","","images/map23_Oranges_scaleRev_orientDef_270.png","sad","1","23","23","Oranges","orientDef","scaleRev","270","",""
"","","","","","html-slider-response","51","149433","0.0-47.0","4rw6duu0ss","40","NaN","<div style=""width:500px;"">
                            <p style=""font-size:50px; font-weight:bold;""
                            >sad</p>
                            <div style=""width:240px; margin: auto;"">
                                <img src=""images/map12_turbo_scaleDef_orientMir_180.png"" style= ""width:200px""alt=""img"">
                            </div>
                        </div>","69","","0","","","","images/map12_turbo_scaleDef_orientMir_180.png","sad","1","12","12","turbo","orientMir","scaleDef","180","",""
"","","","","","html-slider-response","52","152034","0.0-48.0","4rw6duu0ss","40","NaN","<div style=""width:500px;"">
                            <p style=""font-size:50px; font-weight:bold;""
                            >sad</p>
                            <div style=""width:240px; margin: auto;"">
                                <img src=""images/map12_managua_scaleDef_orientDef_000.png"" style= ""width:200px""alt=""img"">
                            </div>
                        </div>","-74","","0","","","","images/map12_managua_scaleDef_orientDef_000.png","sad","1","12","12","managua","orientDef","scaleDef","000","",""
"","","","","","html-slider-response","53","153637","0.0-49.0","4rw6duu0ss","40","NaN","<div style=""width:500px;"">
                            <p style=""font-size:50px; font-weight:bold;""
                            >sad</p>
                            <div style=""width:240px; margin: auto;"">
                                <img src=""images/map12_gist_earth_scaleDef_orientMir_000.png"" style= ""width:200px""alt=""img"">
                            </div>
                        </div>","109","","0","","","","images/map12_gist_earth_scaleDef_orientMir_000.png","sad","1","12","12","gist","scaleDef","earth","orientMir","",""
"","","","","","html-slider-response","54","155010","0.0-50.0","4rw6duu0ss","40","NaN","<div style=""width:500px;"">
                            <p style=""font-size:50px; font-weight:bold;""
                            >sad</p>
                            <div style=""width:240px; margin: auto;"">
                                <img src=""images/map27_GnBu_scaleRev_orientDef_270.png"" style= ""width:200px""alt=""img"">
                            </div>
                        </div>","-39","","0","","","","images/map27_GnBu_scaleRev_orientDef_270.png","sad","1","27","27","GnBu","orientDef","scaleRev","270","",""
"","","","","","html-slider-response","55","156117","0.0-51.0","4rw6duu0ss","40","NaN","<div style=""width:500px;"">
                            <p style=""font-size:50px; font-weight:bold;""
                            >sad</p>
                            <div style=""width:240px; margin: auto;"">
                                <img src=""images/map13_inferno_scaleDef_orientMir_000.png"" style= ""width:200px""alt=""img"">
                            </div>
                        </div>","41","","0","","","","images/map13_inferno_scaleDef_orientMir_000.png","sad","1","13","13","inferno","orientMir","scaleDef","000","",""
"","","","","","html-slider-response","56","157392","0.0-52.0","4rw6duu0ss","40","NaN","<div style=""width:500px;"">
                            <p style=""font-size:50px; font-weight:bold;""
                            >sad</p>
                            <div style=""width:240px; margin: auto;"">
                                <img src=""images/map05_BrBG_scaleRev_orientDef_270.png"" style= ""width:200px""alt=""img"">
                            </div>
                        </div>","-128","","0","","","","images/map05_BrBG_scaleRev_orientDef_270.png","sad","1","05","05","BrBG","orientDef","scaleRev","270","",""
"","","","","","html-slider-response","57","158813","0.0-53.0","4rw6duu0ss","40","NaN","<div style=""width:500px;"">
                            <p style=""font-size:50px; font-weight:bold;""
                            >sad</p>
                            <div style=""width:240px; margin: auto;"">
                                <img src=""images/map12_vanimo_scaleDef_orientDef_180.png"" style= ""width:200px""alt=""img"">
                            </div>
                        </div>","105","","0","","","","images/map12_vanimo_scaleDef_orientDef_180.png","sad","1","12","12","vanimo","orientDef","scaleDef","180","",""
"","","","","","html-button-response","58","162144","0.0-54.0","4rw6duu0ss","40","2829","<p>You are doing great!<br></br> You are halway done with the current block. When you are ready to continue, click the 'Continue' button.</p>","0","","","","","","","","","","","","","","","",""
"","","","","","html-slider-response","59","163202","0.0-55.0","4rw6duu0ss","40","NaN","<div style=""width:500px;"">
                            <p style=""font-size:50px; font-weight:bold;""
                            >sad</p>
                            <div style=""width:240px; margin: auto;"">
                                <img src=""images/map15_Blues_scaleRev_orientMir_270.png"" style= ""width:200px""alt=""img"">
                            </div>
                        </div>","-101","","0","","","","images/map15_Blues_scaleRev_orientMir_270.png","sad","1","15","15","Blues","orientMir","scaleRev","270","",""
"","","","","","html-slider-response","60","164283","0.0-56.0","4rw6duu0ss","40","NaN","<div style=""width:500px;"">
                            <p style=""font-size:50px; font-weight:bold;""
                            >sad</p>
                            <div style=""width:240px; margin: auto;"">
                                <img src=""images/map12_vanimo_scaleRev_orientDef_270.png"" style= ""width:200px""alt=""img"">
                            </div>
                        </div>","72","","0","","","","images/map12_vanimo_scaleRev_orientDef_270.png","sad","1","12","12","vanimo","orientDef","scaleRev","270","",""
"","","","","","html-slider-response","61","165430","0.0-57.0","4rw6duu0ss","40","NaN","<div style=""width:500px;"">
                            <p style=""font-size:50px; font-weight:bold;""
                            >sad</p>
                            <div style=""width:240px; margin: auto;"">
                                <img src=""images/map26_YlOrRd_scaleRev_orientDef_090.png"" style= ""width:200px""alt=""img"">
                            </div>
                        </div>","67","","0","","","","images/map26_YlOrRd_scaleRev_orientDef_090.png","sad","1","26","26","YlOrRd","orientDef","scaleRev","090","",""
"","","","","","html-slider-response","62","166550","0.0-58.0","4rw6duu0ss","40","NaN","<div style=""width:500px;"">
                            <p style=""font-size:50px; font-weight:bold;""
                            >sad</p>
                            <div style=""width:240px; margin: auto;"">
                                <img src=""images/map13_plasma_scaleRev_orientDef_270.png"" style= ""width:200px""alt=""img"">
                            </div>
                        </div>","-52","","0","","","","images/map13_plasma_scaleRev_orientDef_270.png","sad","1","13","13","plasma","orientDef","scaleRev","270","",""
"","","","","","html-slider-response","63","167590","0.0-59.0","4rw6duu0ss","40","NaN","<div style=""width:500px;"">
                            <p style=""font-size:50px; font-weight:bold;""
                            >sad</p>
                            <div style=""width:240px; margin: auto;"">
                                <img src=""images/map05_BrBG_scaleDef_orientDef_180.png"" style= ""width:200px""alt=""img"">
                            </div>
                        </div>","-25","","0","","","","images/map05_BrBG_scaleDef_orientDef_180.png","sad","1","05","05","BrBG","orientDef","scaleDef","180","",""
"","","","","","html-slider-response","64","168621","0.0-60.0","4rw6duu0ss","40","NaN","<div style=""width:500px;"">
                            <p style=""font-size:50px; font-weight:bold;""
                            >sad</p>
                            <div style=""width:240px; margin: auto;"">
                                <img src=""images/map05_PRGn_scaleDef_orientDef_000.png"" style= ""width:200px""alt=""img"">
                            </div>
                        </div>","138","","0","","","","images/map05_PRGn_scaleDef_orientDef_000.png","sad","1","05","05","PRGn","orientDef","scaleDef","000","",""
"","","","","","html-slider-response","65","170083","0.0-61.0","4rw6duu0ss","40","NaN","<div style=""width:500px;"">
                            <p style=""font-size:50px; font-weight:bold;""
                            >sad</p>
                            <div style=""width:240px; margin: auto;"">
                                <img src=""images/map13_viridis_scaleDef_orientDef_000.png"" style= ""width:200px""alt=""img"">
                            </div>
                        </div>","-70","","0","","","","images/map13_viridis_scaleDef_orientDef_000.png","sad","1","13","13","viridis","orientDef","scaleDef","000","",""
"","","","","","html-slider-response","66","171401","0.0-62.0","4rw6duu0ss","40","NaN","<div style=""width:500px;"">
                            <p style=""font-size:50px; font-weight:bold;""
                            >sad</p>
                            <div style=""width:240px; margin: auto;"">
                                <img src=""images/map10_berlin_scaleRev_orientMir_270.png"" style= ""width:200px""alt=""img"">
                            </div>
                        </div>","-105","","0","","","","images/map10_berlin_scaleRev_orientMir_270.png","sad","1","10","10","berlin","orientMir","scaleRev","270","",""
"","","","","","html-slider-response","67","172582","0.0-63.0","4rw6duu0ss","40","NaN","<div style=""width:500px;"">
                            <p style=""font-size:50px; font-weight:bold;""
                            >sad</p>
                            <div style=""width:240px; margin: auto;"">
                                <img src=""images/map05_RdGy_scaleDef_orientMir_180.png"" style= ""width:200px""alt=""img"">
                            </div>
                        </div>","-32","","0","","","","images/map05_RdGy_scaleDef_orientMir_180.png","sad","1","05","05","RdGy","orientMir","scaleDef","180","",""
"","","","","","html-slider-response","68","173624","0.0-64.0","4rw6duu0ss","40","NaN","<div style=""width:500px;"">
                            <p style=""font-size:50px; font-weight:bold;""
                            >sad</p>
                            <div style=""width:240px; margin: auto;"">
                                <img src=""images/map07_RdYlBu_scaleRev_orientDef_270.png"" style= ""width:200px""alt=""img"">
                            </div>
                        </div>","94","","0","","","","images/map07_RdYlBu_scaleRev_orientDef_270.png","sad","1","07","07","RdYlBu","orientDef","scaleRev","270","",""
"","","","","","html-slider-response","69","174924","0.0-65.0","4rw6duu0ss","40","NaN","<div style=""width:500px;"">
                            <p style=""font-size:50px; font-weight:bold;""
                            >sad</p>
                            <div style=""width:240px; margin: auto;"">
                                <img src=""images/map02_BuGn_scaleDef_orientDef_180.png"" style= ""width:200px""alt=""img"">
                            </div>
                        </div>","38","","0","","","","images/map02_BuGn_scaleDef_orientDef_180.png","sad","1","02","02","BuGn","orientDef","scaleDef","180","",""
"","","","","","html-slider-response","70","176009","0.0-66.0","4rw6duu0ss","40","NaN","<div style=""width:500px;"">
                            <p style=""font-size:50px; font-weight:bold;""
                            >sad</p>
                            <div style=""width:240px; margin: auto;"">
                                <img src=""images/map13_magma_scaleDef_orientMir_180.png"" style= ""width:200px""alt=""img"">
                            </div>
                        </div>","-34","","0","","","","images/map13_magma_scaleDef_orientMir_180.png","sad","1","13","13","magma","orientMir","scaleDef","180","",""
"","","","","","html-slider-response","71","177132","0.0-67.0","4rw6duu0ss","40","NaN","<div style=""width:500px;"">
                            <p style=""font-size:50px; font-weight:bold;""
                            >sad</p>
                            <div style=""width:240px; margin: auto;"">
                                <img src=""images/map05_PuOr_scaleDef_orientMir_000.png"" style= ""width:200px""alt=""img"">
                            </div>
                        </div>","-60","","0","","","","images/map05_PuOr_scaleDef_orientMir_000.png","sad","1","05","05","PuOr","orientMir","scaleDef","000","",""
"","","","","","html-slider-response","72","178357","0.0-68.0","4rw6duu0ss","40","NaN","<div style=""width:500px;"">
                            <p style=""font-size:50px; font-weight:bold;""
                            >sad</p>
                            <div style=""width:240px; margin: auto;"">
                                <img src=""images/map23_Oranges_scaleDef_orientDef_180.png"" style= ""width:200px""alt=""img"">
                            </div>
                        </div>","-96","","0","","","","images/map23_Oranges_scaleDef_orientDef_180.png","sad","1","23","23","Oranges","orientDef","scaleDef","180","",""
"","","","","","html-slider-response","73","179584","0.0-69.0","4rw6duu0ss","40","NaN","<div style=""width:500px;"">
                            <p style=""font-size:50px; font-weight:bold;""
                            >sad</p>
                            <div style=""width:240px; margin: auto;"">
                                <img src=""images/map12_gist_earth_scaleRev_orientMir_090.png"" style= ""width:200px""alt=""img"">
                            </div>
                        </div>","-45","","0","","","","images/map12_gist_earth_scaleRev_orientMir_090.png","sad","1","12","12","gist","scaleRev","earth","orientMir","",""
"","","","","","html-slider-response","74","181104","0.0-70.0","4rw6duu0ss","40","NaN","<div style=""width:500px;"">
                            <p style=""font-size:50px; font-weight:bold;""
                            >sad</p>
                            <div style=""width:240px; margin: auto;"">
                                <img src=""images/map05_PRGn_scaleRev_orientDef_090.png"" style= ""width:200px""alt=""img"">
                            </div>
                        </div>","-145","","0","","","","images/map05_PRGn_scaleRev_orientDef_090.png","sad","1","05","05","PRGn","orientDef","scaleRev","090","",""
"","","","","","html-slider-response","75","182346","0.0-71.0","4rw6duu0ss","40","NaN","<div style=""width:500px;"">
                            <p style=""font-size:50px; font-weight:bold;""
                            >sad</p>
                            <div style=""width:240px; margin: auto;"">
                                <img src=""images/map05_RdGy_scaleRev_orientMir_270.png"" style= ""width:200px""alt=""img"">
                            </div>
                        </div>","87","","0","","","","images/map05_RdGy_scaleRev_orientMir_270.png","sad","1","05","05","RdGy","orientMir","scaleRev","270","",""
"","","","","","html-slider-response","76","183904","0.0-72.0","4rw6duu0ss","40","NaN","<div style=""width:500px;"">
                            <p style=""font-size:50px; font-weight:bold;""
                            >sad</p>
                            <div style=""width:240px; margin: auto;"">
                                <img src=""images/map27_PuBu_scaleRev_orientMir_090.png"" style= ""width:200px""alt=""img"">
                            </div>
                        </div>","-136","","0","","","","images/map27_PuBu_scaleRev_orientMir_090.png","sad","1","27","27","PuBu","orientMir","scaleRev","090","",""
"","","","","","html-slider-response","77","186345","0.0-73.0","4rw6duu0ss","40","NaN","<div style=""width:500px;"">
                            <p style=""font-size:50px; font-weight:bold;""
                            >sad</p>
                            <div style=""width:240px; margin: auto;"">
                                <img src=""images/map07_RdYlBu_scaleDef_orientDef_180.png"" style= ""width:200px""alt=""img"">
                            </div>
                        </div>","84","","0","","","","images/map07_RdYlBu_scaleDef_orientDef_180.png","sad","1","07","07","RdYlBu","orientDef","scaleDef","180","",""
"","","","","","html-slider-response","78","188041","0.0-74.0","4rw6duu0ss","40","NaN","<div style=""width:500px;"">
                            <p style=""font-size:50px; font-weight:bold;""
                            >sad</p>
                            <div style=""width:240px; margin: auto;"">
                                <img src=""images/map07_RdBu_scaleRev_orientDef_090.png"" style= ""width:200px""alt=""img"">
                            </div>
                        </div>","84","","0","","","","images/map07_RdBu_scaleRev_orientDef_090.png","sad","1","07","07","RdBu","orientDef","scaleRev","090","",""
"","","","","","html-slider-response","79","189504","0.0-75.0","4rw6duu0ss","40","NaN","<div style=""width:500px;"">
                            <p style=""font-size:50px; font-weight:bold;""
                            >sad</p>
                            <div style=""width:240px; margin: auto;"">
                                <img src=""images/map13_inferno_scaleRev_orientMir_090.png"" style= ""width:200px""alt=""img"">
                            </div>
                        </div>","-79","","0","","","","images/map13_inferno_scaleRev_orientMir_090.png","sad","1","13","13","inferno","orientMir","scaleRev","090","",""
"","","","","","html-slider-response","80","190740","0.0-76.0","4rw6duu0ss","40","NaN","<div style=""width:500px;"">
                            <p style=""font-size:50px; font-weight:bold;""
                            >sad</p>
                            <div style=""width:240px; margin: auto;"">
                                <img src=""images/map23_YlOrBr_scaleRev_orientMir_270.png"" style= ""width:200px""alt=""img"">
                            </div>
                        </div>","-71","","0","","","","images/map23_YlOrBr_scaleRev_orientMir_270.png","sad","1","23","23","YlOrBr","orientMir","scaleRev","270","",""
"","","","","","html-slider-response","81","192399","0.0-77.0","4rw6duu0ss","40","NaN","<div style=""width:500px;"">
                            <p style=""font-size:50px; font-weight:bold;""
                            >sad</p>
                            <div style=""width:240px; margin: auto;"">
                                <img src=""images/map15_Greys_scaleDef_orientDef_180.png"" style= ""width:200px""alt=""img"">
                            </div>
                        </div>","99","","0","","","","images/map15_Greys_scaleDef_orientDef_180.png","sad","1","15","15","Greys","orientDef","scaleDef","180","",""
"","","","","","html-slider-response","82","193917","0.0-78.0","4rw6duu0ss","40","NaN","<div style=""width:500px;"">
                            <p style=""font-size:50px; font-weight:bold;""
                            >sad</p>
                            <div style=""width:240px; margin: auto;"">
                                <img src=""images/map10_bwr_scaleDef_orientDef_180.png"" style= ""width:200px""alt=""img"">
                            </div>
                        </div>","30","","0","","","","images/map10_bwr_scaleDef_orientDef_180.png","sad","1","10","10","bwr","orientDef","scaleDef","180","",""
"","","","","","html-slider-response","83","195429","0.0-79.0","4rw6duu0ss","40","NaN","<div style=""width:500px;"">
                            <p style=""font-size:50px; font-weight:bold;""
                            >sad</p>
                            <div style=""width:240px; margin: auto;"">
                                <img src=""images/map26_OrRd_scaleDef_orientDef_180.png"" style= ""width:200px""alt=""img"">
                            </div>
                        </div>","-41","","0","","","","images/map26_OrRd_scaleDef_orientDef_180.png","sad","1","26","26","OrRd","orientDef","scaleDef","180","",""
"","","","","","html-slider-response","84","196729","0.0-80.0","4rw6duu0ss","40","NaN","<div style=""width:500px;"">
                            <p style=""font-size:50px; font-weight:bold;""
                            >sad</p>
                            <div style=""width:240px; margin: auto;"">
                                <img src=""images/map02_PuBuGn_scaleRev_orientDef_090.png"" style= ""width:200px""alt=""img"">
                            </div>
                        </div>","-103","","0","","","","images/map02_PuBuGn_scaleRev_orientDef_090.png","sad","1","02","02","PuBuGn","orientDef","scaleRev","090","",""
"","","","","","html-slider-response","85","198004","0.0-81.0","4rw6duu0ss","40","NaN","<div style=""width:500px;"">
                            <p style=""font-size:50px; font-weight:bold;""
                            >sad</p>
                            <div style=""width:240px; margin: auto;"">
                                <img src=""images/map27_BuPu_scaleDef_orientDef_000.png"" style= ""width:200px""alt=""img"">
                            </div>
                        </div>","-131","","0","","","","images/map27_BuPu_scaleDef_orientDef_000.png","sad","1","27","27","BuPu","orientDef","scaleDef","000","",""
"","","","","","html-slider-response","86","199728","0.0-82.0","4rw6duu0ss","40","NaN","<div style=""width:500px;"">
                            <p style=""font-size:50px; font-weight:bold;""
                            >sad</p>
                            <div style=""width:240px; margin: auto;"">
                                <img src=""images/map26_OrRd_scaleRev_orientDef_270.png"" style= ""width:200px""alt=""img"">
                            </div>
                        </div>","32","","0","","","","images/map26_OrRd_scaleRev_orientDef_270.png","sad","1","26","26","OrRd","orientDef","scaleRev","270","",""
"","","","","","html-slider-response","87","200994","0.0-83.0","4rw6duu0ss","40","NaN","<div style=""width:500px;"">
                            <p style=""font-size:50px; font-weight:bold;""
                            >sad</p>
                            <div style=""width:240px; margin: auto;"">
                                <img src=""images/map10_berlin_scaleDef_orientMir_180.png"" style= ""width:200px""alt=""img"">
                            </div>
                        </div>","-139","","0","","","","images/map10_berlin_scaleDef_orientMir_180.png","sad","1","10","10","berlin","orientMir","scaleDef","180","",""
"","","","","","html-slider-response","88","202371","0.0-84.0","4rw6duu0ss","40","NaN","<div style=""width:500px;"">
                            <p style=""font-size:50px; font-weight:bold;""
                            >sad</p>
                            <div style=""width:240px; margin: auto;"">
                                <img src=""images/map02_YlGn_scaleRev_orientMir_090.png"" style= ""width:200px""alt=""img"">
                            </div>
                        </div>","-123","","0","","","","images/map02_YlGn_scaleRev_orientMir_090.png","sad","1","02","02","YlGn","orientMir","scaleRev","090","",""
"","","","","","html-slider-response","89","203717","0.0-85.0","4rw6duu0ss","40","NaN","<div style=""width:500px;"">
                            <p style=""font-size:50px; font-weight:bold;""
                            >sad</p>
                            <div style=""width:240px; margin: auto;"">
                                <img src=""images/map02_PuBuGn_scaleDef_orientDef_000.png"" style= ""width:200px""alt=""img"">
                            </div>
                        </div>","-88","","0","","","","images/map02_PuBuGn_scaleDef_orientDef_000.png","sad","1","02","02","PuBuGn","orientDef","scaleDef","000","",""
"","","","","","html-slider-response","90","205153","0.0-86.0","4rw6duu0ss","40","NaN","<div style=""width:500px;"">
                            <p style=""font-size:50px; font-weight:bold;""
                            >sad</p>
                            <div style=""width:240px; margin: auto;"">
                                <img src=""images/map07_RdBu_scaleDef_orientDef_000.png"" style= ""width:200px""alt=""img"">
                            </div>
                        </div>","-110","","0","","","","images/map07_RdBu_scaleDef_orientDef_000.png","sad","1","07","07","RdBu","orientDef","scaleDef","000","",""
"","","","","","html-slider-response","91","206624","0.0-87.0","4rw6duu0ss","40","NaN","<div style=""width:500px;"">
                            <p style=""font-size:50px; font-weight:bold;""
                            >sad</p>
                            <div style=""width:240px; margin: auto;"">
                                <img src=""images/map26_PuRd_scaleRev_orientMir_090.png"" style= ""width:200px""alt=""img"">
                            </div>
                        </div>","51","","0","","","","images/map26_PuRd_scaleRev_orientMir_090.png","sad","1","26","26","PuRd","orientMir","scaleRev","090","",""
"","","","","","html-slider-response","92","208017","0.0-88.0","4rw6duu0ss","40","NaN","<div style=""width:500px;"">
                            <p style=""font-size:50px; font-weight:bold;""
                            >sad</p>
                            <div style=""width:240px; margin: auto;"">
                                <img src=""images/map13_magma_scaleRev_orientMir_270.png"" style= ""width:200px""alt=""img"">
                            </div>
                        </div>","-58","","0","","","","images/map13_magma_scaleRev_orientMir_270.png","sad","1","13","13","magma","orientMir","scaleRev","270","",""
"","","","","","html-slider-response","93","209291","0.0-89.0","4rw6duu0ss","40","NaN","<div style=""width:500px;"">
                            <p style=""font-size:50px; font-weight:bold;""
                            >sad</p>
                            <div style=""width:240px; margin: auto;"">
                                <img src=""images/map26_RdPu_scaleRev_orientMir_270.png"" style= ""width:200px""alt=""img"">
                            </div>
                        </div>","85","","0","","","","images/map26_RdPu_scaleRev_orientMir_270.png","sad","1","26","26","RdPu","orientMir","scaleRev","270","",""
"","","","","","html-slider-response","94","210558","0.0-90.0","4rw6duu0ss","40","NaN","<div style=""width:500px;"">
                            <p style=""font-size:50px; font-weight:bold;""
                            >sad</p>
                            <div style=""width:240px; margin: auto;"">
                                <img src=""images/map05_PuOr_scaleRev_orientMir_090.png"" style= ""width:200px""alt=""img"">
                            </div>
                        </div>","-106","","0","","","","images/map05_PuOr_scaleRev_orientMir_090.png","sad","1","05","05","PuOr","orientMir","scaleRev","090","",""
"","","","","","html-slider-response","95","213946","0.0-91.0","4rw6duu0ss","40","NaN","<div style=""width:500px;"">
                            <p style=""font-size:50px; font-weight:bold;""
                            >sad</p>
                            <div style=""width:240px; margin: auto;"">
                                <img src=""images/map10_coolwarm_scaleDef_orientDef_000.png"" style= ""width:200px""alt=""img"">
                            </div>
                        </div>","43","","0","","","","images/map10_coolwarm_scaleDef_orientDef_000.png","sad","1","10","10","coolwarm","orientDef","scaleDef","000","",""
"","","","","","html-slider-response","96","222953","0.0-92.0","4rw6duu0ss","40","NaN","<div style=""width:500px;"">
                            <p style=""font-size:50px; font-weight:bold;""
                            >sad</p>
                            <div style=""width:240px; margin: auto;"">
                                <img src=""images/map23_YlOrBr_scaleDef_orientMir_180.png"" style= ""width:200px""alt=""img"">
                            </div>
                        </div>","76","","0","","","","images/map23_YlOrBr_scaleDef_orientMir_180.png","sad","1","23","23","YlOrBr","orientMir","scaleDef","180","",""
"","","","","","html-slider-response","97","225629","0.0-93.0","4rw6duu0ss","40","NaN","<div style=""width:500px;"">
                            <p style=""font-size:50px; font-weight:bold;""
                            >sad</p>
                            <div style=""width:240px; margin: auto;"">
                                <img src=""images/map10_seismic_scaleRev_orientMir_090.png"" style= ""width:200px""alt=""img"">
                            </div>
                        </div>","-62","","0","","","","images/map10_seismic_scaleRev_orientMir_090.png","sad","1","10","10","seismic","orientMir","scaleRev","090","",""
"","","","","","html-slider-response","98","227758","0.0-94.0","4rw6duu0ss","40","NaN","<div style=""width:500px;"">
                            <p style=""font-size:50px; font-weight:bold;""
                            >sad</p>
                            <div style=""width:240px; margin: auto;"">
                                <img src=""images/map02_BuGn_scaleRev_orientDef_270.png"" style= ""width:200px""alt=""img"">
                            </div>
                        </div>","-145","","0","","","","images/map02_BuGn_scaleRev_orientDef_270.png","sad","1","02","02","BuGn","orientDef","scaleRev","270","",""
"","","","","","html-button-response","99","232127","0.0-95.0","4rw6duu0ss","40","3867","<p>Great Job! You've finished block 1.<br></br> You have 4 block(s) left to go.<br></br></p>","0","","","","","","","","","","","","","","","",""
"","","","","","html-button-response","100","233990","0.0-96.0","4rw6duu0ss","40","1862","<p>In this block of trials, you will be asked to rate how much you associate each map with:</p > <p style = 'font-size:150%; font-weight: bold'>happy</p><br></br>","0","","","","","","","","","","","","","","","",""
"","","","","","html-slider-response","101","260721","0.0-97.0","4rw6duu0ss","40","NaN","<div style=""width:500px;"">
                            <p style=""font-size:50px; font-weight:bold;""
                            >happy</p>
                            <div style=""width:240px; margin: auto;"">
                                <img src=""images/map12_gist_earth_scaleDef_orientMir_000.png"" style= ""width:200px""alt=""img"">
                            </div>
                        </div>","146","","0","","","","images/map12_gist_earth_scaleDef_orientMir_000.png","happy","1","12","12","gist","scaleDef","earth","orientMir","",""
"","","","","","html-slider-response","102","262161","0.0-98.0","4rw6duu0ss","40","NaN","<div style=""width:500px;"">
                            <p style=""font-size:50px; font-weight:bold;""
                            >happy</p>
                            <div style=""width:240px; margin: auto;"">
                                <img src=""images/map27_PuBu_scaleDef_orientMir_000.png"" style= ""width:200px""alt=""img"">
                            </div>
                        </div>","-82","","0","","","","images/map27_PuBu_scaleDef_orientMir_000.png","happy","1","27","27","PuBu","orientMir","scaleDef","000","",""
"","","","","","html-slider-response","103","263627","0.0-99.0","4rw6duu0ss","40","NaN","<div style=""width:500px;"">
                            <p style=""font-size:50px; font-weight:bold;""
                            >happy</p>
                            <div style=""width:240px; margin: auto;"">
                                <img src=""images/map26_OrRd_scaleRev_orientDef_270.png"" style= ""width:200px""alt=""img"">
                            </div>
                        </div>","54","","0","","","","images/map26_OrRd_scaleRev_orientDef_270.png","happy","1","26","26","OrRd","orientDef","scaleRev","270","",""
"","","","","","html-slider-response","104","264754","0.0-100.0","4rw6duu0ss","40","NaN","<div style=""width:500px;"">
                            <p style=""font-size:50px; font-weight:bold;""
                            >happy</p>
                            <div style=""width:240px; margin: auto;"">
                                <img src=""images/map26_RdPu_scaleDef_orientMir_180.png"" style= ""width:200px""alt=""img"">
                            </div>
                        </div>","29","","0","","","","images/map26_RdPu_scaleDef_orientMir_180.png","happy","1","26","26","RdPu","orientMir","scaleDef","180","",""
"","","","","","html-slider-response","105","265884","0.0-101.0","4rw6duu0ss","40","NaN","<div style=""width:500px;"">
                            <p style=""font-size:50px; font-weight:bold;""
                            >happy</p>
                            <div style=""width:240px; margin: auto;"">
                                <img src=""images/map27_BuPu_scaleDef_orientDef_000.png"" style= ""width:200px""alt=""img"">
                            </div>
                        </div>","-70","","0","","","","images/map27_BuPu_scaleDef_orientDef_000.png","happy","1","27","27","BuPu","orientDef","scaleDef","000","",""
"","","","","","html-slider-response","106","267012","0.0-102.0","4rw6duu0ss","40","NaN","<div style=""width:500px;"">
                            <p style=""font-size:50px; font-weight:bold;""
                            >happy</p>
                            <div style=""width:240px; margin: auto;"">
                                <img src=""images/map07_RdBu_scaleDef_orientDef_000.png"" style= ""width:200px""alt=""img"">
                            </div>
                        </div>","-134","","0","","","","images/map07_RdBu_scaleDef_orientDef_000.png","happy","1","07","07","RdBu","orientDef","scaleDef","000","",""
"","","","","","html-slider-response","107","268679","0.0-103.0","4rw6duu0ss","40","NaN","<div style=""width:500px;"">
                            <p style=""font-size:50px; font-weight:bold;""
                            >happy</p>
                            <div style=""width:240px; margin: auto;"">
                                <img src=""images/map07_Spectral_scaleRev_orientMir_270.png"" style= ""width:200px""alt=""img"">
                            </div>
                        </div>","-144","","0","","","","images/map07_Spectral_scaleRev_orientMir_270.png","happy","1","07","07","Spectral","orientMir","scaleRev","270","",""
"","","","","","html-slider-response","108","270020","0.0-104.0","4rw6duu0ss","40","NaN","<div style=""width:500px;"">
                            <p style=""font-size:50px; font-weight:bold;""
                            >happy</p>
                            <div style=""width:240px; margin: auto;"">
                                <img src=""images/map10_berlin_scaleRev_orientMir_270.png"" style= ""width:200px""alt=""img"">
                            </div>
                        </div>","-140","","0","","","","images/map10_berlin_scaleRev_orientMir_270.png","happy","1","10","10","berlin","orientMir","scaleRev","270","",""
"","","","","","html-slider-response","109","271329","0.0-105.0","4rw6duu0ss","40","NaN","<div style=""width:500px;"">
                            <p style=""font-size:50px; font-weight:bold;""
                            >happy</p>
                            <div style=""width:240px; margin: auto;"">
                                <img src=""images/map05_RdGy_scaleDef_orientMir_180.png"" style= ""width:200px""alt=""img"">
                            </div>
                        </div>","-114","","0","","","","images/map05_RdGy_scaleDef_orientMir_180.png","happy","1","05","05","RdGy","orientMir","scaleDef","180","",""
"","","","","","html-slider-response","110","272425","0.0-106.0","4rw6duu0ss","40","NaN","<div style=""width:500px;"">
                            <p style=""font-size:50px; font-weight:bold;""
                            >happy</p>
                            <div style=""width:240px; margin: auto;"">
                                <img src=""images/map10_seismic_scaleRev_orientMir_090.png"" style= ""width:200px""alt=""img"">
                            </div>
                        </div>","-145","","0","","","","images/map10_seismic_scaleRev_orientMir_090.png","happy","1","10","10","seismic","orientMir","scaleRev","090","",""
"","","","","","html-slider-response","111","273782","0.0-107.0","4rw6duu0ss","40","NaN","<div style=""width:500px;"">
                            <p style=""font-size:50px; font-weight:bold;""
                            >happy</p>
                            <div style=""width:240px; margin: auto;"">
                                <img src=""images/map15_Blues_scaleDef_orientMir_180.png"" style= ""width:200px""alt=""img"">
                            </div>
                        </div>","-141","","0","","","","images/map15_Blues_scaleDef_orientMir_180.png","happy","1","15","15","Blues","orientMir","scaleDef","180","",""
"","","","","","html-slider-response","112","275465","0.0-108.0","4rw6duu0ss","40","NaN","<div style=""width:500px;"">
                            <p style=""font-size:50px; font-weight:bold;""
                            >happy</p>
                            <div style=""width:240px; margin: auto;"">
                                <img src=""images/map27_BuPu_scaleRev_orientDef_090.png"" style= ""width:200px""alt=""img"">
                            </div>
                        </div>","-185","","0","","","","images/map27_BuPu_scaleRev_orientDef_090.png","happy","1","27","27","BuPu","orientDef","scaleRev","090","",""
"","","","","","html-slider-response","113","276741","0.0-109.0","4rw6duu0ss","40","NaN","<div style=""width:500px;"">
                            <p style=""font-size:50px; font-weight:bold;""
                            >happy</p>
                            <div style=""width:240px; margin: auto;"">
                                <img src=""images/map13_inferno_scaleRev_orientMir_090.png"" style= ""width:200px""alt=""img"">
                            </div>
                        </div>","-125","","0","","","","images/map13_inferno_scaleRev_orientMir_090.png","happy","1","13","13","inferno","orientMir","scaleRev","090","",""
"","","","","","html-slider-response","114","278042","0.0-110.0","4rw6duu0ss","40","NaN","<div style=""width:500px;"">
                            <p style=""font-size:50px; font-weight:bold;""
                            >happy</p>
                            <div style=""width:240px; margin: auto;"">
                                <img src=""images/map26_YlOrRd_scaleDef_orientDef_000.png"" style= ""width:200px""alt=""img"">
                            </div>
                        </div>","-145","","0","","","","images/map26_YlOrRd_scaleDef_orientDef_000.png","happy","1","26","26","YlOrRd","orientDef","scaleDef","000","",""
"","","","","","html-slider-response","115","278942","0.0-111.0","4rw6duu0ss","40","NaN","<div style=""width:500px;"">
                            <p style=""font-size:50px; font-weight:bold;""
                            >happy</p>
                            <div style=""width:240px; margin: auto;"">
                                <img src=""images/map10_berlin_scaleDef_orientMir_180.png"" style= ""width:200px""alt=""img"">
                            </div>
                        </div>","-150","","0","","","","images/map10_berlin_scaleDef_orientMir_180.png","happy","1","10","10","berlin","orientMir","scaleDef","180","",""
"","","","","","html-slider-response","116","279780","0.0-112.0","4rw6duu0ss","40","NaN","<div style=""width:500px;"">
                            <p style=""font-size:50px; font-weight:bold;""
                            >happy</p>
                            <div style=""width:240px; margin: auto;"">
                                <img src=""images/map10_bwr_scaleRev_orientDef_270.png"" style= ""width:200px""alt=""img"">
                            </div>
                        </div>","-164","","0","","","","images/map10_bwr_scaleRev_orientDef_270.png","happy","1","10","10","bwr","orientDef","scaleRev","270","",""
"","","","","","html-slider-response","117","280616","0.0-113.0","4rw6duu0ss","40","NaN","<div style=""width:500px;"">
                            <p style=""font-size:50px; font-weight:bold;""
                            >happy</p>
                            <div style=""width:240px; margin: auto;"">
                                <img src=""images/map27_YlGnBu_scaleDef_orientMir_180.png"" style= ""width:200px""alt=""img"">
                            </div>
                        </div>","-178","","0","","","","images/map27_YlGnBu_scaleDef_orientMir_180.png","happy","1","27","27","YlGnBu","orientMir","scaleDef","180","",""
"","","","","","html-slider-response","118","281405","0.0-114.0","4rw6duu0ss","40","NaN","<div style=""width:500px;"">
                            <p style=""font-size:50px; font-weight:bold;""
                            >happy</p>
                            <div style=""width:240px; margin: auto;"">
                                <img src=""images/map26_RdPu_scaleRev_orientMir_270.png"" style= ""width:200px""alt=""img"">
                            </div>
                        </div>","-163","","0","","","","images/map26_RdPu_scaleRev_orientMir_270.png","happy","1","26","26","RdPu","orientMir","scaleRev","270","",""
"","","","","","html-slider-response","119","282609","0.0-115.0","4rw6duu0ss","40","NaN","<div style=""width:500px;"">
                            <p style=""font-size:50px; font-weight:bold;""
                            >happy</p>
                            <div style=""width:240px; margin: auto;"">
                                <img src=""images/map13_magma_scaleRev_orientMir_270.png"" style= ""width:200px""alt=""img"">
                            </div>
                        </div>","-170","","0","","","","images/map13_magma_scaleRev_orientMir_270.png","happy","1","13","13","magma","orientMir","scaleRev","270","",""
"","","","","","html-slider-response","120","363605","0.0-116.0","4rw6duu0ss","40","NaN","<div style=""width:500px;"">
                            <p style=""font-size:50px; font-weight:bold;""
                            >happy</p>
                            <div style=""width:240px; margin: auto;"">
                                <img src=""images/map02_BuGn_scaleDef_orientDef_180.png"" style= ""width:200px""alt=""img"">
                            </div>
                        </div>","-200","","0","","","","images/map02_BuGn_scaleDef_orientDef_180.png","happy","1","02","02","BuGn","orientDef","scaleDef","180","",""
"","","","","","html-slider-response","121","364655","0.0-117.0","4rw6duu0ss","40","NaN","<div style=""width:500px;"">
                            <p style=""font-size:50px; font-weight:bold;""
                            >happy</p>
                            <div style=""width:240px; margin: auto;"">
                                <img src=""images/map12_vanimo_scaleRev_orientDef_270.png"" style= ""width:200px""alt=""img"">
                            </div>
                        </div>","-174","","0","","","","images/map12_vanimo_scaleRev_orientDef_270.png","happy","1","12","12","vanimo","orientDef","scaleRev","270","",""
"","","","","","html-slider-response","122","365313","0.0-118.0","4rw6duu0ss","40","NaN","<div style=""width:500px;"">
                            <p style=""font-size:50px; font-weight:bold;""
                            >happy</p>
                            <div style=""width:240px; margin: auto;"">
                                <img src=""images/map13_viridis_scaleRev_orientDef_090.png"" style= ""width:200px""alt=""img"">
                            </div>
                        </div>","-177","","0","","","","images/map13_viridis_scaleRev_orientDef_090.png","happy","1","13","13","viridis","orientDef","scaleRev","090","",""
"","","","","","html-slider-response","123","366049","0.0-119.0","4rw6duu0ss","40","NaN","<div style=""width:500px;"">
                            <p style=""font-size:50px; font-weight:bold;""
                            >happy</p>
                            <div style=""width:240px; margin: auto;"">
                                <img src=""images/map23_Oranges_scaleDef_orientDef_180.png"" style= ""width:200px""alt=""img"">
                            </div>
                        </div>","-177","","0","","","","images/map23_Oranges_scaleDef_orientDef_180.png","happy","1","23","23","Oranges","orientDef","scaleDef","180","",""
"","","","","","html-slider-response","124","366752","0.0-120.0","4rw6duu0ss","40","NaN","<div style=""width:500px;"">
                            <p style=""font-size:50px; font-weight:bold;""
                            >happy</p>
                            <div style=""width:240px; margin: auto;"">
                                <img src=""images/map12_turbo_scaleRev_orientMir_270.png"" style= ""width:200px""alt=""img"">
                            </div>
                        </div>","-177","","0","","","","images/map12_turbo_scaleRev_orientMir_270.png","happy","1","12","12","turbo","orientMir","scaleRev","270","",""
"","","","","","html-slider-response","125","367855","0.0-121.0","4rw6duu0ss","40","NaN","<div style=""width:500px;"">
                            <p style=""font-size:50px; font-weight:bold;""
                            >happy</p>
                            <div style=""width:240px; margin: auto;"">
                                <img src=""images/map12_gist_earth_scaleRev_orientMir_090.png"" style= ""width:200px""alt=""img"">
                            </div>
                        </div>","-177","","0","","","","images/map12_gist_earth_scaleRev_orientMir_090.png","happy","1","12","12","gist","scaleRev","earth","orientMir","",""
"","","","","","html-slider-response","126","368604","0.0-122.0","4rw6duu0ss","40","NaN","<div style=""width:500px;"">
                            <p style=""font-size:50px; font-weight:bold;""
                            >happy</p>
                            <div style=""width:240px; margin: auto;"">
                                <img src=""images/map12_managua_scaleDef_orientDef_000.png"" style= ""width:200px""alt=""img"">
                            </div>
                        </div>","-178","","0","","","","images/map12_managua_scaleDef_orientDef_000.png","happy","1","12","12","managua","orientDef","scaleDef","000","",""
"","","","","","html-slider-response","127","369334","0.0-123.0","4rw6duu0ss","40","NaN","<div style=""width:500px;"">
                            <p style=""font-size:50px; font-weight:bold;""
                            >happy</p>
                            <div style=""width:240px; margin: auto;"">
                                <img src=""images/map13_plasma_scaleRev_orientDef_270.png"" style= ""width:200px""alt=""img"">
                            </div>
                        </div>","-178","","0","","","","images/map13_plasma_scaleRev_orientDef_270.png","happy","1","13","13","plasma","orientDef","scaleRev","270","",""
"","","","","","html-slider-response","128","370017","0.0-124.0","4rw6duu0ss","40","NaN","<div style=""width:500px;"">
                            <p style=""font-size:50px; font-weight:bold;""
                            >happy</p>
                            <div style=""width:240px; margin: auto;"">
                                <img src=""images/map07_RdYlGn_scaleDef_orientMir_000.png"" style= ""width:200px""alt=""img"">
                            </div>
                        </div>","-155","","0","","","","images/map07_RdYlGn_scaleDef_orientMir_000.png","happy","1","07","07","RdYlGn","orientMir","scaleDef","000","",""
"","","","","","html-slider-response","129","370907","0.0-125.0","4rw6duu0ss","40","NaN","<div style=""width:500px;"">
                            <p style=""font-size:50px; font-weight:bold;""
                            >happy</p>
                            <div style=""width:240px; margin: auto;"">
                                <img src=""images/map02_YlGn_scaleDef_orientMir_000.png"" style= ""width:200px""alt=""img"">
                            </div>
                        </div>","-194","","0","","","","images/map02_YlGn_scaleDef_orientMir_000.png","happy","1","02","02","YlGn","orientMir","scaleDef","000","",""
"","","","","","html-slider-response","130","372131","0.0-126.0","4rw6duu0ss","40","NaN","<div style=""width:500px;"">
                            <p style=""font-size:50px; font-weight:bold;""
                            >happy</p>
                            <div style=""width:240px; margin: auto;"">
                                <img src=""images/map02_PiYG_scaleDef_orientMir_180.png"" style= ""width:200px""alt=""img"">
                            </div>
                        </div>","-131","","0","","","","images/map02_PiYG_scaleDef_orientMir_180.png","happy","1","02","02","PiYG","orientMir","scaleDef","180","",""
"","","","","","html-slider-response","131","373073","0.0-127.0","4rw6duu0ss","40","NaN","<div style=""width:500px;"">
                            <p style=""font-size:50px; font-weight:bold;""
                            >happy</p>
                            <div style=""width:240px; margin: auto;"">
                                <img src=""images/map07_Spectral_scaleDef_orientMir_180.png"" style= ""width:200px""alt=""img"">
                            </div>
                        </div>","-179","","0","","","","images/map07_Spectral_scaleDef_orientMir_180.png","happy","1","07","07","Spectral","orientMir","scaleDef","180","",""
"","","","","","html-slider-response","132","374894","0.0-128.0","4rw6duu0ss","40","NaN","<div style=""width:500px;"">
                            <p style=""font-size:50px; font-weight:bold;""
                            >happy</p>
                            <div style=""width:240px; margin: auto;"">
                                <img src=""images/map27_GnBu_scaleRev_orientDef_270.png"" style= ""width:200px""alt=""img"">
                            </div>
                        </div>","-118","","0","","","","images/map27_GnBu_scaleRev_orientDef_270.png","happy","1","27","27","GnBu","orientDef","scaleRev","270","",""
"","","","","","html-slider-response","133","376244","0.0-129.0","4rw6duu0ss","40","NaN","<div style=""width:500px;"">
                            <p style=""font-size:50px; font-weight:bold;""
                            >happy</p>
                            <div style=""width:240px; margin: auto;"">
                                <img src=""images/map27_PuBu_scaleRev_orientMir_090.png"" style= ""width:200px""alt=""img"">
                            </div>
                        </div>","-184","","0","","","","images/map27_PuBu_scaleRev_orientMir_090.png","happy","1","27","27","PuBu","orientMir","scaleRev","090","",""
"","","","","","html-slider-response","134","377332","0.0-130.0","4rw6duu0ss","40","NaN","<div style=""width:500px;"">
                            <p style=""font-size:50px; font-weight:bold;""
                            >happy</p>
                            <div style=""width:240px; margin: auto;"">
                                <img src=""images/map12_vanimo_scaleDef_orientDef_180.png"" style= ""width:200px""alt=""img"">
                            </div>
                        </div>","-98","","0","","","","images/map12_vanimo_scaleDef_orientDef_180.png","happy","1","12","12","vanimo","orientDef","scaleDef","180","",""
"","","","","","html-slider-response","135","379120","0.0-131.0","4rw6duu0ss","40","NaN","<div style=""width:500px;"">
                            <p style=""font-size:50px; font-weight:bold;""
                            >happy</p>
                            <div style=""width:240px; margin: auto;"">
                                <img src=""images/map26_OrRd_scaleDef_orientDef_180.png"" style= ""width:200px""alt=""img"">
                            </div>
                        </div>","-92","","0","","","","images/map26_OrRd_scaleDef_orientDef_180.png","happy","1","26","26","OrRd","orientDef","scaleDef","180","",""
"","","","","","html-slider-response","136","380074","0.0-132.0","4rw6duu0ss","40","NaN","<div style=""width:500px;"">
                            <p style=""font-size:50px; font-weight:bold;""
                            >happy</p>
                            <div style=""width:240px; margin: auto;"">
                                <img src=""images/map15_cividis_scaleDef_orientDef_000.png"" style= ""width:200px""alt=""img"">
                            </div>
                        </div>","-146","","0","","","","images/map15_cividis_scaleDef_orientDef_000.png","happy","1","15","15","cividis","orientDef","scaleDef","000","",""
"","","","","","html-slider-response","137","381066","0.0-133.0","4rw6duu0ss","40","NaN","<div style=""width:500px;"">
                            <p style=""font-size:50px; font-weight:bold;""
                            >happy</p>
                            <div style=""width:240px; margin: auto;"">
                                <img src=""images/map26_YlOrRd_scaleRev_orientDef_090.png"" style= ""width:200px""alt=""img"">
                            </div>
                        </div>","-162","","0","","","","images/map26_YlOrRd_scaleRev_orientDef_090.png","happy","1","26","26","YlOrRd","orientDef","scaleRev","090","",""
"","","","","","html-slider-response","138","382172","0.0-134.0","4rw6duu0ss","40","NaN","<div style=""width:500px;"">
                            <p style=""font-size:50px; font-weight:bold;""
                            >happy</p>
                            <div style=""width:240px; margin: auto;"">
                                <img src=""images/map05_BrBG_scaleDef_orientDef_180.png"" style= ""width:200px""alt=""img"">
                            </div>
                        </div>","-162","","0","","","","images/map05_BrBG_scaleDef_orientDef_180.png","happy","1","05","05","BrBG","orientDef","scaleDef","180","",""
"","","","","","html-slider-response","139","383301","0.0-135.0","4rw6duu0ss","40","NaN","<div style=""width:500px;"">
                            <p style=""font-size:50px; font-weight:bold;""
                            >happy</p>
                            <div style=""width:240px; margin: auto;"">
                                <img src=""images/map02_YlGn_scaleRev_orientMir_090.png"" style= ""width:200px""alt=""img"">
                            </div>
                        </div>","-196","","0","","","","images/map02_YlGn_scaleRev_orientMir_090.png","happy","1","02","02","YlGn","orientMir","scaleRev","090","",""
"","","","","","html-slider-response","140","384217","0.0-136.0","4rw6duu0ss","40","NaN","<div style=""width:500px;"">
                            <p style=""font-size:50px; font-weight:bold;""
                            >happy</p>
                            <div style=""width:240px; margin: auto;"">
                                <img src=""images/map10_coolwarm_scaleRev_orientDef_090.png"" style= ""width:200px""alt=""img"">
                            </div>
                        </div>","-132","","0","","","","images/map10_coolwarm_scaleRev_orientDef_090.png","happy","1","10","10","coolwarm","orientDef","scaleRev","090","",""
"","","","","","html-button-response","141","387694","0.0-137.0","4rw6duu0ss","40","2974","<p>You are doing great!<br></br> You are halway done with the current block. When you are ready to continue, click the 'Continue' button.</p>","0","","","","","","","","","","","","","","","",""
"","","","","","html-slider-response","142","389809","0.0-138.0","4rw6duu0ss","40","NaN","<div style=""width:500px;"">
                            <p style=""font-size:50px; font-weight:bold;""
                            >happy</p>
                            <div style=""width:240px; margin: auto;"">
                                <img src=""images/map02_PuBuGn_scaleRev_orientDef_090.png"" style= ""width:200px""alt=""img"">
                            </div>
                        </div>","-76","","0","","","","images/map02_PuBuGn_scaleRev_orientDef_090.png","happy","1","02","02","PuBuGn","orientDef","scaleRev","090","",""
"","","","","","html-slider-response","143","390648","0.0-139.0","4rw6duu0ss","40","NaN","<div style=""width:500px;"">
                            <p style=""font-size:50px; font-weight:bold;""
                            >happy</p>
                            <div style=""width:240px; margin: auto;"">
                                <img src=""images/map07_RdYlBu_scaleRev_orientDef_270.png"" style= ""width:200px""alt=""img"">
                            </div>
                        </div>","-113","","0","","","","images/map07_RdYlBu_scaleRev_orientDef_270.png","happy","1","07","07","RdYlBu","orientDef","scaleRev","270","",""
"","","","","","html-slider-response","144","391517","0.0-140.0","4rw6duu0ss","40","NaN","<div style=""width:500px;"">
                            <p style=""font-size:50px; font-weight:bold;""
                            >happy</p>
                            <div style=""width:240px; margin: auto;"">
                                <img src=""images/map15_Purples_scaleDef_orientMir_000.png"" style= ""width:200px""alt=""img"">
                            </div>
                        </div>","-129","","0","","","","images/map15_Purples_scaleDef_orientMir_000.png","happy","1","15","15","Purples","orientMir","scaleDef","000","",""
"","","","","","html-slider-response","145","392290","0.0-141.0","4rw6duu0ss","40","NaN","<div style=""width:500px;"">
                            <p style=""font-size:50px; font-weight:bold;""
                            >happy</p>
                            <div style=""width:240px; margin: auto;"">
                                <img src=""images/map13_viridis_scaleDef_orientDef_000.png"" style= ""width:200px""alt=""img"">
                            </div>
                        </div>","-138","","0","","","","images/map13_viridis_scaleDef_orientDef_000.png","happy","1","13","13","viridis","orientDef","scaleDef","000","",""
"","","","","","html-slider-response","146","392998","0.0-142.0","4rw6duu0ss","40","NaN","<div style=""width:500px;"">
                            <p style=""font-size:50px; font-weight:bold;""
                            >happy</p>
                            <div style=""width:240px; margin: auto;"">
                                <img src=""images/map10_seismic_scaleDef_orientMir_000.png"" style= ""width:200px""alt=""img"">
                            </div>
                        </div>","-158","","0","","","","images/map10_seismic_scaleDef_orientMir_000.png","happy","1","10","10","seismic","orientMir","scaleDef","000","",""
"","","","","","html-slider-response","147","393776","0.0-143.0","4rw6duu0ss","40","NaN","<div style=""width:500px;"">
                            <p style=""font-size:50px; font-weight:bold;""
                            >happy</p>
                            <div style=""width:240px; margin: auto;"">
                                <img src=""images/map23_Reds_scaleDef_orientMir_000.png"" style= ""width:200px""alt=""img"">
                            </div>
                        </div>","-76","","0","","","","images/map23_Reds_scaleDef_orientMir_000.png","happy","1","23","23","Reds","orientMir","scaleDef","000","",""
"","","","","","html-slider-response","148","394635","0.0-144.0","4rw6duu0ss","40","NaN","<div style=""width:500px;"">
                            <p style=""font-size:50px; font-weight:bold;""
                            >happy</p>
                            <div style=""width:240px; margin: auto;"">
                                <img src=""images/map05_PRGn_scaleRev_orientDef_090.png"" style= ""width:200px""alt=""img"">
                            </div>
                        </div>","-139","","0","","","","images/map05_PRGn_scaleRev_orientDef_090.png","happy","1","05","05","PRGn","orientDef","scaleRev","090","",""
"","","","","","html-slider-response","149","395598","0.0-145.0","4rw6duu0ss","40","NaN","<div style=""width:500px;"">
                            <p style=""font-size:50px; font-weight:bold;""
                            >happy</p>
                            <div style=""width:240px; margin: auto;"">
                                <img src=""images/map12_managua_scaleRev_orientDef_090.png"" style= ""width:200px""alt=""img"">
                            </div>
                        </div>","-106","","0","","","","images/map12_managua_scaleRev_orientDef_090.png","happy","1","12","12","managua","orientDef","scaleRev","090","",""
"","","","","","html-slider-response","150","396926","0.0-146.0","4rw6duu0ss","40","NaN","<div style=""width:500px;"">
                            <p style=""font-size:50px; font-weight:bold;""
                            >happy</p>
                            <div style=""width:240px; margin: auto;"">
                                <img src=""images/map02_PiYG_scaleRev_orientMir_270.png"" style= ""width:200px""alt=""img"">
                            </div>
                        </div>","-182","","0","","","","images/map02_PiYG_scaleRev_orientMir_270.png","happy","1","02","02","PiYG","orientMir","scaleRev","270","",""
"","","","","","html-slider-response","151","398055","0.0-147.0","4rw6duu0ss","40","NaN","<div style=""width:500px;"">
                            <p style=""font-size:50px; font-weight:bold;""
                            >happy</p>
                            <div style=""width:240px; margin: auto;"">
                                <img src=""images/map23_Greens_scaleDef_orientDef_000.png"" style= ""width:200px""alt=""img"">
                            </div>
                        </div>","-69","","0","","","","images/map23_Greens_scaleDef_orientDef_000.png","happy","1","23","23","Greens","orientDef","scaleDef","000","",""
"","","","","","html-slider-response","152","399010","0.0-148.0","4rw6duu0ss","40","NaN","<div style=""width:500px;"">
                            <p style=""font-size:50px; font-weight:bold;""
                            >happy</p>
                            <div style=""width:240px; margin: auto;"">
                                <img src=""images/map26_PuRd_scaleDef_orientMir_000.png"" style= ""width:200px""alt=""img"">
                            </div>
                        </div>","-133","","0","","","","images/map26_PuRd_scaleDef_orientMir_000.png","happy","1","26","26","PuRd","orientMir","scaleDef","000","",""
"","","","","","html-slider-response","153","399934","0.0-149.0","4rw6duu0ss","40","NaN","<div style=""width:500px;"">
                            <p style=""font-size:50px; font-weight:bold;""
                            >happy</p>
                            <div style=""width:240px; margin: auto;"">
                                <img src=""images/map07_RdYlBu_scaleDef_orientDef_180.png"" style= ""width:200px""alt=""img"">
                            </div>
                        </div>","-98","","0","","","","images/map07_RdYlBu_scaleDef_orientDef_180.png","happy","1","07","07","RdYlBu","orientDef","scaleDef","180","",""
"","","","","","html-slider-response","154","400859","0.0-150.0","4rw6duu0ss","40","NaN","<div style=""width:500px;"">
                            <p style=""font-size:50px; font-weight:bold;""
                            >happy</p>
                            <div style=""width:240px; margin: auto;"">
                                <img src=""images/map10_bwr_scaleDef_orientDef_180.png"" style= ""width:200px""alt=""img"">
                            </div>
                        </div>","-163","","0","","","","images/map10_bwr_scaleDef_orientDef_180.png","happy","1","10","10","bwr","orientDef","scaleDef","180","",""
"","","","","","html-slider-response","155","401843","0.0-151.0","4rw6duu0ss","40","NaN","<div style=""width:500px;"">
                            <p style=""font-size:50px; font-weight:bold;""
                            >happy</p>
                            <div style=""width:240px; margin: auto;"">
                                <img src=""images/map23_YlOrBr_scaleRev_orientMir_270.png"" style= ""width:200px""alt=""img"">
                            </div>
                        </div>","-58","","0","","","","images/map23_YlOrBr_scaleRev_orientMir_270.png","happy","1","23","23","YlOrBr","orientMir","scaleRev","270","",""
"","","","","","html-slider-response","156","402740","0.0-152.0","4rw6duu0ss","40","NaN","<div style=""width:500px;"">
                            <p style=""font-size:50px; font-weight:bold;""
                            >happy</p>
                            <div style=""width:240px; margin: auto;"">
                                <img src=""images/map23_Greens_scaleRev_orientDef_090.png"" style= ""width:200px""alt=""img"">
                            </div>
                        </div>","-112","","0","","","","images/map23_Greens_scaleRev_orientDef_090.png","happy","1","23","23","Greens","orientDef","scaleRev","090","",""
"","","","","","html-slider-response","157","403739","0.0-153.0","4rw6duu0ss","40","NaN","<div style=""width:500px;"">
                            <p style=""font-size:50px; font-weight:bold;""
                            >happy</p>
                            <div style=""width:240px; margin: auto;"">
                                <img src=""images/map15_Greys_scaleRev_orientDef_270.png"" style= ""width:200px""alt=""img"">
                            </div>
                        </div>","-154","","0","","","","images/map15_Greys_scaleRev_orientDef_270.png","happy","1","15","15","Greys","orientDef","scaleRev","270","",""
"","","","","","html-slider-response","158","404843","0.0-154.0","4rw6duu0ss","40","NaN","<div style=""width:500px;"">
                            <p style=""font-size:50px; font-weight:bold;""
                            >happy</p>
                            <div style=""width:240px; margin: auto;"">
