"success","timeout","failed_images","failed_audio","failed_video","trial_type","trial_index","time_elapsed","internal_node_id","subject_id","condition_num","rt","stimulus","response","question_order","slider_start","practiceTrial","practiceTrialNum","correct","image_path","concept","repetition","map_id","map_num","scale_name","orientation_code","mapping_code","rotation_code","ishihara_plate","correct_response"
"true","false","[]","[]","[]","preload","0","928","0.0-0.0","58pqxtcva5","37","","","","","","","","","","","","","","","","","","",""
"","","","","","html-button-response","1","2841","0.0-1.0","58pqxtcva5","37","1911","Welcome to our experiment!<p>At the bottom of this screen, you will see a button that says ""Begin Experiment"".<br>Please only click that button when you are ready to complete the 30 minute experiment in one sitting.</p><p> Once you click that button, it will not be possible to restart the experiment.","0","","","","","","","","","","","","","","","",""
"true","","","","","fullscreen","2","4676","0.0-2.0","58pqxtcva5","37","831","","","","","","","","","","","","","","","","","",""
"","","","","","survey-multi-select","3","9342","0.0-3.0","58pqxtcva5","37","4660","","{""Consent"":[""<strong>I consent</strong>""]}","[0]","","","","","","","","","","","","","","",""
"","","","","","html-button-response","4","11006","0.0-4.0","58pqxtcva5","37","1663","Welcome! <p> This experiment involves two parts: demographic information, followed by the experimental task.<p> It will take about 30 minutes to complete both parts.","0","","","","","","","","","","","","","","","",""
"","","","","","survey-text","5","23906","0.0-5.0","58pqxtcva5","37","12892","","{""Age"":""18"",""Gender"":""women"",""Race/ethnicity"":""white"",""Languages"":""english ""}","","","","","","","","","","","","","","","",""
"","","","","","html-slider-response","6","87023","0.0-6.0","58pqxtcva5","37","63113","<div style='text-align:left; font-size:20px; line-height:25px; width: 1000px;'>
                                During this experiment you will be asked to rate how much you associate maps with                    different concepts.<br> Below, you can see some examples of the maps you will be asked to rate. Above the maps
                    is the list of concepts.<br>You will be asked                    to rate how much you associate each map with each concept on a scale from 'not at all' to 'very much' like the
                    one below. <br><br>
                    Now, please look at the list of concepts and maps. For each concept, think about the map you associate 'very
                    much' with the concept.<br>                     When you see that map during the experiment, please rate it near the 'very much' endpoint of the
                    scale.<br>Now, please think about which map you associate 'not at all'                     with each concept. When you see that map during the experiment, please rate it near the 'not at all' endpoint
                    of the scale.<br>
                    Please use the full range of the scale. That is, if a map is somewhat associated with the concept, you would
                    click partway between the middle point and right side of the scale.                    You will be asked to rate each map for a given concept before moving on to the next concept.<br>Press the
                    'Continue' button for instructions on how to use the slider.                    <br>
                </div>

                <div style=""width: 500px; margin: 0 auto;"">
                    <!-- Centered text paragraphs -->
                    <div style=""text-align: center; width: 500px;"">
                        <p style=""font-size:25px; line-height:15px;"">
                            fearful&nbsp;&nbsp;&nbsp;&nbsp;
                            happy&nbsp;&nbsp;&nbsp;&nbsp;
                            disgust&nbsp;&nbsp;&nbsp;&nbsp;
                            angry&nbsp;&nbsp;&nbsp;&nbsp;
                            sad
                        </p>
                        <!-- <p style=""font-size:20px; line-height:15px;"">happy</p>
                        <p style=""font-size:20px;line-height:15px;"">disgust</p>
                        <p style=""font-size:20px;line-height:15px;"">angry</p>
                        <p style=""font-size:20px;line-height:15px;"">sad</p> -->
                    </div>
            

                    <!-- Grid section -->
                   <div style=""display: flex; justify-content: center; padding-top: 15px;"">
                    <div style=""display: grid; grid-template-columns: repeat(10, 55px); grid-gap: 5px; width: auto;"">
                        <img src=""images/map10_seismic_scaleDef_orientDef_090.png"" alt=""map"" style=""width: 100%;""><img src=""images/map07_Spectral_scaleRev_orientMir_000.png"" alt=""map"" style=""width: 100%;""><img src=""images/map13_cividis_scaleRev_orientMir_180.png"" alt=""map"" style=""width: 100%;""><img src=""images/map12_turbo_scaleDef_orientDef_270.png"" alt=""map"" style=""width: 100%;""><img src=""images/map15_Blues_scaleRev_orientMir_000.png"" alt=""map"" style=""width: 100%;""><img src=""images/map05_RdBu_scaleDef_orientMir_090.png"" alt=""map"" style=""width: 100%;""><img src=""images/map15_Greens_scaleDef_orientMir_090.png"" alt=""map"" style=""width: 100%;""><img src=""images/map07_RdYlBu_scaleRev_orientDef_000.png"" alt=""map"" style=""width: 100%;""><img src=""images/map12_gist_earth_scaleDef_orientDef_090.png"" alt=""map"" style=""width: 100%;""><img src=""images/map27_PuBuGn_scaleRev_orientMir_180.png"" alt=""map"" style=""width: 100%;""><img src=""images/map27_GnBu_scaleRev_orientDef_000.png"" alt=""map"" style=""width: 100%;""><img src=""images/map26_BuPu_scaleRev_orientMir_180.png"" alt=""map"" style=""width: 100%;""><img src=""images/map10_managua_scaleRev_orientMir_180.png"" alt=""map"" style=""width: 100%;""><img src=""images/map26_RdPu_scaleDef_orientDef_270.png"" alt=""map"" style=""width: 100%;""><img src=""images/map26_PuRd_scaleRev_orientDef_180.png"" alt=""map"" style=""width: 100%;""><img src=""images/map15_Greys_scaleRev_orientDef_000.png"" alt=""map"" style=""width: 100%;""><img src=""images/map15_Purples_scaleRev_orientDef_180.png"" alt=""map"" style=""width: 100%;""><img src=""images/map02_BuGn_scaleRev_orientDef_000.png"" alt=""map"" style=""width: 100%;""><img src=""images/map02_YlGn_scaleRev_orientDef_180.png"" alt=""map"" style=""width: 100%;""><img src=""images/map02_PiYG_scaleRev_orientMir_000.png"" alt=""map"" style=""width: 100%;""><img src=""images/map23_YlOrRd_scaleRev_orientMir_180.png"" alt=""map"" style=""width: 100%;""><img src=""images/map12_plasma_scaleDef_orientMir_270.png"" alt=""map"" style=""width: 100%;""><img src=""images/map23_YlOrBr_scaleDef_orientDef_270.png"" alt=""map"" style=""width: 100%;""><img src=""images/map07_bwr_scaleDef_orientMir_270.png"" alt=""map"" style=""width: 100%;""><img src=""images/map23_Reds_scaleDef_orientDef_090.png"" alt=""map"" style=""width: 100%;""><img src=""images/map05_PuOr_scaleRev_orientDef_180.png"" alt=""map"" style=""width: 100%;""><img src=""images/map02_BrBG_scaleDef_orientMir_270.png"" alt=""map"" style=""width: 100%;""><img src=""images/map05_RdGy_scaleDef_orientDef_270.png"" alt=""map"" style=""width: 100%;""><img src=""images/map13_magma_scaleDef_orientDef_270.png"" alt=""map"" style=""width: 100%;""><img src=""images/map02_PRGn_scaleDef_orientMir_090.png"" alt=""map"" style=""width: 100%;""><img src=""images/map23_OrRd_scaleDef_orientMir_270.png"" alt=""map"" style=""width: 100%;""><img src=""images/map07_RdYlGn_scaleRev_orientDef_180.png"" alt=""map"" style=""width: 100%;""><img src=""images/map27_YlGnBu_scaleDef_orientDef_270.png"" alt=""map"" style=""width: 100%;""><img src=""images/map13_inferno_scaleRev_orientDef_180.png"" alt=""map"" style=""width: 100%;""><img src=""images/map07_coolwarm_scaleDef_orientMir_090.png"" alt=""map"" style=""width: 100%;""><img src=""images/map15_Oranges_scaleDef_orientMir_270.png"" alt=""map"" style=""width: 100%;""><img src=""images/map12_vanimo_scaleRev_orientDef_000.png"" alt=""map"" style=""width: 100%;""><img src=""images/map10_berlin_scaleRev_orientMir_000.png"" alt=""map"" style=""width: 100%;""><img src=""images/map12_viridis_scaleRev_orientMir_180.png"" alt=""map"" style=""width: 100%;""><img src=""images/map27_PuBu_scaleDef_orientDef_090.png"" alt=""map"" style=""width: 100%;"">
                    </div>
                </div>

                    <!-- Clear floats -->
                    <div style=""clear: both;""></div>
                </div>
                            ","-182","","0","true","","","","","","","","","","","","",""
"","","","","","html-button-response","7","88189","0.0-7.0","58pqxtcva5","37","1165","<div style=""width:800px;""><p style=""text-align:left"">To move the slider, click and drag your cursor to the location of the scale where you would like to make your rating and then let go. When you let go of the slider, your response will be recorded and the next trial will begin. <br>
                    We are interested in your initial impressions of each map for the given concept, so please go with your first intuition. <br>
                    Before you begin the experiment, there will be four training trials for you to practice using the scale. <br>
                     When you are ready to start the training trials, please click ""Continue"".</p><br></div>","0","","","","","","","","","","","","","","","",""
"","","","","","html-slider-response","8","92185","0.0-8.0-0.0","58pqxtcva5","37","NaN","<div style=""width:500px;"">
                                    <p style=""font-size:25px;"">Please move the slider all the way to the <br> right endpoint of the scale</p>

                                    </div>
                                </div>","200","","0","true","0","true","","","","","","","","","","",""
"","","","","","html-button-response","9","93772","0.0-8.0-1.0","58pqxtcva5","37","1083","<p align='center'><b>Good job!</b> Click on 'Continue' to proceed.</p>","0","","","","","","","","","","","","","","","",""
"","","","","","html-slider-response","10","95367","0.0-9.0-0.0","58pqxtcva5","37","NaN","<div style=""width:500px;"">
                                    <p style=""font-size:25px;"">Please move the slider all the way to the <br> left endpoint of the scale</p>

                                    </div>
                                </div>","-200","","0","true","1","true","","","","","","","","","","",""
"","","","","","html-button-response","11","96889","0.0-9.0-1.0","58pqxtcva5","37","1019","<p align='center'><b>Good job!</b> Click on 'Continue' to proceed.</p>","0","","","","","","","","","","","","","","","",""
"","","","","","html-slider-response","12","101451","0.0-10.0-0.0","58pqxtcva5","37","NaN","<div style=""width:500px;"">
                                    <p style=""font-size:25px;"">Please move the slider halfway between the center and right endpoint of the scale</p>

                                    </div>
                                </div>","102","","0","true","2","true","","","","","","","","","","",""
"","","","","","html-button-response","13","112489","0.0-10.0-1.0","58pqxtcva5","37","10117","<p align='center'><b>Good job!</b> Click on 'Continue' to proceed.</p>","0","","","","","","","","","","","","","","","",""
"","","","","","html-slider-response","14","114750","0.0-11.0-0.0","58pqxtcva5","37","NaN","<div style=""width:500px;"">
                                    <p style=""font-size:25px;"">Please move the slider halfway between the center and left endpoint of the scale</p>

                                    </div>
                                </div>","-107","","0","true","3","true","","","","","","","","","","",""
"","","","","","html-button-response","15","115972","0.0-11.0-1.0","58pqxtcva5","37","720","<p align='center'><b>Good job!</b> Click on 'Continue' to proceed.</p>","0","","","","","","","","","","","","","","","",""
"","","","","","html-button-response","16","117005","0.0-12.0","58pqxtcva5","37","1032","<p>Great job! You've completed the practice trials. Now you will begin the main task.</p>","0","","","","","","","","","","","","","","","",""
"","","","","","html-button-response","17","117989","0.0-13.0","58pqxtcva5","37","982","<p>In this block of trials, you will be asked to rate how much you associate each map with:</p > <p style = 'font-size:150%; font-weight: bold'>fearful</p><br></br>","0","","","","","","","","","","","","","","","",""
"","","","","","html-slider-response","18","121417","0.0-14.0","58pqxtcva5","37","NaN","<div style=""width:500px;"">
                            <p style=""font-size:50px; font-weight:bold;""
                            >fearful</p>
                            <div style=""width:240px; margin: auto;"">
                                <img src=""images/map27_GnBu_scaleRev_orientDef_000.png"" style= ""width:200px""alt=""img"">
                            </div>
                        </div>","-104","","0","","","","images/map27_GnBu_scaleRev_orientDef_000.png","fearful","1","27","27","GnBu","orientDef","scaleRev","000","",""
"","","","","","html-slider-response","19","124183","0.0-15.0","58pqxtcva5","37","NaN","<div style=""width:500px;"">
                            <p style=""font-size:50px; font-weight:bold;""
                            >fearful</p>
                            <div style=""width:240px; margin: auto;"">
                                <img src=""images/map15_Greens_scaleDef_orientMir_090.png"" style= ""width:200px""alt=""img"">
                            </div>
                        </div>","-105","","0","","","","images/map15_Greens_scaleDef_orientMir_090.png","fearful","1","15","15","Greens","orientMir","scaleDef","090","",""
"","","","","","html-slider-response","20","128336","0.0-16.0","58pqxtcva5","37","NaN","<div style=""width:500px;"">
                            <p style=""font-size:50px; font-weight:bold;""
                            >fearful</p>
                            <div style=""width:240px; margin: auto;"">
                                <img src=""images/map26_PuRd_scaleDef_orientDef_090.png"" style= ""width:200px""alt=""img"">
                            </div>
                        </div>","48","","0","","","","images/map26_PuRd_scaleDef_orientDef_090.png","fearful","1","26","26","PuRd","orientDef","scaleDef","090","",""
"","","","","","html-slider-response","21","130668","0.0-17.0","58pqxtcva5","37","NaN","<div style=""width:500px;"">
                            <p style=""font-size:50px; font-weight:bold;""
                            >fearful</p>
                            <div style=""width:240px; margin: auto;"">
                                <img src=""images/map23_Oranges_scaleRev_orientDef_000.png"" style= ""width:200px""alt=""img"">
                            </div>
                        </div>","83","","0","","","","images/map23_Oranges_scaleRev_orientDef_000.png","fearful","1","23","23","Oranges","orientDef","scaleRev","000","",""
"","","","","","html-slider-response","22","133066","0.0-18.0","58pqxtcva5","37","NaN","<div style=""width:500px;"">
                            <p style=""font-size:50px; font-weight:bold;""
                            >fearful</p>
                            <div style=""width:240px; margin: auto;"">
                                <img src=""images/map10_berlin_scaleDef_orientDef_270.png"" style= ""width:200px""alt=""img"">
                            </div>
                        </div>","-93","","0","","","","images/map10_berlin_scaleDef_orientDef_270.png","fearful","1","10","10","berlin","orientDef","scaleDef","270","",""
"","","","","","html-slider-response","23","134851","0.0-19.0","58pqxtcva5","37","NaN","<div style=""width:500px;"">
                            <p style=""font-size:50px; font-weight:bold;""
                            >fearful</p>
                            <div style=""width:240px; margin: auto;"">
                                <img src=""images/map15_Blues_scaleDef_orientDef_270.png"" style= ""width:200px""alt=""img"">
                            </div>
                        </div>","-134","","0","","","","images/map15_Blues_scaleDef_orientDef_270.png","fearful","1","15","15","Blues","orientDef","scaleDef","270","",""
"","","","","","html-slider-response","24","137582","0.0-20.0","58pqxtcva5","37","NaN","<div style=""width:500px;"">
                            <p style=""font-size:50px; font-weight:bold;""
                            >fearful</p>
                            <div style=""width:240px; margin: auto;"">
                                <img src=""images/map27_PuBu_scaleDef_orientDef_090.png"" style= ""width:200px""alt=""img"">
                            </div>
                        </div>","-150","","0","","","","images/map27_PuBu_scaleDef_orientDef_090.png","fearful","1","27","27","PuBu","orientDef","scaleDef","090","",""
"","","","","","html-slider-response","25","139816","0.0-21.0","58pqxtcva5","37","NaN","<div style=""width:500px;"">
                            <p style=""font-size:50px; font-weight:bold;""
                            >fearful</p>
                            <div style=""width:240px; margin: auto;"">
                                <img src=""images/map05_BrBG_scaleRev_orientDef_000.png"" style= ""width:200px""alt=""img"">
                            </div>
                        </div>","146","","0","","","","images/map05_BrBG_scaleRev_orientDef_000.png","fearful","1","05","05","BrBG","orientDef","scaleRev","000","",""
"","","","","","html-slider-response","26","141701","0.0-22.0","58pqxtcva5","37","NaN","<div style=""width:500px;"">
                            <p style=""font-size:50px; font-weight:bold;""
                            >fearful</p>
                            <div style=""width:240px; margin: auto;"">
                                <img src=""images/map13_cividis_scaleRev_orientMir_180.png"" style= ""width:200px""alt=""img"">
                            </div>
                        </div>","58","","0","","","","images/map13_cividis_scaleRev_orientMir_180.png","fearful","1","13","13","cividis","orientMir","scaleRev","180","",""
"","","","","","html-slider-response","27","143452","0.0-23.0","58pqxtcva5","37","NaN","<div style=""width:500px;"">
                            <p style=""font-size:50px; font-weight:bold;""
                            >fearful</p>
                            <div style=""width:240px; margin: auto;"">
                                <img src=""images/map13_magma_scaleDef_orientDef_270.png"" style= ""width:200px""alt=""img"">
                            </div>
                        </div>","98","","0","","","","images/map13_magma_scaleDef_orientDef_270.png","fearful","1","13","13","magma","orientDef","scaleDef","270","",""
"","","","","","html-slider-response","28","145166","0.0-24.0","58pqxtcva5","37","NaN","<div style=""width:500px;"">
                            <p style=""font-size:50px; font-weight:bold;""
                            >fearful</p>
                            <div style=""width:240px; margin: auto;"">
                                <img src=""images/map23_YlOrBr_scaleRev_orientMir_000.png"" style= ""width:200px""alt=""img"">
                            </div>
                        </div>","-38","","0","","","","images/map23_YlOrBr_scaleRev_orientMir_000.png","fearful","1","23","23","YlOrBr","orientMir","scaleRev","000","",""
"","","","","","html-slider-response","29","147035","0.0-25.0","58pqxtcva5","37","NaN","<div style=""width:500px;"">
                            <p style=""font-size:50px; font-weight:bold;""
                            >fearful</p>
                            <div style=""width:240px; margin: auto;"">
                                <img src=""images/map15_Greens_scaleRev_orientMir_180.png"" style= ""width:200px""alt=""img"">
                            </div>
                        </div>","-147","","0","","","","images/map15_Greens_scaleRev_orientMir_180.png","fearful","1","15","15","Greens","orientMir","scaleRev","180","",""
"","","","","","html-slider-response","30","149550","0.0-26.0","58pqxtcva5","37","NaN","<div style=""width:500px;"">
                            <p style=""font-size:50px; font-weight:bold;""
                            >fearful</p>
                            <div style=""width:240px; margin: auto;"">
                                <img src=""images/map07_bwr_scaleDef_orientMir_270.png"" style= ""width:200px""alt=""img"">
                            </div>
                        </div>","44","","0","","","","images/map07_bwr_scaleDef_orientMir_270.png","fearful","1","07","07","bwr","orientMir","scaleDef","270","",""
"","","","","","html-slider-response","31","151083","0.0-27.0","58pqxtcva5","37","NaN","<div style=""width:500px;"">
                            <p style=""font-size:50px; font-weight:bold;""
                            >fearful</p>
                            <div style=""width:240px; margin: auto;"">
                                <img src=""images/map05_RdYlBu_scaleDef_orientMir_270.png"" style= ""width:200px""alt=""img"">
                            </div>
                        </div>","141","","0","","","","images/map05_RdYlBu_scaleDef_orientMir_270.png","fearful","1","05","05","RdYlBu","orientMir","scaleDef","270","",""
"","","","","","html-slider-response","32","152634","0.0-28.0","58pqxtcva5","37","NaN","<div style=""width:500px;"">
                            <p style=""font-size:50px; font-weight:bold;""
                            >fearful</p>
                            <div style=""width:240px; margin: auto;"">
                                <img src=""images/map26_BuPu_scaleRev_orientMir_180.png"" style= ""width:200px""alt=""img"">
                            </div>
                        </div>","24","","0","","","","images/map26_BuPu_scaleRev_orientMir_180.png","fearful","1","26","26","BuPu","orientMir","scaleRev","180","",""
"","","","","","html-slider-response","33","154466","0.0-29.0","58pqxtcva5","37","NaN","<div style=""width:500px;"">
                            <p style=""font-size:50px; font-weight:bold;""
                            >fearful</p>
                            <div style=""width:240px; margin: auto;"">
                                <img src=""images/map23_YlOrBr_scaleDef_orientDef_270.png"" style= ""width:200px""alt=""img"">
                            </div>
                        </div>","16","","0","","","","images/map23_YlOrBr_scaleDef_orientDef_270.png","fearful","1","23","23","YlOrBr","orientDef","scaleDef","270","",""
"","","","","","html-slider-response","34","156050","0.0-30.0","58pqxtcva5","37","NaN","<div style=""width:500px;"">
                            <p style=""font-size:50px; font-weight:bold;""
                            >fearful</p>
                            <div style=""width:240px; margin: auto;"">
                                <img src=""images/map02_PRGn_scaleRev_orientMir_180.png"" style= ""width:200px""alt=""img"">
                            </div>
                        </div>","-28","","0","","","","images/map02_PRGn_scaleRev_orientMir_180.png","fearful","1","02","02","PRGn","orientMir","scaleRev","180","",""
"","","","","","html-slider-response","35","157699","0.0-31.0","58pqxtcva5","37","NaN","<div style=""width:500px;"">
                            <p style=""font-size:50px; font-weight:bold;""
                            >fearful</p>
                            <div style=""width:240px; margin: auto;"">
                                <img src=""images/map27_YlGnBu_scaleDef_orientDef_270.png"" style= ""width:200px""alt=""img"">
                            </div>
                        </div>","-164","","0","","","","images/map27_YlGnBu_scaleDef_orientDef_270.png","fearful","1","27","27","YlGnBu","orientDef","scaleDef","270","",""
"","","","","","html-slider-response","36","159399","0.0-32.0","58pqxtcva5","37","NaN","<div style=""width:500px;"">
                            <p style=""font-size:50px; font-weight:bold;""
                            >fearful</p>
                            <div style=""width:240px; margin: auto;"">
                                <img src=""images/map07_Spectral_scaleDef_orientDef_270.png"" style= ""width:200px""alt=""img"">
                            </div>
                        </div>","17","","0","","","","images/map07_Spectral_scaleDef_orientDef_270.png","fearful","1","07","07","Spectral","orientDef","scaleDef","270","",""
"","","","","","html-slider-response","37","161415","0.0-33.0","58pqxtcva5","37","NaN","<div style=""width:500px;"">
                            <p style=""font-size:50px; font-weight:bold;""
                            >fearful</p>
                            <div style=""width:240px; margin: auto;"">
                                <img src=""images/map12_gist_earth_scaleDef_orientDef_090.png"" style= ""width:200px""alt=""img"">
                            </div>
                        </div>","-106","","0","","","","images/map12_gist_earth_scaleDef_orientDef_090.png","fearful","1","12","12","gist","scaleDef","earth","orientDef","",""
"","","","","","html-slider-response","38","162982","0.0-34.0","58pqxtcva5","37","NaN","<div style=""width:500px;"">
                            <p style=""font-size:50px; font-weight:bold;""
                            >fearful</p>
                            <div style=""width:240px; margin: auto;"">
                                <img src=""images/map12_plasma_scaleDef_orientMir_270.png"" style= ""width:200px""alt=""img"">
                            </div>
                        </div>","-18","","0","","","","images/map12_plasma_scaleDef_orientMir_270.png","fearful","1","12","12","plasma","orientMir","scaleDef","270","",""
"","","","","","html-slider-response","39","164366","0.0-35.0","58pqxtcva5","37","NaN","<div style=""width:500px;"">
                            <p style=""font-size:50px; font-weight:bold;""
                            >fearful</p>
                            <div style=""width:240px; margin: auto;"">
                                <img src=""images/map02_YlGn_scaleDef_orientDef_090.png"" style= ""width:200px""alt=""img"">
                            </div>
                        </div>","-124","","0","","","","images/map02_YlGn_scaleDef_orientDef_090.png","fearful","1","02","02","YlGn","orientDef","scaleDef","090","",""
"","","","","","html-slider-response","40","166332","0.0-36.0","58pqxtcva5","37","NaN","<div style=""width:500px;"">
                            <p style=""font-size:50px; font-weight:bold;""
                            >fearful</p>
                            <div style=""width:240px; margin: auto;"">
                                <img src=""images/map27_PuBu_scaleRev_orientDef_180.png"" style= ""width:200px""alt=""img"">
                            </div>
                        </div>","-161","","0","","","","images/map27_PuBu_scaleRev_orientDef_180.png","fearful","1","27","27","PuBu","orientDef","scaleRev","180","",""
"","","","","","html-slider-response","41","168165","0.0-37.0","58pqxtcva5","37","NaN","<div style=""width:500px;"">
                            <p style=""font-size:50px; font-weight:bold;""
                            >fearful</p>
                            <div style=""width:240px; margin: auto;"">
                                <img src=""images/map02_YlGn_scaleRev_orientDef_180.png"" style= ""width:200px""alt=""img"">
                            </div>
                        </div>","-38","","0","","","","images/map02_YlGn_scaleRev_orientDef_180.png","fearful","1","02","02","YlGn","orientDef","scaleRev","180","",""
"","","","","","html-slider-response","42","169866","0.0-38.0","58pqxtcva5","37","NaN","<div style=""width:500px;"">
                            <p style=""font-size:50px; font-weight:bold;""
                            >fearful</p>
                            <div style=""width:240px; margin: auto;"">
                                <img src=""images/map12_viridis_scaleRev_orientMir_180.png"" style= ""width:200px""alt=""img"">
                            </div>
                        </div>","-22","","0","","","","images/map12_viridis_scaleRev_orientMir_180.png","fearful","1","12","12","viridis","orientMir","scaleRev","180","",""
"","","","","","html-slider-response","43","171667","0.0-39.0","58pqxtcva5","37","NaN","<div style=""width:500px;"">
                            <p style=""font-size:50px; font-weight:bold;""
                            >fearful</p>
                            <div style=""width:240px; margin: auto;"">
                                <img src=""images/map26_PuRd_scaleRev_orientDef_180.png"" style= ""width:200px""alt=""img"">
                            </div>
                        </div>","-72","","0","","","","images/map26_PuRd_scaleRev_orientDef_180.png","fearful","1","26","26","PuRd","orientDef","scaleRev","180","",""
"","","","","","html-slider-response","44","173332","0.0-40.0","58pqxtcva5","37","NaN","<div style=""width:500px;"">
                            <p style=""font-size:50px; font-weight:bold;""
                            >fearful</p>
                            <div style=""width:240px; margin: auto;"">
                                <img src=""images/map02_PiYG_scaleRev_orientMir_000.png"" style= ""width:200px""alt=""img"">
                            </div>
                        </div>","-150","","0","","","","images/map02_PiYG_scaleRev_orientMir_000.png","fearful","1","02","02","PiYG","orientMir","scaleRev","000","",""
"","","","","","html-slider-response","45","174916","0.0-41.0","58pqxtcva5","37","NaN","<div style=""width:500px;"">
                            <p style=""font-size:50px; font-weight:bold;""
                            >fearful</p>
                            <div style=""width:240px; margin: auto;"">
                                <img src=""images/map10_managua_scaleRev_orientMir_180.png"" style= ""width:200px""alt=""img"">
                            </div>
                        </div>","14","","0","","","","images/map10_managua_scaleRev_orientMir_180.png","fearful","1","10","10","managua","orientMir","scaleRev","180","",""
"","","","","","html-slider-response","46","176251","0.0-42.0","58pqxtcva5","37","NaN","<div style=""width:500px;"">
                            <p style=""font-size:50px; font-weight:bold;""
                            >fearful</p>
                            <div style=""width:240px; margin: auto;"">
                                <img src=""images/map15_Blues_scaleRev_orientMir_000.png"" style= ""width:200px""alt=""img"">
                            </div>
                        </div>","-168","","0","","","","images/map15_Blues_scaleRev_orientMir_000.png","fearful","1","15","15","Blues","orientMir","scaleRev","000","",""
"","","","","","html-slider-response","47","178233","0.0-43.0","58pqxtcva5","37","NaN","<div style=""width:500px;"">
                            <p style=""font-size:50px; font-weight:bold;""
                            >fearful</p>
                            <div style=""width:240px; margin: auto;"">
                                <img src=""images/map05_PuOr_scaleDef_orientDef_090.png"" style= ""width:200px""alt=""img"">
                            </div>
                        </div>","-25","","0","","","","images/map05_PuOr_scaleDef_orientDef_090.png","fearful","1","05","05","PuOr","orientDef","scaleDef","090","",""
"","","","","","html-slider-response","48","179782","0.0-44.0","58pqxtcva5","37","NaN","<div style=""width:500px;"">
                            <p style=""font-size:50px; font-weight:bold;""
                            >fearful</p>
                            <div style=""width:240px; margin: auto;"">
                                <img src=""images/map27_PuBuGn_scaleRev_orientMir_180.png"" style= ""width:200px""alt=""img"">
                            </div>
                        </div>","-182","","0","","","","images/map27_PuBuGn_scaleRev_orientMir_180.png","fearful","1","27","27","PuBuGn","orientMir","scaleRev","180","",""
"","","","","","html-slider-response","49","181515","0.0-45.0","58pqxtcva5","37","NaN","<div style=""width:500px;"">
                            <p style=""font-size:50px; font-weight:bold;""
                            >fearful</p>
                            <div style=""width:240px; margin: auto;"">
                                <img src=""images/map12_viridis_scaleDef_orientMir_090.png"" style= ""width:200px""alt=""img"">
                            </div>
                        </div>","-75","","0","","","","images/map12_viridis_scaleDef_orientMir_090.png","fearful","1","12","12","viridis","orientMir","scaleDef","090","",""
"","","","","","html-slider-response","50","183482","0.0-46.0","58pqxtcva5","37","NaN","<div style=""width:500px;"">
                            <p style=""font-size:50px; font-weight:bold;""
                            >fearful</p>
                            <div style=""width:240px; margin: auto;"">
                                <img src=""images/map13_inferno_scaleRev_orientDef_180.png"" style= ""width:200px""alt=""img"">
                            </div>
                        </div>","73","","0","","","","images/map13_inferno_scaleRev_orientDef_180.png","fearful","1","13","13","inferno","orientDef","scaleRev","180","",""
"","","","","","html-slider-response","51","185249","0.0-47.0","58pqxtcva5","37","NaN","<div style=""width:500px;"">
                            <p style=""font-size:50px; font-weight:bold;""
                            >fearful</p>
                            <div style=""width:240px; margin: auto;"">
                                <img src=""images/map23_YlOrRd_scaleRev_orientMir_180.png"" style= ""width:200px""alt=""img"">
                            </div>
                        </div>","102","","0","","","","images/map23_YlOrRd_scaleRev_orientMir_180.png","fearful","1","23","23","YlOrRd","orientMir","scaleRev","180","",""
"","","","","","html-slider-response","52","187017","0.0-48.0","58pqxtcva5","37","NaN","<div style=""width:500px;"">
                            <p style=""font-size:50px; font-weight:bold;""
                            >fearful</p>
                            <div style=""width:240px; margin: auto;"">
                                <img src=""images/map13_inferno_scaleDef_orientDef_090.png"" style= ""width:200px""alt=""img"">
                            </div>
                        </div>","144","","0","","","","images/map13_inferno_scaleDef_orientDef_090.png","fearful","1","13","13","inferno","orientDef","scaleDef","090","",""
"","","","","","html-slider-response","53","188816","0.0-49.0","58pqxtcva5","37","NaN","<div style=""width:500px;"">
                            <p style=""font-size:50px; font-weight:bold;""
                            >fearful</p>
                            <div style=""width:240px; margin: auto;"">
                                <img src=""images/map27_PuBuGn_scaleDef_orientMir_090.png"" style= ""width:200px""alt=""img"">
                            </div>
                        </div>","-200","","0","","","","images/map27_PuBuGn_scaleDef_orientMir_090.png","fearful","1","27","27","PuBuGn","orientMir","scaleDef","090","",""
"","","","","","html-slider-response","54","190468","0.0-50.0","58pqxtcva5","37","NaN","<div style=""width:500px;"">
                            <p style=""font-size:50px; font-weight:bold;""
                            >fearful</p>
                            <div style=""width:240px; margin: auto;"">
                                <img src=""images/map07_Spectral_scaleRev_orientMir_000.png"" style= ""width:200px""alt=""img"">
                            </div>
                        </div>","42","","0","","","","images/map07_Spectral_scaleRev_orientMir_000.png","fearful","1","07","07","Spectral","orientMir","scaleRev","000","",""
"","","","","","html-slider-response","55","192182","0.0-51.0","58pqxtcva5","37","NaN","<div style=""width:500px;"">
                            <p style=""font-size:50px; font-weight:bold;""
                            >fearful</p>
                            <div style=""width:240px; margin: auto;"">
                                <img src=""images/map12_gist_earth_scaleRev_orientDef_180.png"" style= ""width:200px""alt=""img"">
                            </div>
                        </div>","-109","","0","","","","images/map12_gist_earth_scaleRev_orientDef_180.png","fearful","1","12","12","gist","scaleRev","earth","orientDef","",""
"","","","","","html-slider-response","56","193835","0.0-52.0","58pqxtcva5","37","NaN","<div style=""width:500px;"">
                            <p style=""font-size:50px; font-weight:bold;""
                            >fearful</p>
                            <div style=""width:240px; margin: auto;"">
                                <img src=""images/map13_magma_scaleRev_orientMir_000.png"" style= ""width:200px""alt=""img"">
                            </div>
                        </div>","56","","0","","","","images/map13_magma_scaleRev_orientMir_000.png","fearful","1","13","13","magma","orientMir","scaleRev","000","",""
"","","","","","html-slider-response","57","195833","0.0-53.0","58pqxtcva5","37","NaN","<div style=""width:500px;"">
                            <p style=""font-size:50px; font-weight:bold;""
                            >fearful</p>
                            <div style=""width:240px; margin: auto;"">
                                <img src=""images/map07_RdYlGn_scaleRev_orientDef_180.png"" style= ""width:200px""alt=""img"">
                            </div>
                        </div>","51","","0","","","","images/map07_RdYlGn_scaleRev_orientDef_180.png","fearful","1","07","07","RdYlGn","orientDef","scaleRev","180","",""
"","","","","","html-button-response","58","211437","0.0-54.0","58pqxtcva5","37","15101","<p>You are doing great!<br></br> You are halway done with the current block. When you are ready to continue, click the 'Continue' button.</p>","0","","","","","","","","","","","","","","","",""
"","","","","","html-slider-response","59","214533","0.0-55.0","58pqxtcva5","37","NaN","<div style=""width:500px;"">
                            <p style=""font-size:50px; font-weight:bold;""
                            >fearful</p>
                            <div style=""width:240px; margin: auto;"">
                                <img src=""images/map05_RdGy_scaleDef_orientDef_270.png"" style= ""width:200px""alt=""img"">
                            </div>
                        </div>","169","","0","","","","images/map05_RdGy_scaleDef_orientDef_270.png","fearful","1","05","05","RdGy","orientDef","scaleDef","270","",""
"","","","","","html-slider-response","60","216666","0.0-56.0","58pqxtcva5","37","NaN","<div style=""width:500px;"">
                            <p style=""font-size:50px; font-weight:bold;""
                            >fearful</p>
                            <div style=""width:240px; margin: auto;"">
                                <img src=""images/map26_BuPu_scaleDef_orientMir_090.png"" style= ""width:200px""alt=""img"">
                            </div>
                        </div>","-73","","0","","","","images/map26_BuPu_scaleDef_orientMir_090.png","fearful","1","26","26","BuPu","orientMir","scaleDef","090","",""
"","","","","","html-slider-response","61","218282","0.0-57.0","58pqxtcva5","37","NaN","<div style=""width:500px;"">
                            <p style=""font-size:50px; font-weight:bold;""
                            >fearful</p>
                            <div style=""width:240px; margin: auto;"">
                                <img src=""images/map23_Reds_scaleRev_orientDef_180.png"" style= ""width:200px""alt=""img"">
                            </div>
                        </div>","200","","0","","","","images/map23_Reds_scaleRev_orientDef_180.png","fearful","1","23","23","Reds","orientDef","scaleRev","180","",""
"","","","","","html-slider-response","62","220232","0.0-58.0","58pqxtcva5","37","NaN","<div style=""width:500px;"">
                            <p style=""font-size:50px; font-weight:bold;""
                            >fearful</p>
                            <div style=""width:240px; margin: auto;"">
                                <img src=""images/map26_RdPu_scaleDef_orientDef_270.png"" style= ""width:200px""alt=""img"">
                            </div>
                        </div>","-200","","0","","","","images/map26_RdPu_scaleDef_orientDef_270.png","fearful","1","26","26","RdPu","orientDef","scaleDef","270","",""
"","","","","","html-slider-response","63","221851","0.0-59.0","58pqxtcva5","37","NaN","<div style=""width:500px;"">
                            <p style=""font-size:50px; font-weight:bold;""
                            >fearful</p>
                            <div style=""width:240px; margin: auto;"">
                                <img src=""images/map13_Greys_scaleDef_orientMir_270.png"" style= ""width:200px""alt=""img"">
                            </div>
                        </div>","71","","0","","","","images/map13_Greys_scaleDef_orientMir_270.png","fearful","1","13","13","Greys","orientMir","scaleDef","270","",""
"","","","","","html-slider-response","64","223999","0.0-60.0","58pqxtcva5","37","NaN","<div style=""width:500px;"">
                            <p style=""font-size:50px; font-weight:bold;""
                            >fearful</p>
                            <div style=""width:240px; margin: auto;"">
                                <img src=""images/map13_plasma_scaleRev_orientDef_000.png"" style= ""width:200px""alt=""img"">
                            </div>
                        </div>","-65","","0","","","","images/map13_plasma_scaleRev_orientDef_000.png","fearful","1","13","13","plasma","orientDef","scaleRev","000","",""
"","","","","","html-slider-response","65","225982","0.0-61.0","58pqxtcva5","37","NaN","<div style=""width:500px;"">
                            <p style=""font-size:50px; font-weight:bold;""
                            >fearful</p>
                            <div style=""width:240px; margin: auto;"">
                                <img src=""images/map05_RdBu_scaleDef_orientMir_090.png"" style= ""width:200px""alt=""img"">
                            </div>
                        </div>","64","","0","","","","images/map05_RdBu_scaleDef_orientMir_090.png","fearful","1","05","05","RdBu","orientMir","scaleDef","090","",""
"","","","","","html-slider-response","66","227651","0.0-62.0","58pqxtcva5","37","NaN","<div style=""width:500px;"">
                            <p style=""font-size:50px; font-weight:bold;""
                            >fearful</p>
                            <div style=""width:240px; margin: auto;"">
                                <img src=""images/map02_PiYG_scaleDef_orientDef_270.png"" style= ""width:200px""alt=""img"">
                            </div>
                        </div>","-172","","0","","","","images/map02_PiYG_scaleDef_orientDef_270.png","fearful","1","02","02","PiYG","orientDef","scaleDef","270","",""
"","","","","","html-slider-response","67","229384","0.0-63.0","58pqxtcva5","37","NaN","<div style=""width:500px;"">
                            <p style=""font-size:50px; font-weight:bold;""
                            >fearful</p>
                            <div style=""width:240px; margin: auto;"">
                                <img src=""images/map07_coolwarm_scaleDef_orientMir_090.png"" style= ""width:200px""alt=""img"">
                            </div>
                        </div>","-42","","0","","","","images/map07_coolwarm_scaleDef_orientMir_090.png","fearful","1","07","07","coolwarm","orientMir","scaleDef","090","",""
"","","","","","html-slider-response","68","231082","0.0-64.0","58pqxtcva5","37","NaN","<div style=""width:500px;"">
                            <p style=""font-size:50px; font-weight:bold;""
                            >fearful</p>
                            <div style=""width:240px; margin: auto;"">
                                <img src=""images/map15_Purples_scaleDef_orientDef_090.png"" style= ""width:200px""alt=""img"">
                            </div>
                        </div>","-126","","0","","","","images/map15_Purples_scaleDef_orientDef_090.png","fearful","1","15","15","Purples","orientDef","scaleDef","090","",""
"","","","","","html-slider-response","69","234232","0.0-65.0","58pqxtcva5","37","NaN","<div style=""width:500px;"">
                            <p style=""font-size:50px; font-weight:bold;""
                            >fearful</p>
                            <div style=""width:240px; margin: auto;"">
                                <img src=""images/map26_OrRd_scaleRev_orientDef_000.png"" style= ""width:200px""alt=""img"">
                            </div>
                        </div>","-150","","0","","","","images/map26_OrRd_scaleRev_orientDef_000.png","fearful","1","26","26","OrRd","orientDef","scaleRev","000","",""
"","","","","","html-slider-response","70","236032","0.0-66.0","58pqxtcva5","37","NaN","<div style=""width:500px;"">
                            <p style=""font-size:50px; font-weight:bold;""
                            >fearful</p>
                            <div style=""width:240px; margin: auto;"">
                                <img src=""images/map02_PRGn_scaleDef_orientMir_090.png"" style= ""width:200px""alt=""img"">
                            </div>
                        </div>","-61","","0","","","","images/map02_PRGn_scaleDef_orientMir_090.png","fearful","1","02","02","PRGn","orientMir","scaleDef","090","",""
"","","","","","html-slider-response","71","238100","0.0-67.0","58pqxtcva5","37","NaN","<div style=""width:500px;"">
                            <p style=""font-size:50px; font-weight:bold;""
                            >fearful</p>
                            <div style=""width:240px; margin: auto;"">
                                <img src=""images/map10_seismic_scaleRev_orientDef_180.png"" style= ""width:200px""alt=""img"">
                            </div>
                        </div>","-103","","0","","","","images/map10_seismic_scaleRev_orientDef_180.png","fearful","1","10","10","seismic","orientDef","scaleRev","180","",""
"","","","","","html-slider-response","72","239799","0.0-68.0","58pqxtcva5","37","NaN","<div style=""width:500px;"">
                            <p style=""font-size:50px; font-weight:bold;""
                            >fearful</p>
                            <div style=""width:240px; margin: auto;"">
                                <img src=""images/map12_vanimo_scaleRev_orientDef_000.png"" style= ""width:200px""alt=""img"">
                            </div>
                        </div>","-194","","0","","","","images/map12_vanimo_scaleRev_orientDef_000.png","fearful","1","12","12","vanimo","orientDef","scaleRev","000","",""
"","","","","","html-slider-response","73","241950","0.0-69.0","58pqxtcva5","37","NaN","<div style=""width:500px;"">
                            <p style=""font-size:50px; font-weight:bold;""
                            >fearful</p>
                            <div style=""width:240px; margin: auto;"">
                                <img src=""images/map26_RdPu_scaleRev_orientMir_000.png"" style= ""width:200px""alt=""img"">
                            </div>
                        </div>","-200","","0","","","","images/map26_RdPu_scaleRev_orientMir_000.png","fearful","1","26","26","RdPu","orientMir","scaleRev","000","",""
"","","","","","html-slider-response","74","243716","0.0-70.0","58pqxtcva5","37","NaN","<div style=""width:500px;"">
                            <p style=""font-size:50px; font-weight:bold;""
                            >fearful</p>
                            <div style=""width:240px; margin: auto;"">
                                <img src=""images/map02_BuGn_scaleRev_orientDef_000.png"" style= ""width:200px""alt=""img"">
                            </div>
                        </div>","-200","","0","","","","images/map02_BuGn_scaleRev_orientDef_000.png","fearful","1","02","02","BuGn","orientDef","scaleRev","000","",""
"","","","","","html-slider-response","75","246166","0.0-71.0","58pqxtcva5","37","NaN","<div style=""width:500px;"">
                            <p style=""font-size:50px; font-weight:bold;""
                            >fearful</p>
                            <div style=""width:240px; margin: auto;"">
                                <img src=""images/map10_bwr_scaleRev_orientDef_000.png"" style= ""width:200px""alt=""img"">
                            </div>
                        </div>","32","","0","","","","images/map10_bwr_scaleRev_orientDef_000.png","fearful","1","10","10","bwr","orientDef","scaleRev","000","",""
"","","","","","html-slider-response","76","247966","0.0-72.0","58pqxtcva5","37","NaN","<div style=""width:500px;"">
                            <p style=""font-size:50px; font-weight:bold;""
                            >fearful</p>
                            <div style=""width:240px; margin: auto;"">
                                <img src=""images/map12_turbo_scaleDef_orientDef_270.png"" style= ""width:200px""alt=""img"">
                            </div>
                        </div>","43","","0","","","","images/map12_turbo_scaleDef_orientDef_270.png","fearful","1","12","12","turbo","orientDef","scaleDef","270","",""
"","","","","","html-slider-response","77","250150","0.0-73.0","58pqxtcva5","37","NaN","<div style=""width:500px;"">
                            <p style=""font-size:50px; font-weight:bold;""
                            >fearful</p>
                            <div style=""width:240px; margin: auto;"">
                                <img src=""images/map07_RdYlBu_scaleRev_orientDef_000.png"" style= ""width:200px""alt=""img"">
                            </div>
                        </div>","122","","0","","","","images/map07_RdYlBu_scaleRev_orientDef_000.png","fearful","1","07","07","RdYlBu","orientDef","scaleRev","000","",""
"","","","","","html-slider-response","78","251667","0.0-74.0","58pqxtcva5","37","NaN","<div style=""width:500px;"">
                            <p style=""font-size:50px; font-weight:bold;""
                            >fearful</p>
                            <div style=""width:240px; margin: auto;"">
                                <img src=""images/map07_coolwarm_scaleRev_orientMir_180.png"" style= ""width:200px""alt=""img"">
                            </div>
                        </div>","-110","","0","","","","images/map07_coolwarm_scaleRev_orientMir_180.png","fearful","1","07","07","coolwarm","orientMir","scaleRev","180","",""
"","","","","","html-slider-response","79","253482","0.0-75.0","58pqxtcva5","37","NaN","<div style=""width:500px;"">
                            <p style=""font-size:50px; font-weight:bold;""
                            >fearful</p>
                            <div style=""width:240px; margin: auto;"">
                                <img src=""images/map10_vanimo_scaleDef_orientMir_270.png"" style= ""width:200px""alt=""img"">
                            </div>
                        </div>","118","","0","","","","images/map10_vanimo_scaleDef_orientMir_270.png","fearful","1","10","10","vanimo","orientMir","scaleDef","270","",""
"","","","","","html-slider-response","80","255201","0.0-76.0","58pqxtcva5","37","NaN","<div style=""width:500px;"">
                            <p style=""font-size:50px; font-weight:bold;""
                            >fearful</p>
                            <div style=""width:240px; margin: auto;"">
                                <img src=""images/map23_YlOrRd_scaleDef_orientMir_090.png"" style= ""width:200px""alt=""img"">
                            </div>
                        </div>","119","","0","","","","images/map23_YlOrRd_scaleDef_orientMir_090.png","fearful","1","23","23","YlOrRd","orientMir","scaleDef","090","",""
"","","","","","html-slider-response","81","257484","0.0-77.0","58pqxtcva5","37","NaN","<div style=""width:500px;"">
                            <p style=""font-size:50px; font-weight:bold;""
                            >fearful</p>
                            <div style=""width:240px; margin: auto;"">
                                <img src=""images/map27_YlGnBu_scaleRev_orientMir_000.png"" style= ""width:200px""alt=""img"">
                            </div>
                        </div>","-176","","0","","","","images/map27_YlGnBu_scaleRev_orientMir_000.png","fearful","1","27","27","YlGnBu","orientMir","scaleRev","000","",""
"","","","","","html-slider-response","82","259115","0.0-78.0","58pqxtcva5","37","NaN","<div style=""width:500px;"">
                            <p style=""font-size:50px; font-weight:bold;""
                            >fearful</p>
                            <div style=""width:240px; margin: auto;"">
                                <img src=""images/map26_GnBu_scaleDef_orientMir_270.png"" style= ""width:200px""alt=""img"">
                            </div>
                        </div>","-200","","0","","","","images/map26_GnBu_scaleDef_orientMir_270.png","fearful","1","26","26","GnBu","orientMir","scaleDef","270","",""
"","","","","","html-slider-response","83","261217","0.0-79.0","58pqxtcva5","37","NaN","<div style=""width:500px;"">
                            <p style=""font-size:50px; font-weight:bold;""
                            >fearful</p>
                            <div style=""width:240px; margin: auto;"">
                                <img src=""images/map15_Oranges_scaleDef_orientMir_270.png"" style= ""width:200px""alt=""img"">
                            </div>
                        </div>","84","","0","","","","images/map15_Oranges_scaleDef_orientMir_270.png","fearful","1","15","15","Oranges","orientMir","scaleDef","270","",""
"","","","","","html-slider-response","84","263050","0.0-80.0","58pqxtcva5","37","NaN","<div style=""width:500px;"">
                            <p style=""font-size:50px; font-weight:bold;""
                            >fearful</p>
                            <div style=""width:240px; margin: auto;"">
                                <img src=""images/map12_turbo_scaleRev_orientMir_000.png"" style= ""width:200px""alt=""img"">
                            </div>
                        </div>","29","","0","","","","images/map12_turbo_scaleRev_orientMir_000.png","fearful","1","12","12","turbo","orientMir","scaleRev","000","",""
"","","","","","html-slider-response","85","264565","0.0-81.0","58pqxtcva5","37","NaN","<div style=""width:500px;"">
                            <p style=""font-size:50px; font-weight:bold;""
                            >fearful</p>
                            <div style=""width:240px; margin: auto;"">
                                <img src=""images/map07_RdYlGn_scaleDef_orientDef_090.png"" style= ""width:200px""alt=""img"">
                            </div>
                        </div>","-60","","0","","","","images/map07_RdYlGn_scaleDef_orientDef_090.png","fearful","1","07","07","RdYlGn","orientDef","scaleDef","090","",""
"","","","","","html-slider-response","86","266283","0.0-82.0","58pqxtcva5","37","NaN","<div style=""width:500px;"">
                            <p style=""font-size:50px; font-weight:bold;""
                            >fearful</p>
                            <div style=""width:240px; margin: auto;"">
                                <img src=""images/map10_seismic_scaleDef_orientDef_090.png"" style= ""width:200px""alt=""img"">
                            </div>
                        </div>","-82","","0","","","","images/map10_seismic_scaleDef_orientDef_090.png","fearful","1","10","10","seismic","orientDef","scaleDef","090","",""
"","","","","","html-slider-response","87","267632","0.0-83.0","58pqxtcva5","37","NaN","<div style=""width:500px;"">
                            <p style=""font-size:50px; font-weight:bold;""
                            >fearful</p>
                            <div style=""width:240px; margin: auto;"">
                                <img src=""images/map05_RdBu_scaleRev_orientMir_180.png"" style= ""width:200px""alt=""img"">
                            </div>
                        </div>","-105","","0","","","","images/map05_RdBu_scaleRev_orientMir_180.png","fearful","1","05","05","RdBu","orientMir","scaleRev","180","",""
"","","","","","html-slider-response","88","269715","0.0-84.0","58pqxtcva5","37","NaN","<div style=""width:500px;"">
                            <p style=""font-size:50px; font-weight:bold;""
                            >fearful</p>
                            <div style=""width:240px; margin: auto;"">
                                <img src=""images/map05_RdGy_scaleRev_orientMir_000.png"" style= ""width:200px""alt=""img"">
                            </div>
                        </div>","200","","0","","","","images/map05_RdGy_scaleRev_orientMir_000.png","fearful","1","05","05","RdGy","orientMir","scaleRev","000","",""
"","","","","","html-slider-response","89","271565","0.0-85.0","58pqxtcva5","37","NaN","<div style=""width:500px;"">
                            <p style=""font-size:50px; font-weight:bold;""
                            >fearful</p>
                            <div style=""width:240px; margin: auto;"">
                                <img src=""images/map15_Purples_scaleRev_orientDef_180.png"" style= ""width:200px""alt=""img"">
                            </div>
                        </div>","-104","","0","","","","images/map15_Purples_scaleRev_orientDef_180.png","fearful","1","15","15","Purples","orientDef","scaleRev","180","",""
"","","","","","html-slider-response","90","273300","0.0-86.0","58pqxtcva5","37","NaN","<div style=""width:500px;"">
                            <p style=""font-size:50px; font-weight:bold;""
                            >fearful</p>
                            <div style=""width:240px; margin: auto;"">
                                <img src=""images/map10_managua_scaleDef_orientMir_090.png"" style= ""width:200px""alt=""img"">
                            </div>
                        </div>","-70","","0","","","","images/map10_managua_scaleDef_orientMir_090.png","fearful","1","10","10","managua","orientMir","scaleDef","090","",""
"","","","","","html-slider-response","91","275565","0.0-87.0","58pqxtcva5","37","NaN","<div style=""width:500px;"">
                            <p style=""font-size:50px; font-weight:bold;""
                            >fearful</p>
                            <div style=""width:240px; margin: auto;"">
                                <img src=""images/map23_OrRd_scaleDef_orientMir_270.png"" style= ""width:200px""alt=""img"">
                            </div>
                        </div>","95","","0","","","","images/map23_OrRd_scaleDef_orientMir_270.png","fearful","1","23","23","OrRd","orientMir","scaleDef","270","",""
"","","","","","html-slider-response","92","277166","0.0-88.0","58pqxtcva5","37","NaN","<div style=""width:500px;"">
                            <p style=""font-size:50px; font-weight:bold;""
                            >fearful</p>
                            <div style=""width:240px; margin: auto;"">
                                <img src=""images/map10_berlin_scaleRev_orientMir_000.png"" style= ""width:200px""alt=""img"">
                            </div>
                        </div>","-62","","0","","","","images/map10_berlin_scaleRev_orientMir_000.png","fearful","1","10","10","berlin","orientMir","scaleRev","000","",""
"","","","","","html-slider-response","93","278634","0.0-89.0","58pqxtcva5","37","NaN","<div style=""width:500px;"">
                            <p style=""font-size:50px; font-weight:bold;""
                            >fearful</p>
                            <div style=""width:240px; margin: auto;"">
                                <img src=""images/map27_BuGn_scaleDef_orientMir_270.png"" style= ""width:200px""alt=""img"">
                            </div>
                        </div>","-95","","0","","","","images/map27_BuGn_scaleDef_orientMir_270.png","fearful","1","27","27","BuGn","orientMir","scaleDef","270","",""
"","","","","","html-slider-response","94","280584","0.0-90.0","58pqxtcva5","37","NaN","<div style=""width:500px;"">
                            <p style=""font-size:50px; font-weight:bold;""
                            >fearful</p>
                            <div style=""width:240px; margin: auto;"">
                                <img src=""images/map23_Reds_scaleDef_orientDef_090.png"" style= ""width:200px""alt=""img"">
                            </div>
                        </div>","200","","0","","","","images/map23_Reds_scaleDef_orientDef_090.png","fearful","1","23","23","Reds","orientDef","scaleDef","090","",""
"","","","","","html-slider-response","95","282249","0.0-91.0","58pqxtcva5","37","NaN","<div style=""width:500px;"">
                            <p style=""font-size:50px; font-weight:bold;""
                            >fearful</p>
                            <div style=""width:240px; margin: auto;"">
                                <img src=""images/map05_PuOr_scaleRev_orientDef_180.png"" style= ""width:200px""alt=""img"">
                            </div>
                        </div>","-84","","0","","","","images/map05_PuOr_scaleRev_orientDef_180.png","fearful","1","05","05","PuOr","orientDef","scaleRev","180","",""
"","","","","","html-slider-response","96","284000","0.0-92.0","58pqxtcva5","37","NaN","<div style=""width:500px;"">
                            <p style=""font-size:50px; font-weight:bold;""
                            >fearful</p>
                            <div style=""width:240px; margin: auto;"">
                                <img src=""images/map15_Greys_scaleRev_orientDef_000.png"" style= ""width:200px""alt=""img"">
                            </div>
                        </div>","138","","0","","","","images/map15_Greys_scaleRev_orientDef_000.png","fearful","1","15","15","Greys","orientDef","scaleRev","000","",""
"","","","","","html-slider-response","97","287733","0.0-93.0","58pqxtcva5","37","NaN","<div style=""width:500px;"">
                            <p style=""font-size:50px; font-weight:bold;""
                            >fearful</p>
                            <div style=""width:240px; margin: auto;"">
                                <img src=""images/map02_BrBG_scaleDef_orientMir_270.png"" style= ""width:200px""alt=""img"">
                            </div>
                        </div>","-47","","0","","","","images/map02_BrBG_scaleDef_orientMir_270.png","fearful","1","02","02","BrBG","orientMir","scaleDef","270","",""
"","","","","","html-slider-response","98","289598","0.0-94.0","58pqxtcva5","37","NaN","<div style=""width:500px;"">
                            <p style=""font-size:50px; font-weight:bold;""
                            >fearful</p>
                            <div style=""width:240px; margin: auto;"">
                                <img src=""images/map13_cividis_scaleDef_orientMir_090.png"" style= ""width:200px""alt=""img"">
                            </div>
                        </div>","-151","","0","","","","images/map13_cividis_scaleDef_orientMir_090.png","fearful","1","13","13","cividis","orientMir","scaleDef","090","",""
"","","","","","html-button-response","99","293121","0.0-95.0","58pqxtcva5","37","3020","<p>Great Job! You've finished block 1.<br></br> You have 4 block(s) left to go.<br></br></p>","0","","","","","","","","","","","","","","","",""
"","","","","","html-button-response","100","294037","0.0-96.0","58pqxtcva5","37","915","<p>In this block of trials, you will be asked to rate how much you associate each map with:</p > <p style = 'font-size:150%; font-weight: bold'>happy</p><br></br>","0","","","","","","","","","","","","","","","",""
"","","","","","html-slider-response","101","296231","0.0-97.0","58pqxtcva5","37","NaN","<div style=""width:500px;"">
                            <p style=""font-size:50px; font-weight:bold;""
                            >happy</p>
                            <div style=""width:240px; margin: auto;"">
                                <img src=""images/map07_RdYlGn_scaleRev_orientDef_180.png"" style= ""width:200px""alt=""img"">
                            </div>
                        </div>","-61","","0","","","","images/map07_RdYlGn_scaleRev_orientDef_180.png","happy","1","07","07","RdYlGn","orientDef","scaleRev","180","",""
"","","","","","html-slider-response","102","298082","0.0-98.0","58pqxtcva5","37","NaN","<div style=""width:500px;"">
                            <p style=""font-size:50px; font-weight:bold;""
                            >happy</p>
                            <div style=""width:240px; margin: auto;"">
                                <img src=""images/map07_coolwarm_scaleDef_orientMir_090.png"" style= ""width:200px""alt=""img"">
                            </div>
                        </div>","94","","0","","","","images/map07_coolwarm_scaleDef_orientMir_090.png","happy","1","07","07","coolwarm","orientMir","scaleDef","090","",""
"","","","","","html-slider-response","103","300367","0.0-99.0","58pqxtcva5","37","NaN","<div style=""width:500px;"">
                            <p style=""font-size:50px; font-weight:bold;""
                            >happy</p>
                            <div style=""width:240px; margin: auto;"">
                                <img src=""images/map27_PuBuGn_scaleDef_orientMir_090.png"" style= ""width:200px""alt=""img"">
                            </div>
                        </div>","96","","0","","","","images/map27_PuBuGn_scaleDef_orientMir_090.png","happy","1","27","27","PuBuGn","orientMir","scaleDef","090","",""
"","","","","","html-slider-response","104","302449","0.0-100.0","58pqxtcva5","37","NaN","<div style=""width:500px;"">
                            <p style=""font-size:50px; font-weight:bold;""
                            >happy</p>
                            <div style=""width:240px; margin: auto;"">
                                <img src=""images/map15_Greens_scaleDef_orientMir_090.png"" style= ""width:200px""alt=""img"">
                            </div>
                        </div>","200","","0","","","","images/map15_Greens_scaleDef_orientMir_090.png","happy","1","15","15","Greens","orientMir","scaleDef","090","",""
"","","","","","html-slider-response","105","304816","0.0-101.0","58pqxtcva5","37","NaN","<div style=""width:500px;"">
                            <p style=""font-size:50px; font-weight:bold;""
                            >happy</p>
                            <div style=""width:240px; margin: auto;"">
                                <img src=""images/map10_seismic_scaleDef_orientDef_090.png"" style= ""width:200px""alt=""img"">
                            </div>
                        </div>","-75","","0","","","","images/map10_seismic_scaleDef_orientDef_090.png","happy","1","10","10","seismic","orientDef","scaleDef","090","",""
"","","","","","html-slider-response","106","306681","0.0-102.0","58pqxtcva5","37","NaN","<div style=""width:500px;"">
                            <p style=""font-size:50px; font-weight:bold;""
                            >happy</p>
                            <div style=""width:240px; margin: auto;"">
                                <img src=""images/map13_inferno_scaleRev_orientDef_180.png"" style= ""width:200px""alt=""img"">
                            </div>
                        </div>","-148","","0","","","","images/map13_inferno_scaleRev_orientDef_180.png","happy","1","13","13","inferno","orientDef","scaleRev","180","",""
"","","","","","html-slider-response","107","308433","0.0-103.0","58pqxtcva5","37","NaN","<div style=""width:500px;"">
                            <p style=""font-size:50px; font-weight:bold;""
                            >happy</p>
                            <div style=""width:240px; margin: auto;"">
                                <img src=""images/map26_GnBu_scaleDef_orientMir_270.png"" style= ""width:200px""alt=""img"">
                            </div>
                        </div>","200","","0","","","","images/map26_GnBu_scaleDef_orientMir_270.png","happy","1","26","26","GnBu","orientMir","scaleDef","270","",""
"","","","","","html-slider-response","108","310001","0.0-104.0","58pqxtcva5","37","NaN","<div style=""width:500px;"">
                            <p style=""font-size:50px; font-weight:bold;""
                            >happy</p>
                            <div style=""width:240px; margin: auto;"">
                                <img src=""images/map27_YlGnBu_scaleDef_orientDef_270.png"" style= ""width:200px""alt=""img"">
                            </div>
                        </div>","200","","0","","","","images/map27_YlGnBu_scaleDef_orientDef_270.png","happy","1","27","27","YlGnBu","orientDef","scaleDef","270","",""
"","","","","","html-slider-response","109","312148","0.0-105.0","58pqxtcva5","37","NaN","<div style=""width:500px;"">
                            <p style=""font-size:50px; font-weight:bold;""
                            >happy</p>
                            <div style=""width:240px; margin: auto;"">
                                <img src=""images/map15_Greens_scaleRev_orientMir_180.png"" style= ""width:200px""alt=""img"">
                            </div>
                        </div>","186","","0","","","","images/map15_Greens_scaleRev_orientMir_180.png","happy","1","15","15","Greens","orientMir","scaleRev","180","",""
"","","","","","html-slider-response","110","314450","0.0-106.0","58pqxtcva5","37","NaN","<div style=""width:500px;"">
                            <p style=""font-size:50px; font-weight:bold;""
                            >happy</p>
                            <div style=""width:240px; margin: auto;"">
                                <img src=""images/map23_OrRd_scaleDef_orientMir_270.png"" style= ""width:200px""alt=""img"">
                            </div>
                        </div>","-146","","0","","","","images/map23_OrRd_scaleDef_orientMir_270.png","happy","1","23","23","OrRd","orientMir","scaleDef","270","",""
"","","","","","html-slider-response","111","316017","0.0-107.0","58pqxtcva5","37","NaN","<div style=""width:500px;"">
                            <p style=""font-size:50px; font-weight:bold;""
                            >happy</p>
                            <div style=""width:240px; margin: auto;"">
                                <img src=""images/map12_gist_earth_scaleDef_orientDef_090.png"" style= ""width:200px""alt=""img"">
                            </div>
                        </div>","-24","","0","","","","images/map12_gist_earth_scaleDef_orientDef_090.png","happy","1","12","12","gist","scaleDef","earth","orientDef","",""
"","","","","","html-slider-response","112","317484","0.0-108.0","58pqxtcva5","37","NaN","<div style=""width:500px;"">
                            <p style=""font-size:50px; font-weight:bold;""
                            >happy</p>
                            <div style=""width:240px; margin: auto;"">
                                <img src=""images/map10_managua_scaleRev_orientMir_180.png"" style= ""width:200px""alt=""img"">
                            </div>
                        </div>","-85","","0","","","","images/map10_managua_scaleRev_orientMir_180.png","happy","1","10","10","managua","orientMir","scaleRev","180","",""
"","","","","","html-slider-response","113","319348","0.0-109.0","58pqxtcva5","37","NaN","<div style=""width:500px;"">
                            <p style=""font-size:50px; font-weight:bold;""
                            >happy</p>
                            <div style=""width:240px; margin: auto;"">
                                <img src=""images/map05_RdGy_scaleDef_orientDef_270.png"" style= ""width:200px""alt=""img"">
                            </div>
                        </div>","-200","","0","","","","images/map05_RdGy_scaleDef_orientDef_270.png","happy","1","05","05","RdGy","orientDef","scaleDef","270","",""
"","","","","","html-slider-response","114","321148","0.0-110.0","58pqxtcva5","37","NaN","<div style=""width:500px;"">
                            <p style=""font-size:50px; font-weight:bold;""
                            >happy</p>
                            <div style=""width:240px; margin: auto;"">
                                <img src=""images/map02_PRGn_scaleRev_orientMir_180.png"" style= ""width:200px""alt=""img"">
                            </div>
                        </div>","-38","","0","","","","images/map02_PRGn_scaleRev_orientMir_180.png","happy","1","02","02","PRGn","orientMir","scaleRev","180","",""
"","","","","","html-slider-response","115","322631","0.0-111.0","58pqxtcva5","37","NaN","<div style=""width:500px;"">
                            <p style=""font-size:50px; font-weight:bold;""
                            >happy</p>
                            <div style=""width:240px; margin: auto;"">
                                <img src=""images/map23_YlOrRd_scaleRev_orientMir_180.png"" style= ""width:200px""alt=""img"">
                            </div>
                        </div>","-25","","0","","","","images/map23_YlOrRd_scaleRev_orientMir_180.png","happy","1","23","23","YlOrRd","orientMir","scaleRev","180","",""
"","","","","","html-slider-response","116","324149","0.0-112.0","58pqxtcva5","37","NaN","<div style=""width:500px;"">
                            <p style=""font-size:50px; font-weight:bold;""
                            >happy</p>
                            <div style=""width:240px; margin: auto;"">
                                <img src=""images/map15_Purples_scaleDef_orientDef_090.png"" style= ""width:200px""alt=""img"">
                            </div>
                        </div>","111","","0","","","","images/map15_Purples_scaleDef_orientDef_090.png","happy","1","15","15","Purples","orientDef","scaleDef","090","",""
"","","","","","html-slider-response","117","326399","0.0-113.0","58pqxtcva5","37","NaN","<div style=""width:500px;"">
                            <p style=""font-size:50px; font-weight:bold;""
                            >happy</p>
                            <div style=""width:240px; margin: auto;"">
                                <img src=""images/map13_magma_scaleDef_orientDef_270.png"" style= ""width:200px""alt=""img"">
                            </div>
                        </div>","63","","0","","","","images/map13_magma_scaleDef_orientDef_270.png","happy","1","13","13","magma","orientDef","scaleDef","270","",""
"","","","","","html-slider-response","118","327748","0.0-114.0","58pqxtcva5","37","NaN","<div style=""width:500px;"">
                            <p style=""font-size:50px; font-weight:bold;""
                            >happy</p>
                            <div style=""width:240px; margin: auto;"">
                                <img src=""images/map05_PuOr_scaleRev_orientDef_180.png"" style= ""width:200px""alt=""img"">
                            </div>
                        </div>","14","","0","","","","images/map05_PuOr_scaleRev_orientDef_180.png","happy","1","05","05","PuOr","orientDef","scaleRev","180","",""
"","","","","","html-slider-response","119","329148","0.0-115.0","58pqxtcva5","37","NaN","<div style=""width:500px;"">
                            <p style=""font-size:50px; font-weight:bold;""
                            >happy</p>
                            <div style=""width:240px; margin: auto;"">
                                <img src=""images/map27_PuBu_scaleRev_orientDef_180.png"" style= ""width:200px""alt=""img"">
                            </div>
                        </div>","200","","0","","","","images/map27_PuBu_scaleRev_orientDef_180.png","happy","1","27","27","PuBu","orientDef","scaleRev","180","",""
"","","","","","html-slider-response","120","331066","0.0-116.0","58pqxtcva5","37","NaN","<div style=""width:500px;"">
                            <p style=""font-size:50px; font-weight:bold;""
                            >happy</p>
                            <div style=""width:240px; margin: auto;"">
                                <img src=""images/map26_BuPu_scaleRev_orientMir_180.png"" style= ""width:200px""alt=""img"">
                            </div>
                        </div>","82","","0","","","","images/map26_BuPu_scaleRev_orientMir_180.png","happy","1","26","26","BuPu","orientMir","scaleRev","180","",""
"","","","","","html-slider-response","121","332534","0.0-117.0","58pqxtcva5","37","NaN","<div style=""width:500px;"">
                            <p style=""font-size:50px; font-weight:bold;""
                            >happy</p>
                            <div style=""width:240px; margin: auto;"">
                                <img src=""images/map05_RdBu_scaleRev_orientMir_180.png"" style= ""width:200px""alt=""img"">
                            </div>
                        </div>","-92","","0","","","","images/map05_RdBu_scaleRev_orientMir_180.png","happy","1","05","05","RdBu","orientMir","scaleRev","180","",""
"","","","","","html-slider-response","122","334382","0.0-118.0","58pqxtcva5","37","NaN","<div style=""width:500px;"">
                            <p style=""font-size:50px; font-weight:bold;""
                            >happy</p>
                            <div style=""width:240px; margin: auto;"">
                                <img src=""images/map02_PiYG_scaleRev_orientMir_000.png"" style= ""width:200px""alt=""img"">
                            </div>
                        </div>","-105","","0","","","","images/map02_PiYG_scaleRev_orientMir_000.png","happy","1","02","02","PiYG","orientMir","scaleRev","000","",""
"","","","","","html-slider-response","123","336048","0.0-119.0","58pqxtcva5","37","NaN","<div style=""width:500px;"">
                            <p style=""font-size:50px; font-weight:bold;""
                            >happy</p>
                            <div style=""width:240px; margin: auto;"">
                                <img src=""images/map05_RdYlBu_scaleDef_orientMir_270.png"" style= ""width:200px""alt=""img"">
                            </div>
                        </div>","-29","","0","","","","images/map05_RdYlBu_scaleDef_orientMir_270.png","happy","1","05","05","RdYlBu","orientMir","scaleDef","270","",""
"","","","","","html-slider-response","124","337916","0.0-120.0","58pqxtcva5","37","NaN","<div style=""width:500px;"">
                            <p style=""font-size:50px; font-weight:bold;""
                            >happy</p>
                            <div style=""width:240px; margin: auto;"">
                                <img src=""images/map26_RdPu_scaleDef_orientDef_270.png"" style= ""width:200px""alt=""img"">
                            </div>
                        </div>","200","","0","","","","images/map26_RdPu_scaleDef_orientDef_270.png","happy","1","26","26","RdPu","orientDef","scaleDef","270","",""
"","","","","","html-slider-response","125","339534","0.0-121.0","58pqxtcva5","37","NaN","<div style=""width:500px;"">
                            <p style=""font-size:50px; font-weight:bold;""
                            >happy</p>
                            <div style=""width:240px; margin: auto;"">
                                <img src=""images/map15_Blues_scaleRev_orientMir_000.png"" style= ""width:200px""alt=""img"">
                            </div>
                        </div>","200","","0","","","","images/map15_Blues_scaleRev_orientMir_000.png","happy","1","15","15","Blues","orientMir","scaleRev","000","",""
"","","","","","html-slider-response","126","341248","0.0-122.0","58pqxtcva5","37","NaN","<div style=""width:500px;"">
                            <p style=""font-size:50px; font-weight:bold;""
                            >happy</p>
                            <div style=""width:240px; margin: auto;"">
                                <img src=""images/map13_Greys_scaleDef_orientMir_270.png"" style= ""width:200px""alt=""img"">
                            </div>
                        </div>","-200","","0","","","","images/map13_Greys_scaleDef_orientMir_270.png","happy","1","13","13","Greys","orientMir","scaleDef","270","",""
"","","","","","html-slider-response","127","343099","0.0-123.0","58pqxtcva5","37","NaN","<div style=""width:500px;"">
                            <p style=""font-size:50px; font-weight:bold;""
                            >happy</p>
                            <div style=""width:240px; margin: auto;"">
                                <img src=""images/map07_coolwarm_scaleRev_orientMir_180.png"" style= ""width:200px""alt=""img"">
                            </div>
                        </div>","-40","","0","","","","images/map07_coolwarm_scaleRev_orientMir_180.png","happy","1","07","07","coolwarm","orientMir","scaleRev","180","",""
"","","","","","html-slider-response","128","344797","0.0-124.0","58pqxtcva5","37","NaN","<div style=""width:500px;"">
                            <p style=""font-size:50px; font-weight:bold;""
                            >happy</p>
                            <div style=""width:240px; margin: auto;"">
                                <img src=""images/map23_Reds_scaleRev_orientDef_180.png"" style= ""width:200px""alt=""img"">
                            </div>
                        </div>","-94","","0","","","","images/map23_Reds_scaleRev_orientDef_180.png","happy","1","23","23","Reds","orientDef","scaleRev","180","",""
"","","","","","html-slider-response","129","346965","0.0-125.0","58pqxtcva5","37","NaN","<div style=""width:500px;"">
                            <p style=""font-size:50px; font-weight:bold;""
                            >happy</p>
                            <div style=""width:240px; margin: auto;"">
                                <img src=""images/map23_YlOrBr_scaleRev_orientMir_000.png"" style= ""width:200px""alt=""img"">
                            </div>
                        </div>","-200","","0","","","","images/map23_YlOrBr_scaleRev_orientMir_000.png","happy","1","23","23","YlOrBr","orientMir","scaleRev","000","",""
"","","","","","html-slider-response","130","348716","0.0-126.0","58pqxtcva5","37","NaN","<div style=""width:500px;"">
                            <p style=""font-size:50px; font-weight:bold;""
                            >happy</p>
                            <div style=""width:240px; margin: auto;"">
                                <img src=""images/map12_turbo_scaleRev_orientMir_000.png"" style= ""width:200px""alt=""img"">
                            </div>
                        </div>","-59","","0","","","","images/map12_turbo_scaleRev_orientMir_000.png","happy","1","12","12","turbo","orientMir","scaleRev","000","",""
"","","","","","html-slider-response","131","350133","0.0-127.0","58pqxtcva5","37","NaN","<div style=""width:500px;"">
                            <p style=""font-size:50px; font-weight:bold;""
                            >happy</p>
                            <div style=""width:240px; margin: auto;"">
                                <img src=""images/map10_berlin_scaleRev_orientMir_000.png"" style= ""width:200px""alt=""img"">
                            </div>
                        </div>","-131","","0","","","","images/map10_berlin_scaleRev_orientMir_000.png","happy","1","10","10","berlin","orientMir","scaleRev","000","",""
"","","","","","html-slider-response","132","351831","0.0-128.0","58pqxtcva5","37","NaN","<div style=""width:500px;"">
                            <p style=""font-size:50px; font-weight:bold;""
                            >happy</p>
                            <div style=""width:240px; margin: auto;"">
                                <img src=""images/map26_BuPu_scaleDef_orientMir_090.png"" style= ""width:200px""alt=""img"">
                            </div>
                        </div>","81","","0","","","","images/map26_BuPu_scaleDef_orientMir_090.png","happy","1","26","26","BuPu","orientMir","scaleDef","090","",""
"","","","","","html-slider-response","133","353632","0.0-129.0","58pqxtcva5","37","NaN","<div style=""width:500px;"">
                            <p style=""font-size:50px; font-weight:bold;""
                            >happy</p>
                            <div style=""width:240px; margin: auto;"">
                                <img src=""images/map05_RdBu_scaleDef_orientMir_090.png"" style= ""width:200px""alt=""img"">
                            </div>
                        </div>","-73","","0","","","","images/map05_RdBu_scaleDef_orientMir_090.png","happy","1","05","05","RdBu","orientMir","scaleDef","090","",""
"","","","","","html-slider-response","134","355198","0.0-130.0","58pqxtcva5","37","NaN","<div style=""width:500px;"">
                            <p style=""font-size:50px; font-weight:bold;""
                            >happy</p>
                            <div style=""width:240px; margin: auto;"">
                                <img src=""images/map15_Oranges_scaleDef_orientMir_270.png"" style= ""width:200px""alt=""img"">
                            </div>
                        </div>","-200","","0","","","","images/map15_Oranges_scaleDef_orientMir_270.png","happy","1","15","15","Oranges","orientMir","scaleDef","270","",""
"","","","","","html-slider-response","135","356765","0.0-131.0","58pqxtcva5","37","NaN","<div style=""width:500px;"">
                            <p style=""font-size:50px; font-weight:bold;""
                            >happy</p>
                            <div style=""width:240px; margin: auto;"">
                                <img src=""images/map15_Blues_scaleDef_orientDef_270.png"" style= ""width:200px""alt=""img"">
                            </div>
                        </div>","200","","0","","","","images/map15_Blues_scaleDef_orientDef_270.png","happy","1","15","15","Blues","orientDef","scaleDef","270","",""
"","","","","","html-slider-response","136","358417","0.0-132.0","58pqxtcva5","37","NaN","<div style=""width:500px;"">
                            <p style=""font-size:50px; font-weight:bold;""
                            >happy</p>
                            <div style=""width:240px; margin: auto;"">
                                <img src=""images/map26_PuRd_scaleRev_orientDef_180.png"" style= ""width:200px""alt=""img"">
                            </div>
                        </div>","200","","0","","","","images/map26_PuRd_scaleRev_orientDef_180.png","happy","1","26","26","PuRd","orientDef","scaleRev","180","",""
"","","","","","html-slider-response","137","360615","0.0-133.0","58pqxtcva5","37","NaN","<div style=""width:500px;"">
                            <p style=""font-size:50px; font-weight:bold;""
                            >happy</p>
                            <div style=""width:240px; margin: auto;"">
                                <img src=""images/map02_PiYG_scaleDef_orientDef_270.png"" style= ""width:200px""alt=""img"">
                            </div>
                        </div>","-118","","0","","","","images/map02_PiYG_scaleDef_orientDef_270.png","happy","1","02","02","PiYG","orientDef","scaleDef","270","",""
"","","","","","html-slider-response","138","362283","0.0-134.0","58pqxtcva5","37","NaN","<div style=""width:500px;"">
                            <p style=""font-size:50px; font-weight:bold;""
                            >happy</p>
                            <div style=""width:240px; margin: auto;"">
                                <img src=""images/map10_seismic_scaleRev_orientDef_180.png"" style= ""width:200px""alt=""img"">
                            </div>
                        </div>","-102","","0","","","","images/map10_seismic_scaleRev_orientDef_180.png","happy","1","10","10","seismic","orientDef","scaleRev","180","",""
"","","","","","html-slider-response","139","366781","0.0-135.0","58pqxtcva5","37","NaN","<div style=""width:500px;"">
                            <p style=""font-size:50px; font-weight:bold;""
                            >happy</p>
                            <div style=""width:240px; margin: auto;"">
                                <img src=""images/map10_berlin_scaleDef_orientDef_270.png"" style= ""width:200px""alt=""img"">
                            </div>
                        </div>","-129","","0","","","","images/map10_berlin_scaleDef_orientDef_270.png","happy","1","10","10","berlin","orientDef","scaleDef","270","",""
"","","","","","html-slider-response","140","368581","0.0-136.0","58pqxtcva5","37","NaN","<div style=""width:500px;"">
                            <p style=""font-size:50px; font-weight:bold;""
                            >happy</p>
                            <div style=""width:240px; margin: auto;"">
                                <img src=""images/map23_Reds_scaleDef_orientDef_090.png"" style= ""width:200px""alt=""img"">
                            </div>
                        </div>","-200","","0","","","","images/map23_Reds_scaleDef_orientDef_090.png","happy","1","23","23","Reds","orientDef","scaleDef","090","",""
"","","","","","html-button-response","141","394087","0.0-137.0","58pqxtcva5","37","25004","<p>You are doing great!<br></br> You are halway done with the current block. When you are ready to continue, click the 'Continue' button.</p>","0","","","","","","","","","","","","","","","",""
"","","","","","html-slider-response","142","397548","0.0-138.0","58pqxtcva5","37","NaN","<div style=""width:500px;"">
                            <p style=""font-size:50px; font-weight:bold;""
                            >happy</p>
                            <div style=""width:240px; margin: auto;"">
                                <img src=""images/map27_YlGnBu_scaleRev_orientMir_000.png"" style= ""width:200px""alt=""img"">
                            </div>
                        </div>","200","","0","","","","images/map27_YlGnBu_scaleRev_orientMir_000.png","happy","1","27","27","YlGnBu","orientMir","scaleRev","000","",""
"","","","","","html-slider-response","143","399682","0.0-139.0","58pqxtcva5","37","NaN","<div style=""width:500px;"">
                            <p style=""font-size:50px; font-weight:bold;""
                            >happy</p>
                            <div style=""width:240px; margin: auto;"">
                                <img src=""images/map12_viridis_scaleRev_orientMir_180.png"" style= ""width:200px""alt=""img"">
                            </div>
                        </div>","-106","","0","","","","images/map12_viridis_scaleRev_orientMir_180.png","happy","1","12","12","viridis","orientMir","scaleRev","180","",""
"","","","","","html-slider-response","144","401298","0.0-140.0","58pqxtcva5","37","NaN","<div style=""width:500px;"">
                            <p style=""font-size:50px; font-weight:bold;""
                            >happy</p>
                            <div style=""width:240px; margin: auto;"">
                                <img src=""images/map15_Greys_scaleRev_orientDef_000.png"" style= ""width:200px""alt=""img"">
                            </div>
                        </div>","-200","","0","","","","images/map15_Greys_scaleRev_orientDef_000.png","happy","1","15","15","Greys","orientDef","scaleRev","000","",""
"","","","","","html-slider-response","145","402864","0.0-141.0","58pqxtcva5","37","NaN","<div style=""width:500px;"">
                            <p style=""font-size:50px; font-weight:bold;""
                            >happy</p>
                            <div style=""width:240px; margin: auto;"">
                                <img src=""images/map02_YlGn_scaleRev_orientDef_180.png"" style= ""width:200px""alt=""img"">
                            </div>
                        </div>","200","","0","","","","images/map02_YlGn_scaleRev_orientDef_180.png","happy","1","02","02","YlGn","orientDef","scaleRev","180","",""
"","","","","","html-slider-response","146","404731","0.0-142.0","58pqxtcva5","37","NaN","<div style=""width:500px;"">
                            <p style=""font-size:50px; font-weight:bold;""
                            >happy</p>
                            <div style=""width:240px; margin: auto;"">
                                <img src=""images/map23_YlOrRd_scaleDef_orientMir_090.png"" style= ""width:200px""alt=""img"">
                            </div>
                        </div>","-117","","0","","","","images/map23_YlOrRd_scaleDef_orientMir_090.png","happy","1","23","23","YlOrRd","orientMir","scaleDef","090","",""
"","","","","","html-slider-response","147","406415","0.0-143.0","58pqxtcva5","37","NaN","<div style=""width:500px;"">
                            <p style=""font-size:50px; font-weight:bold;""
                            >happy</p>
                            <div style=""width:240px; margin: auto;"">
                                <img src=""images/map12_vanimo_scaleRev_orientDef_000.png"" style= ""width:200px""alt=""img"">
                            </div>
                        </div>","-111","","0","","","","images/map12_vanimo_scaleRev_orientDef_000.png","happy","1","12","12","vanimo","orientDef","scaleRev","000","",""
"","","","","","html-slider-response","148","407948","0.0-144.0","58pqxtcva5","37","NaN","<div style=""width:500px;"">
                            <p style=""font-size:50px; font-weight:bold;""
                            >happy</p>
                            <div style=""width:240px; margin: auto;"">
                                <img src=""images/map26_PuRd_scaleDef_orientDef_090.png"" style= ""width:200px""alt=""img"">
                            </div>
                        </div>","200","","0","","","","images/map26_PuRd_scaleDef_orientDef_090.png","happy","1","26","26","PuRd","orientDef","scaleDef","090","",""
"","","","","","html-slider-response","149","409649","0.0-145.0","58pqxtcva5","37","NaN","<div style=""width:500px;"">
                            <p style=""font-size:50px; font-weight:bold;""
                            >happy</p>
                            <div style=""width:240px; margin: auto;"">
                                <img src=""images/map05_RdGy_scaleRev_orientMir_000.png"" style= ""width:200px""alt=""img"">
                            </div>
                        </div>","-82","","0","","","","images/map05_RdGy_scaleRev_orientMir_000.png","happy","1","05","05","RdGy","orientMir","scaleRev","000","",""
"","","","","","html-slider-response","150","411248","0.0-146.0","58pqxtcva5","37","NaN","<div style=""width:500px;"">
                            <p style=""font-size:50px; font-weight:bold;""
                            >happy</p>
                            <div style=""width:240px; margin: auto;"">
                                <img src=""images/map02_BuGn_scaleRev_orientDef_000.png"" style= ""width:200px""alt=""img"">
                            </div>
                        </div>","198","","0","","","","images/map02_BuGn_scaleRev_orientDef_000.png","happy","1","02","02","BuGn","orientDef","scaleRev","000","",""
"","","","","","html-slider-response","151","412798","0.0-147.0","58pqxtcva5","37","NaN","<div style=""width:500px;"">
                            <p style=""font-size:50px; font-weight:bold;""
                            >happy</p>
                            <div style=""width:240px; margin: auto;"">
                                <img src=""images/map27_PuBu_scaleDef_orientDef_090.png"" style= ""width:200px""alt=""img"">
                            </div>
                        </div>","200","","0","","","","images/map27_PuBu_scaleDef_orientDef_090.png","happy","1","27","27","PuBu","orientDef","scaleDef","090","",""
"","","","","","html-slider-response","152","414531","0.0-148.0","58pqxtcva5","37","NaN","<div style=""width:500px;"">
                            <p style=""font-size:50px; font-weight:bold;""
                            >happy</p>
                            <div style=""width:240px; margin: auto;"">
                                <img src=""images/map07_Spectral_scaleRev_orientMir_000.png"" style= ""width:200px""alt=""img"">
                            </div>
                        </div>","-138","","0","","","","images/map07_Spectral_scaleRev_orientMir_000.png","happy","1","07","07","Spectral","orientMir","scaleRev","000","",""
"","","","","","html-slider-response","153","415916","0.0-149.0","58pqxtcva5","37","NaN","<div style=""width:500px;"">
                            <p style=""font-size:50px; font-weight:bold;""
                            >happy</p>
                            <div style=""width:240px; margin: auto;"">
                                <img src=""images/map27_PuBuGn_scaleRev_orientMir_180.png"" style= ""width:200px""alt=""img"">
                            </div>
                        </div>","200","","0","","","","images/map27_PuBuGn_scaleRev_orientMir_180.png","happy","1","27","27","PuBuGn","orientMir","scaleRev","180","",""
"","","","","","html-slider-response","154","417583","0.0-150.0","58pqxtcva5","37","NaN","<div style=""width:500px;"">
                            <p style=""font-size:50px; font-weight:bold;""
                            >happy</p>
                            <div style=""width:240px; margin: auto;"">
                                <img src=""images/map10_managua_scaleDef_orientMir_090.png"" style= ""width:200px""alt=""img"">
                            </div>
                        </div>","-113","","0","","","","images/map10_managua_scaleDef_orientMir_090.png","happy","1","10","10","managua","orientMir","scaleDef","090","",""
"","","","","","html-slider-response","155","419248","0.0-151.0","58pqxtcva5","37","NaN","<div style=""width:500px;"">
                            <p style=""font-size:50px; font-weight:bold;""
                            >happy</p>
                            <div style=""width:240px; margin: auto;"">
                                <img src=""images/map10_bwr_scaleRev_orientDef_000.png"" style= ""width:200px""alt=""img"">
                            </div>
                        </div>","-119","","0","","","","images/map10_bwr_scaleRev_orientDef_000.png","happy","1","10","10","bwr","orientDef","scaleRev","000","",""
"","","","","","html-slider-response","156","421764","0.0-152.0","58pqxtcva5","37","NaN","<div style=""width:500px;"">
                            <p style=""font-size:50px; font-weight:bold;""
                            >happy</p>
                            <div style=""width:240px; margin: auto;"">
                                <img src=""images/map07_bwr_scaleDef_orientMir_270.png"" style= ""width:200px""alt=""img"">
                            </div>
                        </div>","-143","","0","","","","images/map07_bwr_scaleDef_orientMir_270.png","happy","1","07","07","bwr","orientMir","scaleDef","270","",""
"","","","","","html-slider-response","157","423551","0.0-153.0","58pqxtcva5","37","NaN","<div style=""width:500px;"">
                            <p style=""font-size:50px; font-weight:bold;""
                            >happy</p>
                            <div style=""width:240px; margin: auto;"">
                                <img src=""images/map07_Spectral_scaleDef_orientDef_270.png"" style= ""width:200px""alt=""img"">
