"success","timeout","failed_images","failed_audio","failed_video","trial_type","trial_index","time_elapsed","internal_node_id","subject_id","condition_num","rt","stimulus","response","question_order","slider_start","practiceTrial","practiceTrialNum","correct","image_path","concept","repetition","map_id","map_num","scale_name","orientation_code","mapping_code","rotation_code","ishihara_plate","correct_response"
"true","false","[]","[]","[]","preload","0","593","0.0-0.0","6g0bm4ktnv","37","","","","","","","","","","","","","","","","","","",""
"","","","","","html-button-response","1","5462","0.0-1.0","6g0bm4ktnv","37","4867","Welcome to our experiment!<p>At the bottom of this screen, you will see a button that says ""Begin Experiment"".<br>Please only click that button when you are ready to complete the 30 minute experiment in one sitting.</p><p> Once you click that button, it will not be possible to restart the experiment.","0","","","","","","","","","","","","","","","",""
"true","","","","","fullscreen","2","8581","0.0-2.0","6g0bm4ktnv","37","2111","","","","","","","","","","","","","","","","","",""
"","","","","","survey-multi-select","3","72265","0.0-3.0","6g0bm4ktnv","37","63678","","{""Consent"":[""<strong>I consent</strong>""]}","[0]","","","","","","","","","","","","","","",""
"","","","","","html-button-response","4","74417","0.0-4.0","6g0bm4ktnv","37","2150","Welcome! <p> This experiment involves two parts: demographic information, followed by the experimental task.<p> It will take about 30 minutes to complete both parts.","0","","","","","","","","","","","","","","","",""
"","","","","","survey-text","5","99309","0.0-5.0","6g0bm4ktnv","37","24880","","{""Age"":""18"",""Gender"":""male"",""Race/ethnicity"":""caucasian "",""Languages"":""english, spanish""}","","","","","","","","","","","","","","","",""
"","","","","","html-slider-response","6","194096","0.0-6.0","6g0bm4ktnv","37","94784","<div style='text-align:left; font-size:20px; line-height:25px; width: 1000px;'>
                                During this experiment you will be asked to rate how much you associate maps with                    different concepts.<br> Below, you can see some examples of the maps you will be asked to rate. Above the maps
                    is the list of concepts.<br>You will be asked                    to rate how much you associate each map with each concept on a scale from 'not at all' to 'very much' like the
                    one below. <br><br>
                    Now, please look at the list of concepts and maps. For each concept, think about the map you associate 'very
                    much' with the concept.<br>                     When you see that map during the experiment, please rate it near the 'very much' endpoint of the
                    scale.<br>Now, please think about which map you associate 'not at all'                     with each concept. When you see that map during the experiment, please rate it near the 'not at all' endpoint
                    of the scale.<br>
                    Please use the full range of the scale. That is, if a map is somewhat associated with the concept, you would
                    click partway between the middle point and right side of the scale.                    You will be asked to rate each map for a given concept before moving on to the next concept.<br>Press the
                    'Continue' button for instructions on how to use the slider.                    <br>
                </div>

                <div style=""width: 500px; margin: 0 auto;"">
                    <!-- Centered text paragraphs -->
                    <div style=""text-align: center; width: 500px;"">
                        <p style=""font-size:25px; line-height:15px;"">
                            fearful&nbsp;&nbsp;&nbsp;&nbsp;
                            disgust&nbsp;&nbsp;&nbsp;&nbsp;
                            happy&nbsp;&nbsp;&nbsp;&nbsp;
                            angry&nbsp;&nbsp;&nbsp;&nbsp;
                            sad
                        </p>
                        <!-- <p style=""font-size:20px; line-height:15px;"">disgust</p>
                        <p style=""font-size:20px;line-height:15px;"">happy</p>
                        <p style=""font-size:20px;line-height:15px;"">angry</p>
                        <p style=""font-size:20px;line-height:15px;"">sad</p> -->
                    </div>
            

                    <!-- Grid section -->
                   <div style=""display: flex; justify-content: center; padding-top: 15px;"">
                    <div style=""display: grid; grid-template-columns: repeat(10, 55px); grid-gap: 5px; width: auto;"">
                        <img src=""images/map13_cividis_scaleDef_orientMir_090.png"" alt=""map"" style=""width: 100%;""><img src=""images/map10_managua_scaleRev_orientMir_180.png"" alt=""map"" style=""width: 100%;""><img src=""images/map05_RdGy_scaleRev_orientMir_000.png"" alt=""map"" style=""width: 100%;""><img src=""images/map13_inferno_scaleRev_orientDef_180.png"" alt=""map"" style=""width: 100%;""><img src=""images/map23_Reds_scaleDef_orientDef_090.png"" alt=""map"" style=""width: 100%;""><img src=""images/map02_PRGn_scaleDef_orientMir_090.png"" alt=""map"" style=""width: 100%;""><img src=""images/map02_PiYG_scaleRev_orientMir_000.png"" alt=""map"" style=""width: 100%;""><img src=""images/map02_BuGn_scaleRev_orientDef_000.png"" alt=""map"" style=""width: 100%;""><img src=""images/map15_Purples_scaleRev_orientDef_180.png"" alt=""map"" style=""width: 100%;""><img src=""images/map27_PuBuGn_scaleRev_orientMir_180.png"" alt=""map"" style=""width: 100%;""><img src=""images/map12_vanimo_scaleRev_orientDef_000.png"" alt=""map"" style=""width: 100%;""><img src=""images/map27_PuBu_scaleRev_orientDef_180.png"" alt=""map"" style=""width: 100%;""><img src=""images/map07_bwr_scaleDef_orientMir_270.png"" alt=""map"" style=""width: 100%;""><img src=""images/map12_gist_earth_scaleRev_orientDef_180.png"" alt=""map"" style=""width: 100%;""><img src=""images/map12_viridis_scaleDef_orientMir_090.png"" alt=""map"" style=""width: 100%;""><img src=""images/map27_YlGnBu_scaleRev_orientMir_000.png"" alt=""map"" style=""width: 100%;""><img src=""images/map15_Blues_scaleRev_orientMir_000.png"" alt=""map"" style=""width: 100%;""><img src=""images/map15_Greys_scaleRev_orientDef_000.png"" alt=""map"" style=""width: 100%;""><img src=""images/map26_RdPu_scaleDef_orientDef_270.png"" alt=""map"" style=""width: 100%;""><img src=""images/map23_YlOrBr_scaleRev_orientMir_000.png"" alt=""map"" style=""width: 100%;""><img src=""images/map07_Spectral_scaleRev_orientMir_000.png"" alt=""map"" style=""width: 100%;""><img src=""images/map27_GnBu_scaleRev_orientDef_000.png"" alt=""map"" style=""width: 100%;""><img src=""images/map13_plasma_scaleRev_orientDef_000.png"" alt=""map"" style=""width: 100%;""><img src=""images/map23_OrRd_scaleDef_orientMir_270.png"" alt=""map"" style=""width: 100%;""><img src=""images/map05_RdBu_scaleDef_orientMir_090.png"" alt=""map"" style=""width: 100%;""><img src=""images/map07_RdYlGn_scaleDef_orientDef_090.png"" alt=""map"" style=""width: 100%;""><img src=""images/map07_coolwarm_scaleDef_orientMir_090.png"" alt=""map"" style=""width: 100%;""><img src=""images/map13_magma_scaleDef_orientDef_270.png"" alt=""map"" style=""width: 100%;""><img src=""images/map05_RdYlBu_scaleDef_orientMir_270.png"" alt=""map"" style=""width: 100%;""><img src=""images/map05_BrBG_scaleRev_orientDef_000.png"" alt=""map"" style=""width: 100%;""><img src=""images/map26_PuRd_scaleRev_orientDef_180.png"" alt=""map"" style=""width: 100%;""><img src=""images/map15_Oranges_scaleDef_orientMir_270.png"" alt=""map"" style=""width: 100%;""><img src=""images/map10_berlin_scaleRev_orientMir_000.png"" alt=""map"" style=""width: 100%;""><img src=""images/map10_seismic_scaleDef_orientDef_090.png"" alt=""map"" style=""width: 100%;""><img src=""images/map15_Greens_scaleRev_orientMir_180.png"" alt=""map"" style=""width: 100%;""><img src=""images/map23_YlOrRd_scaleRev_orientMir_180.png"" alt=""map"" style=""width: 100%;""><img src=""images/map26_BuPu_scaleDef_orientMir_090.png"" alt=""map"" style=""width: 100%;""><img src=""images/map05_PuOr_scaleRev_orientDef_180.png"" alt=""map"" style=""width: 100%;""><img src=""images/map12_turbo_scaleDef_orientDef_270.png"" alt=""map"" style=""width: 100%;""><img src=""images/map02_YlGn_scaleDef_orientDef_090.png"" alt=""map"" style=""width: 100%;"">
                    </div>
                </div>

                    <!-- Clear floats -->
                    <div style=""clear: both;""></div>
                </div>
                            ","22","","0","true","","","","","","","","","","","","",""
"","","","","","html-button-response","7","203016","0.0-7.0","6g0bm4ktnv","37","8918","<div style=""width:800px;""><p style=""text-align:left"">To move the slider, click and drag your cursor to the location of the scale where you would like to make your rating and then let go. When you let go of the slider, your response will be recorded and the next trial will begin. <br>
                    We are interested in your initial impressions of each map for the given concept, so please go with your first intuition. <br>
                    Before you begin the experiment, there will be four training trials for you to practice using the scale. <br>
                     When you are ready to start the training trials, please click ""Continue"".</p><br></div>","0","","","","","","","","","","","","","","","",""
"","","","","","html-slider-response","8","206248","0.0-8.0-0.0","6g0bm4ktnv","37","NaN","<div style=""width:500px;"">
                                    <p style=""font-size:25px;"">Please move the slider all the way to the <br> right endpoint of the scale</p>

                                    </div>
                                </div>","200","","0","true","0","true","","","","","","","","","","",""
"","","","","","html-button-response","9","207980","0.0-8.0-1.0","6g0bm4ktnv","37","1219","<p align='center'><b>Good job!</b> Click on 'Continue' to proceed.</p>","0","","","","","","","","","","","","","","","",""
"","","","","","html-slider-response","10","210531","0.0-9.0-0.0","6g0bm4ktnv","37","NaN","<div style=""width:500px;"">
                                    <p style=""font-size:25px;"">Please move the slider all the way to the <br> left endpoint of the scale</p>

                                    </div>
                                </div>","-200","","0","true","1","true","","","","","","","","","","",""
"","","","","","html-button-response","11","212247","0.0-9.0-1.0","6g0bm4ktnv","37","1199","<p align='center'><b>Good job!</b> Click on 'Continue' to proceed.</p>","0","","","","","","","","","","","","","","","",""
"","","","","","html-slider-response","12","221963","0.0-10.0-0.0","6g0bm4ktnv","37","NaN","<div style=""width:500px;"">
                                    <p style=""font-size:25px;"">Please move the slider halfway between the center and right endpoint of the scale</p>

                                    </div>
                                </div>","103","","0","true","2","true","","","","","","","","","","",""
"","","","","","html-button-response","13","223153","0.0-10.0-1.0","6g0bm4ktnv","37","684","<p align='center'><b>Good job!</b> Click on 'Continue' to proceed.</p>","0","","","","","","","","","","","","","","","",""
"","","","","","html-slider-response","14","226579","0.0-11.0-0.0","6g0bm4ktnv","37","NaN","<div style=""width:500px;"">
                                    <p style=""font-size:25px;"">Please move the slider halfway between the center and left endpoint of the scale</p>

                                    </div>
                                </div>","-110","","0","true","3","true","","","","","","","","","","",""
"","","","","","html-button-response","15","234655","0.0-11.0-1.0","6g0bm4ktnv","37","7564","<p align='center'><b>Good job!</b> Click on 'Continue' to proceed.</p>","0","","","","","","","","","","","","","","","",""
"","","","","","html-button-response","16","244492","0.0-12.0","6g0bm4ktnv","37","9834","<p>Great job! You've completed the practice trials. Now you will begin the main task.</p>","0","","","","","","","","","","","","","","","",""
"","","","","","html-button-response","17","246778","0.0-13.0","6g0bm4ktnv","37","2284","<p>In this block of trials, you will be asked to rate how much you associate each map with:</p > <p style = 'font-size:150%; font-weight: bold'>fearful</p><br></br>","0","","","","","","","","","","","","","","","",""
"","","","","","html-slider-response","18","249357","0.0-14.0","6g0bm4ktnv","37","NaN","<div style=""width:500px;"">
                            <p style=""font-size:50px; font-weight:bold;""
                            >fearful</p>
                            <div style=""width:240px; margin: auto;"">
                                <img src=""images/map10_berlin_scaleRev_orientMir_000.png"" style= ""width:200px""alt=""img"">
                            </div>
                        </div>","60","","0","","","","images/map10_berlin_scaleRev_orientMir_000.png","fearful","1","10","10","berlin","orientMir","scaleRev","000","",""
"","","","","","html-slider-response","19","252121","0.0-15.0","6g0bm4ktnv","37","NaN","<div style=""width:500px;"">
                            <p style=""font-size:50px; font-weight:bold;""
                            >fearful</p>
                            <div style=""width:240px; margin: auto;"">
                                <img src=""images/map12_viridis_scaleRev_orientMir_180.png"" style= ""width:200px""alt=""img"">
                            </div>
                        </div>","73","","0","","","","images/map12_viridis_scaleRev_orientMir_180.png","fearful","1","12","12","viridis","orientMir","scaleRev","180","",""
"","","","","","html-slider-response","20","254924","0.0-16.0","6g0bm4ktnv","37","NaN","<div style=""width:500px;"">
                            <p style=""font-size:50px; font-weight:bold;""
                            >fearful</p>
                            <div style=""width:240px; margin: auto;"">
                                <img src=""images/map02_YlGn_scaleRev_orientDef_180.png"" style= ""width:200px""alt=""img"">
                            </div>
                        </div>","-44","","0","","","","images/map02_YlGn_scaleRev_orientDef_180.png","fearful","1","02","02","YlGn","orientDef","scaleRev","180","",""
"","","","","","html-slider-response","21","257087","0.0-17.0","6g0bm4ktnv","37","NaN","<div style=""width:500px;"">
                            <p style=""font-size:50px; font-weight:bold;""
                            >fearful</p>
                            <div style=""width:240px; margin: auto;"">
                                <img src=""images/map13_plasma_scaleRev_orientDef_000.png"" style= ""width:200px""alt=""img"">
                            </div>
                        </div>","-123","","0","","","","images/map13_plasma_scaleRev_orientDef_000.png","fearful","1","13","13","plasma","orientDef","scaleRev","000","",""
"","","","","","html-slider-response","22","259675","0.0-18.0","6g0bm4ktnv","37","NaN","<div style=""width:500px;"">
                            <p style=""font-size:50px; font-weight:bold;""
                            >fearful</p>
                            <div style=""width:240px; margin: auto;"">
                                <img src=""images/map27_BuGn_scaleDef_orientMir_270.png"" style= ""width:200px""alt=""img"">
                            </div>
                        </div>","-36","","0","","","","images/map27_BuGn_scaleDef_orientMir_270.png","fearful","1","27","27","BuGn","orientMir","scaleDef","270","",""
"","","","","","html-slider-response","23","263453","0.0-19.0","6g0bm4ktnv","37","NaN","<div style=""width:500px;"">
                            <p style=""font-size:50px; font-weight:bold;""
                            >fearful</p>
                            <div style=""width:240px; margin: auto;"">
                                <img src=""images/map13_Greys_scaleDef_orientMir_270.png"" style= ""width:200px""alt=""img"">
                            </div>
                        </div>","-182","","0","","","","images/map13_Greys_scaleDef_orientMir_270.png","fearful","1","13","13","Greys","orientMir","scaleDef","270","",""
"","","","","","html-slider-response","24","266518","0.0-20.0","6g0bm4ktnv","37","NaN","<div style=""width:500px;"">
                            <p style=""font-size:50px; font-weight:bold;""
                            >fearful</p>
                            <div style=""width:240px; margin: auto;"">
                                <img src=""images/map07_bwr_scaleDef_orientMir_270.png"" style= ""width:200px""alt=""img"">
                            </div>
                        </div>","65","","0","","","","images/map07_bwr_scaleDef_orientMir_270.png","fearful","1","07","07","bwr","orientMir","scaleDef","270","",""
"","","","","","html-slider-response","25","268861","0.0-21.0","6g0bm4ktnv","37","NaN","<div style=""width:500px;"">
                            <p style=""font-size:50px; font-weight:bold;""
                            >fearful</p>
                            <div style=""width:240px; margin: auto;"">
                                <img src=""images/map15_Purples_scaleRev_orientDef_180.png"" style= ""width:200px""alt=""img"">
                            </div>
                        </div>","-150","","0","","","","images/map15_Purples_scaleRev_orientDef_180.png","fearful","1","15","15","Purples","orientDef","scaleRev","180","",""
"","","","","","html-slider-response","26","271439","0.0-22.0","6g0bm4ktnv","37","NaN","<div style=""width:500px;"">
                            <p style=""font-size:50px; font-weight:bold;""
                            >fearful</p>
                            <div style=""width:240px; margin: auto;"">
                                <img src=""images/map02_BrBG_scaleDef_orientMir_270.png"" style= ""width:200px""alt=""img"">
                            </div>
                        </div>","36","","0","","","","images/map02_BrBG_scaleDef_orientMir_270.png","fearful","1","02","02","BrBG","orientMir","scaleDef","270","",""
"","","","","","html-slider-response","27","274340","0.0-23.0","6g0bm4ktnv","37","NaN","<div style=""width:500px;"">
                            <p style=""font-size:50px; font-weight:bold;""
                            >fearful</p>
                            <div style=""width:240px; margin: auto;"">
                                <img src=""images/map26_GnBu_scaleDef_orientMir_270.png"" style= ""width:200px""alt=""img"">
                            </div>
                        </div>","-124","","0","","","","images/map26_GnBu_scaleDef_orientMir_270.png","fearful","1","26","26","GnBu","orientMir","scaleDef","270","",""
"","","","","","html-slider-response","28","277545","0.0-24.0","6g0bm4ktnv","37","NaN","<div style=""width:500px;"">
                            <p style=""font-size:50px; font-weight:bold;""
                            >fearful</p>
                            <div style=""width:240px; margin: auto;"">
                                <img src=""images/map07_Spectral_scaleDef_orientDef_270.png"" style= ""width:200px""alt=""img"">
                            </div>
                        </div>","86","","0","","","","images/map07_Spectral_scaleDef_orientDef_270.png","fearful","1","07","07","Spectral","orientDef","scaleDef","270","",""
"","","","","","html-slider-response","29","279711","0.0-25.0","6g0bm4ktnv","37","NaN","<div style=""width:500px;"">
                            <p style=""font-size:50px; font-weight:bold;""
                            >fearful</p>
                            <div style=""width:240px; margin: auto;"">
                                <img src=""images/map15_Blues_scaleDef_orientDef_270.png"" style= ""width:200px""alt=""img"">
                            </div>
                        </div>","-200","","0","","","","images/map15_Blues_scaleDef_orientDef_270.png","fearful","1","15","15","Blues","orientDef","scaleDef","270","",""
"","","","","","html-slider-response","30","282096","0.0-26.0","6g0bm4ktnv","37","NaN","<div style=""width:500px;"">
                            <p style=""font-size:50px; font-weight:bold;""
                            >fearful</p>
                            <div style=""width:240px; margin: auto;"">
                                <img src=""images/map10_berlin_scaleDef_orientDef_270.png"" style= ""width:200px""alt=""img"">
                            </div>
                        </div>","-46","","0","","","","images/map10_berlin_scaleDef_orientDef_270.png","fearful","1","10","10","berlin","orientDef","scaleDef","270","",""
"","","","","","html-slider-response","31","285044","0.0-27.0","6g0bm4ktnv","37","NaN","<div style=""width:500px;"">
                            <p style=""font-size:50px; font-weight:bold;""
                            >fearful</p>
                            <div style=""width:240px; margin: auto;"">
                                <img src=""images/map12_gist_earth_scaleRev_orientDef_180.png"" style= ""width:200px""alt=""img"">
                            </div>
                        </div>","86","","0","","","","images/map12_gist_earth_scaleRev_orientDef_180.png","fearful","1","12","12","gist","scaleRev","earth","orientDef","",""
"","","","","","html-slider-response","32","287217","0.0-28.0","6g0bm4ktnv","37","NaN","<div style=""width:500px;"">
                            <p style=""font-size:50px; font-weight:bold;""
                            >fearful</p>
                            <div style=""width:240px; margin: auto;"">
                                <img src=""images/map05_PuOr_scaleDef_orientDef_090.png"" style= ""width:200px""alt=""img"">
                            </div>
                        </div>","163","","0","","","","images/map05_PuOr_scaleDef_orientDef_090.png","fearful","1","05","05","PuOr","orientDef","scaleDef","090","",""
"","","","","","html-slider-response","33","291078","0.0-29.0","6g0bm4ktnv","37","NaN","<div style=""width:500px;"">
                            <p style=""font-size:50px; font-weight:bold;""
                            >fearful</p>
                            <div style=""width:240px; margin: auto;"">
                                <img src=""images/map26_BuPu_scaleRev_orientMir_180.png"" style= ""width:200px""alt=""img"">
                            </div>
                        </div>","-146","","0","","","","images/map26_BuPu_scaleRev_orientMir_180.png","fearful","1","26","26","BuPu","orientMir","scaleRev","180","",""
"","","","","","html-slider-response","34","293973","0.0-30.0","6g0bm4ktnv","37","NaN","<div style=""width:500px;"">
                            <p style=""font-size:50px; font-weight:bold;""
                            >fearful</p>
                            <div style=""width:240px; margin: auto;"">
                                <img src=""images/map05_BrBG_scaleRev_orientDef_000.png"" style= ""width:200px""alt=""img"">
                            </div>
                        </div>","38","","0","","","","images/map05_BrBG_scaleRev_orientDef_000.png","fearful","1","05","05","BrBG","orientDef","scaleRev","000","",""
"","","","","","html-slider-response","35","296211","0.0-31.0","6g0bm4ktnv","37","NaN","<div style=""width:500px;"">
                            <p style=""font-size:50px; font-weight:bold;""
                            >fearful</p>
                            <div style=""width:240px; margin: auto;"">
                                <img src=""images/map15_Blues_scaleRev_orientMir_000.png"" style= ""width:200px""alt=""img"">
                            </div>
                        </div>","-200","","0","","","","images/map15_Blues_scaleRev_orientMir_000.png","fearful","1","15","15","Blues","orientMir","scaleRev","000","",""
"","","","","","html-slider-response","36","299279","0.0-32.0","6g0bm4ktnv","37","NaN","<div style=""width:500px;"">
                            <p style=""font-size:50px; font-weight:bold;""
                            >fearful</p>
                            <div style=""width:240px; margin: auto;"">
                                <img src=""images/map07_RdYlBu_scaleRev_orientDef_000.png"" style= ""width:200px""alt=""img"">
                            </div>
                        </div>","74","","0","","","","images/map07_RdYlBu_scaleRev_orientDef_000.png","fearful","1","07","07","RdYlBu","orientDef","scaleRev","000","",""
"","","","","","html-slider-response","37","301359","0.0-33.0","6g0bm4ktnv","37","NaN","<div style=""width:500px;"">
                            <p style=""font-size:50px; font-weight:bold;""
                            >fearful</p>
                            <div style=""width:240px; margin: auto;"">
                                <img src=""images/map10_vanimo_scaleDef_orientMir_270.png"" style= ""width:200px""alt=""img"">
                            </div>
                        </div>","200","","0","","","","images/map10_vanimo_scaleDef_orientMir_270.png","fearful","1","10","10","vanimo","orientMir","scaleDef","270","",""
"","","","","","html-slider-response","38","304024","0.0-34.0","6g0bm4ktnv","37","NaN","<div style=""width:500px;"">
                            <p style=""font-size:50px; font-weight:bold;""
                            >fearful</p>
                            <div style=""width:240px; margin: auto;"">
                                <img src=""images/map27_PuBu_scaleRev_orientDef_180.png"" style= ""width:200px""alt=""img"">
                            </div>
                        </div>","-153","","0","","","","images/map27_PuBu_scaleRev_orientDef_180.png","fearful","1","27","27","PuBu","orientDef","scaleRev","180","",""
"","","","","","html-slider-response","39","307350","0.0-35.0","6g0bm4ktnv","37","NaN","<div style=""width:500px;"">
                            <p style=""font-size:50px; font-weight:bold;""
                            >fearful</p>
                            <div style=""width:240px; margin: auto;"">
                                <img src=""images/map05_RdBu_scaleDef_orientMir_090.png"" style= ""width:200px""alt=""img"">
                            </div>
                        </div>","42","","0","","","","images/map05_RdBu_scaleDef_orientMir_090.png","fearful","1","05","05","RdBu","orientMir","scaleDef","090","",""
"","","","","","html-slider-response","40","309643","0.0-36.0","6g0bm4ktnv","37","NaN","<div style=""width:500px;"">
                            <p style=""font-size:50px; font-weight:bold;""
                            >fearful</p>
                            <div style=""width:240px; margin: auto;"">
                                <img src=""images/map12_turbo_scaleRev_orientMir_000.png"" style= ""width:200px""alt=""img"">
                            </div>
                        </div>","86","","0","","","","images/map12_turbo_scaleRev_orientMir_000.png","fearful","1","12","12","turbo","orientMir","scaleRev","000","",""
"","","","","","html-slider-response","41","315271","0.0-37.0","6g0bm4ktnv","37","NaN","<div style=""width:500px;"">
                            <p style=""font-size:50px; font-weight:bold;""
                            >fearful</p>
                            <div style=""width:240px; margin: auto;"">
                                <img src=""images/map12_plasma_scaleDef_orientMir_270.png"" style= ""width:200px""alt=""img"">
                            </div>
                        </div>","62","","0","","","","images/map12_plasma_scaleDef_orientMir_270.png","fearful","1","12","12","plasma","orientMir","scaleDef","270","",""
"","","","","","html-slider-response","42","317624","0.0-38.0","6g0bm4ktnv","37","NaN","<div style=""width:500px;"">
                            <p style=""font-size:50px; font-weight:bold;""
                            >fearful</p>
                            <div style=""width:240px; margin: auto;"">
                                <img src=""images/map23_YlOrBr_scaleDef_orientDef_270.png"" style= ""width:200px""alt=""img"">
                            </div>
                        </div>","-134","","0","","","","images/map23_YlOrBr_scaleDef_orientDef_270.png","fearful","1","23","23","YlOrBr","orientDef","scaleDef","270","",""
"","","","","","html-slider-response","43","318676","0.0-39.0","6g0bm4ktnv","37","NaN","<div style=""width:500px;"">
                            <p style=""font-size:50px; font-weight:bold;""
                            >fearful</p>
                            <div style=""width:240px; margin: auto;"">
                                <img src=""images/map12_gist_earth_scaleDef_orientDef_090.png"" style= ""width:200px""alt=""img"">
                            </div>
                        </div>","-134","","0","","","","images/map12_gist_earth_scaleDef_orientDef_090.png","fearful","1","12","12","gist","scaleDef","earth","orientDef","",""
"","","","","","html-slider-response","44","323667","0.0-40.0","6g0bm4ktnv","37","NaN","<div style=""width:500px;"">
                            <p style=""font-size:50px; font-weight:bold;""
                            >fearful</p>
                            <div style=""width:240px; margin: auto;"">
                                <img src=""images/map10_seismic_scaleRev_orientDef_180.png"" style= ""width:200px""alt=""img"">
                            </div>
                        </div>","34","","0","","","","images/map10_seismic_scaleRev_orientDef_180.png","fearful","1","10","10","seismic","orientDef","scaleRev","180","",""
"","","","","","html-slider-response","45","326272","0.0-41.0","6g0bm4ktnv","37","NaN","<div style=""width:500px;"">
                            <p style=""font-size:50px; font-weight:bold;""
                            >fearful</p>
                            <div style=""width:240px; margin: auto;"">
                                <img src=""images/map27_YlGnBu_scaleDef_orientDef_270.png"" style= ""width:200px""alt=""img"">
                            </div>
                        </div>","-54","","0","","","","images/map27_YlGnBu_scaleDef_orientDef_270.png","fearful","1","27","27","YlGnBu","orientDef","scaleDef","270","",""
"","","","","","html-slider-response","46","328951","0.0-42.0","6g0bm4ktnv","37","NaN","<div style=""width:500px;"">
                            <p style=""font-size:50px; font-weight:bold;""
                            >fearful</p>
                            <div style=""width:240px; margin: auto;"">
                                <img src=""images/map13_magma_scaleDef_orientDef_270.png"" style= ""width:200px""alt=""img"">
                            </div>
                        </div>","-73","","0","","","","images/map13_magma_scaleDef_orientDef_270.png","fearful","1","13","13","magma","orientDef","scaleDef","270","",""
"","","","","","html-slider-response","47","331144","0.0-43.0","6g0bm4ktnv","37","NaN","<div style=""width:500px;"">
                            <p style=""font-size:50px; font-weight:bold;""
                            >fearful</p>
                            <div style=""width:240px; margin: auto;"">
                                <img src=""images/map27_YlGnBu_scaleRev_orientMir_000.png"" style= ""width:200px""alt=""img"">
                            </div>
                        </div>","-110","","0","","","","images/map27_YlGnBu_scaleRev_orientMir_000.png","fearful","1","27","27","YlGnBu","orientMir","scaleRev","000","",""
"","","","","","html-slider-response","48","333944","0.0-44.0","6g0bm4ktnv","37","NaN","<div style=""width:500px;"">
                            <p style=""font-size:50px; font-weight:bold;""
                            >fearful</p>
                            <div style=""width:240px; margin: auto;"">
                                <img src=""images/map23_YlOrRd_scaleDef_orientMir_090.png"" style= ""width:200px""alt=""img"">
                            </div>
                        </div>","-133","","0","","","","images/map23_YlOrRd_scaleDef_orientMir_090.png","fearful","1","23","23","YlOrRd","orientMir","scaleDef","090","",""
"","","","","","html-slider-response","49","337281","0.0-45.0","6g0bm4ktnv","37","NaN","<div style=""width:500px;"">
                            <p style=""font-size:50px; font-weight:bold;""
                            >fearful</p>
                            <div style=""width:240px; margin: auto;"">
                                <img src=""images/map13_cividis_scaleDef_orientMir_090.png"" style= ""width:200px""alt=""img"">
                            </div>
                        </div>","-32","","0","","","","images/map13_cividis_scaleDef_orientMir_090.png","fearful","1","13","13","cividis","orientMir","scaleDef","090","",""
"","","","","","html-slider-response","50","340554","0.0-46.0","6g0bm4ktnv","37","NaN","<div style=""width:500px;"">
                            <p style=""font-size:50px; font-weight:bold;""
                            >fearful</p>
                            <div style=""width:240px; margin: auto;"">
                                <img src=""images/map13_inferno_scaleDef_orientDef_090.png"" style= ""width:200px""alt=""img"">
                            </div>
                        </div>","-53","","0","","","","images/map13_inferno_scaleDef_orientDef_090.png","fearful","1","13","13","inferno","orientDef","scaleDef","090","",""
"","","","","","html-slider-response","51","342925","0.0-47.0","6g0bm4ktnv","37","NaN","<div style=""width:500px;"">
                            <p style=""font-size:50px; font-weight:bold;""
                            >fearful</p>
                            <div style=""width:240px; margin: auto;"">
                                <img src=""images/map02_YlGn_scaleDef_orientDef_090.png"" style= ""width:200px""alt=""img"">
                            </div>
                        </div>","-29","","0","","","","images/map02_YlGn_scaleDef_orientDef_090.png","fearful","1","02","02","YlGn","orientDef","scaleDef","090","",""
"","","","","","html-slider-response","52","345294","0.0-48.0","6g0bm4ktnv","37","NaN","<div style=""width:500px;"">
                            <p style=""font-size:50px; font-weight:bold;""
                            >fearful</p>
                            <div style=""width:240px; margin: auto;"">
                                <img src=""images/map12_turbo_scaleDef_orientDef_270.png"" style= ""width:200px""alt=""img"">
                            </div>
                        </div>","77","","0","","","","images/map12_turbo_scaleDef_orientDef_270.png","fearful","1","12","12","turbo","orientDef","scaleDef","270","",""
"","","","","","html-slider-response","53","347658","0.0-49.0","6g0bm4ktnv","37","NaN","<div style=""width:500px;"">
                            <p style=""font-size:50px; font-weight:bold;""
                            >fearful</p>
                            <div style=""width:240px; margin: auto;"">
                                <img src=""images/map27_PuBuGn_scaleRev_orientMir_180.png"" style= ""width:200px""alt=""img"">
                            </div>
                        </div>","-123","","0","","","","images/map27_PuBuGn_scaleRev_orientMir_180.png","fearful","1","27","27","PuBuGn","orientMir","scaleRev","180","",""
"","","","","","html-slider-response","54","350144","0.0-50.0","6g0bm4ktnv","37","NaN","<div style=""width:500px;"">
                            <p style=""font-size:50px; font-weight:bold;""
                            >fearful</p>
                            <div style=""width:240px; margin: auto;"">
                                <img src=""images/map07_RdYlGn_scaleDef_orientDef_090.png"" style= ""width:200px""alt=""img"">
                            </div>
                        </div>","117","","0","","","","images/map07_RdYlGn_scaleDef_orientDef_090.png","fearful","1","07","07","RdYlGn","orientDef","scaleDef","090","",""
"","","","","","html-slider-response","55","352742","0.0-51.0","6g0bm4ktnv","37","NaN","<div style=""width:500px;"">
                            <p style=""font-size:50px; font-weight:bold;""
                            >fearful</p>
                            <div style=""width:240px; margin: auto;"">
                                <img src=""images/map23_Reds_scaleRev_orientDef_180.png"" style= ""width:200px""alt=""img"">
                            </div>
                        </div>","-134","","0","","","","images/map23_Reds_scaleRev_orientDef_180.png","fearful","1","23","23","Reds","orientDef","scaleRev","180","",""
"","","","","","html-slider-response","56","356685","0.0-52.0","6g0bm4ktnv","37","NaN","<div style=""width:500px;"">
                            <p style=""font-size:50px; font-weight:bold;""
                            >fearful</p>
                            <div style=""width:240px; margin: auto;"">
                                <img src=""images/map15_Greens_scaleRev_orientMir_180.png"" style= ""width:200px""alt=""img"">
                            </div>
                        </div>","-56","","0","","","","images/map15_Greens_scaleRev_orientMir_180.png","fearful","1","15","15","Greens","orientMir","scaleRev","180","",""
"","","","","","html-slider-response","57","358939","0.0-53.0","6g0bm4ktnv","37","NaN","<div style=""width:500px;"">
                            <p style=""font-size:50px; font-weight:bold;""
                            >fearful</p>
                            <div style=""width:240px; margin: auto;"">
                                <img src=""images/map12_vanimo_scaleRev_orientDef_000.png"" style= ""width:200px""alt=""img"">
                            </div>
                        </div>","154","","0","","","","images/map12_vanimo_scaleRev_orientDef_000.png","fearful","1","12","12","vanimo","orientDef","scaleRev","000","",""
"","","","","","html-button-response","58","361989","0.0-54.0","6g0bm4ktnv","37","2546","<p>You are doing great!<br></br> You are halway done with the current block. When you are ready to continue, click the 'Continue' button.</p>","0","","","","","","","","","","","","","","","",""
"","","","","","html-slider-response","59","364559","0.0-55.0","6g0bm4ktnv","37","NaN","<div style=""width:500px;"">
                            <p style=""font-size:50px; font-weight:bold;""
                            >fearful</p>
                            <div style=""width:240px; margin: auto;"">
                                <img src=""images/map02_PiYG_scaleDef_orientDef_270.png"" style= ""width:200px""alt=""img"">
                            </div>
                        </div>","90","","0","","","","images/map02_PiYG_scaleDef_orientDef_270.png","fearful","1","02","02","PiYG","orientDef","scaleDef","270","",""
"","","","","","html-slider-response","60","366641","0.0-56.0","6g0bm4ktnv","37","NaN","<div style=""width:500px;"">
                            <p style=""font-size:50px; font-weight:bold;""
                            >fearful</p>
                            <div style=""width:240px; margin: auto;"">
                                <img src=""images/map02_BuGn_scaleRev_orientDef_000.png"" style= ""width:200px""alt=""img"">
                            </div>
                        </div>","-57","","0","","","","images/map02_BuGn_scaleRev_orientDef_000.png","fearful","1","02","02","BuGn","orientDef","scaleRev","000","",""
"","","","","","html-slider-response","61","369512","0.0-57.0","6g0bm4ktnv","37","NaN","<div style=""width:500px;"">
                            <p style=""font-size:50px; font-weight:bold;""
                            >fearful</p>
                            <div style=""width:240px; margin: auto;"">
                                <img src=""images/map23_Reds_scaleDef_orientDef_090.png"" style= ""width:200px""alt=""img"">
                            </div>
                        </div>","-129","","0","","","","images/map23_Reds_scaleDef_orientDef_090.png","fearful","1","23","23","Reds","orientDef","scaleDef","090","",""
"","","","","","html-slider-response","62","371926","0.0-58.0","6g0bm4ktnv","37","NaN","<div style=""width:500px;"">
                            <p style=""font-size:50px; font-weight:bold;""
                            >fearful</p>
                            <div style=""width:240px; margin: auto;"">
                                <img src=""images/map05_RdBu_scaleRev_orientMir_180.png"" style= ""width:200px""alt=""img"">
                            </div>
                        </div>","82","","0","","","","images/map05_RdBu_scaleRev_orientMir_180.png","fearful","1","05","05","RdBu","orientMir","scaleRev","180","",""
"","","","","","html-slider-response","63","376143","0.0-59.0","6g0bm4ktnv","37","NaN","<div style=""width:500px;"">
                            <p style=""font-size:50px; font-weight:bold;""
                            >fearful</p>
                            <div style=""width:240px; margin: auto;"">
                                <img src=""images/map12_viridis_scaleDef_orientMir_090.png"" style= ""width:200px""alt=""img"">
                            </div>
                        </div>","34","","0","","","","images/map12_viridis_scaleDef_orientMir_090.png","fearful","1","12","12","viridis","orientMir","scaleDef","090","",""
"","","","","","html-slider-response","64","378376","0.0-60.0","6g0bm4ktnv","37","NaN","<div style=""width:500px;"">
                            <p style=""font-size:50px; font-weight:bold;""
                            >fearful</p>
                            <div style=""width:240px; margin: auto;"">
                                <img src=""images/map26_RdPu_scaleDef_orientDef_270.png"" style= ""width:200px""alt=""img"">
                            </div>
                        </div>","-70","","0","","","","images/map26_RdPu_scaleDef_orientDef_270.png","fearful","1","26","26","RdPu","orientDef","scaleDef","270","",""
"","","","","","html-slider-response","65","381266","0.0-61.0","6g0bm4ktnv","37","NaN","<div style=""width:500px;"">
                            <p style=""font-size:50px; font-weight:bold;""
                            >fearful</p>
                            <div style=""width:240px; margin: auto;"">
                                <img src=""images/map26_OrRd_scaleRev_orientDef_000.png"" style= ""width:200px""alt=""img"">
                            </div>
                        </div>","-157","","0","","","","images/map26_OrRd_scaleRev_orientDef_000.png","fearful","1","26","26","OrRd","orientDef","scaleRev","000","",""
"","","","","","html-slider-response","66","384774","0.0-62.0","6g0bm4ktnv","37","NaN","<div style=""width:500px;"">
                            <p style=""font-size:50px; font-weight:bold;""
                            >fearful</p>
                            <div style=""width:240px; margin: auto;"">
                                <img src=""images/map07_Spectral_scaleRev_orientMir_000.png"" style= ""width:200px""alt=""img"">
                            </div>
                        </div>","112","","0","","","","images/map07_Spectral_scaleRev_orientMir_000.png","fearful","1","07","07","Spectral","orientMir","scaleRev","000","",""
"","","","","","html-slider-response","67","387186","0.0-63.0","6g0bm4ktnv","37","NaN","<div style=""width:500px;"">
                            <p style=""font-size:50px; font-weight:bold;""
                            >fearful</p>
                            <div style=""width:240px; margin: auto;"">
                                <img src=""images/map10_managua_scaleDef_orientMir_090.png"" style= ""width:200px""alt=""img"">
                            </div>
                        </div>","142","","0","","","","images/map10_managua_scaleDef_orientMir_090.png","fearful","1","10","10","managua","orientMir","scaleDef","090","",""
"","","","","","html-slider-response","68","389351","0.0-64.0","6g0bm4ktnv","37","NaN","<div style=""width:500px;"">
                            <p style=""font-size:50px; font-weight:bold;""
                            >fearful</p>
                            <div style=""width:240px; margin: auto;"">
                                <img src=""images/map23_YlOrRd_scaleRev_orientMir_180.png"" style= ""width:200px""alt=""img"">
                            </div>
                        </div>","-98","","0","","","","images/map23_YlOrRd_scaleRev_orientMir_180.png","fearful","1","23","23","YlOrRd","orientMir","scaleRev","180","",""
"","","","","","html-slider-response","69","393191","0.0-65.0","6g0bm4ktnv","37","NaN","<div style=""width:500px;"">
                            <p style=""font-size:50px; font-weight:bold;""
                            >fearful</p>
                            <div style=""width:240px; margin: auto;"">
                                <img src=""images/map07_coolwarm_scaleRev_orientMir_180.png"" style= ""width:200px""alt=""img"">
                            </div>
                        </div>","77","","0","","","","images/map07_coolwarm_scaleRev_orientMir_180.png","fearful","1","07","07","coolwarm","orientMir","scaleRev","180","",""
"","","","","","html-slider-response","70","395063","0.0-66.0","6g0bm4ktnv","37","NaN","<div style=""width:500px;"">
                            <p style=""font-size:50px; font-weight:bold;""
                            >fearful</p>
                            <div style=""width:240px; margin: auto;"">
                                <img src=""images/map27_PuBu_scaleDef_orientDef_090.png"" style= ""width:200px""alt=""img"">
                            </div>
                        </div>","-74","","0","","","","images/map27_PuBu_scaleDef_orientDef_090.png","fearful","1","27","27","PuBu","orientDef","scaleDef","090","",""
"","","","","","html-slider-response","71","397793","0.0-67.0","6g0bm4ktnv","37","NaN","<div style=""width:500px;"">
                            <p style=""font-size:50px; font-weight:bold;""
                            >fearful</p>
                            <div style=""width:240px; margin: auto;"">
                                <img src=""images/map13_inferno_scaleRev_orientDef_180.png"" style= ""width:200px""alt=""img"">
                            </div>
                        </div>","-61","","0","","","","images/map13_inferno_scaleRev_orientDef_180.png","fearful","1","13","13","inferno","orientDef","scaleRev","180","",""
"","","","","","html-slider-response","72","402911","0.0-68.0","6g0bm4ktnv","37","NaN","<div style=""width:500px;"">
                            <p style=""font-size:50px; font-weight:bold;""
                            >fearful</p>
                            <div style=""width:240px; margin: auto;"">
                                <img src=""images/map10_managua_scaleRev_orientMir_180.png"" style= ""width:200px""alt=""img"">
                            </div>
                        </div>","72","","0","","","","images/map10_managua_scaleRev_orientMir_180.png","fearful","1","10","10","managua","orientMir","scaleRev","180","",""
"","","","","","html-slider-response","73","405326","0.0-69.0","6g0bm4ktnv","37","NaN","<div style=""width:500px;"">
                            <p style=""font-size:50px; font-weight:bold;""
                            >fearful</p>
                            <div style=""width:240px; margin: auto;"">
                                <img src=""images/map02_PRGn_scaleDef_orientMir_090.png"" style= ""width:200px""alt=""img"">
                            </div>
                        </div>","115","","0","","","","images/map02_PRGn_scaleDef_orientMir_090.png","fearful","1","02","02","PRGn","orientMir","scaleDef","090","",""
"","","","","","html-slider-response","74","407591","0.0-70.0","6g0bm4ktnv","37","NaN","<div style=""width:500px;"">
                            <p style=""font-size:50px; font-weight:bold;""
                            >fearful</p>
                            <div style=""width:240px; margin: auto;"">
                                <img src=""images/map13_cividis_scaleRev_orientMir_180.png"" style= ""width:200px""alt=""img"">
                            </div>
                        </div>","-26","","0","","","","images/map13_cividis_scaleRev_orientMir_180.png","fearful","1","13","13","cividis","orientMir","scaleRev","180","",""
"","","","","","html-slider-response","75","410306","0.0-71.0","6g0bm4ktnv","37","NaN","<div style=""width:500px;"">
                            <p style=""font-size:50px; font-weight:bold;""
                            >fearful</p>
                            <div style=""width:240px; margin: auto;"">
                                <img src=""images/map10_bwr_scaleRev_orientDef_000.png"" style= ""width:200px""alt=""img"">
                            </div>
                        </div>","75","","0","","","","images/map10_bwr_scaleRev_orientDef_000.png","fearful","1","10","10","bwr","orientDef","scaleRev","000","",""
"","","","","","html-slider-response","76","412654","0.0-72.0","6g0bm4ktnv","37","NaN","<div style=""width:500px;"">
                            <p style=""font-size:50px; font-weight:bold;""
                            >fearful</p>
                            <div style=""width:240px; margin: auto;"">
                                <img src=""images/map23_OrRd_scaleDef_orientMir_270.png"" style= ""width:200px""alt=""img"">
                            </div>
                        </div>","-128","","0","","","","images/map23_OrRd_scaleDef_orientMir_270.png","fearful","1","23","23","OrRd","orientMir","scaleDef","270","",""
"","","","","","html-slider-response","77","415216","0.0-73.0","6g0bm4ktnv","37","NaN","<div style=""width:500px;"">
                            <p style=""font-size:50px; font-weight:bold;""
                            >fearful</p>
                            <div style=""width:240px; margin: auto;"">
                                <img src=""images/map05_PuOr_scaleRev_orientDef_180.png"" style= ""width:200px""alt=""img"">
                            </div>
                        </div>","92","","0","","","","images/map05_PuOr_scaleRev_orientDef_180.png","fearful","1","05","05","PuOr","orientDef","scaleRev","180","",""
"","","","","","html-slider-response","78","417375","0.0-74.0","6g0bm4ktnv","37","NaN","<div style=""width:500px;"">
                            <p style=""font-size:50px; font-weight:bold;""
                            >fearful</p>
                            <div style=""width:240px; margin: auto;"">
                                <img src=""images/map15_Oranges_scaleDef_orientMir_270.png"" style= ""width:200px""alt=""img"">
                            </div>
                        </div>","-110","","0","","","","images/map15_Oranges_scaleDef_orientMir_270.png","fearful","1","15","15","Oranges","orientMir","scaleDef","270","",""
"","","","","","html-slider-response","79","419436","0.0-75.0","6g0bm4ktnv","37","NaN","<div style=""width:500px;"">
                            <p style=""font-size:50px; font-weight:bold;""
                            >fearful</p>
                            <div style=""width:240px; margin: auto;"">
                                <img src=""images/map07_coolwarm_scaleDef_orientMir_090.png"" style= ""width:200px""alt=""img"">
                            </div>
                        </div>","108","","0","","","","images/map07_coolwarm_scaleDef_orientMir_090.png","fearful","1","07","07","coolwarm","orientMir","scaleDef","090","",""
"","","","","","html-slider-response","80","422626","0.0-76.0","6g0bm4ktnv","37","NaN","<div style=""width:500px;"">
                            <p style=""font-size:50px; font-weight:bold;""
                            >fearful</p>
                            <div style=""width:240px; margin: auto;"">
                                <img src=""images/map05_RdGy_scaleDef_orientDef_270.png"" style= ""width:200px""alt=""img"">
                            </div>
                        </div>","34","","0","","","","images/map05_RdGy_scaleDef_orientDef_270.png","fearful","1","05","05","RdGy","orientDef","scaleDef","270","",""
"","","","","","html-slider-response","81","425091","0.0-77.0","6g0bm4ktnv","37","NaN","<div style=""width:500px;"">
                            <p style=""font-size:50px; font-weight:bold;""
                            >fearful</p>
                            <div style=""width:240px; margin: auto;"">
                                <img src=""images/map07_RdYlGn_scaleRev_orientDef_180.png"" style= ""width:200px""alt=""img"">
                            </div>
                        </div>","74","","0","","","","images/map07_RdYlGn_scaleRev_orientDef_180.png","fearful","1","07","07","RdYlGn","orientDef","scaleRev","180","",""
"","","","","","html-slider-response","82","427571","0.0-78.0","6g0bm4ktnv","37","NaN","<div style=""width:500px;"">
                            <p style=""font-size:50px; font-weight:bold;""
                            >fearful</p>
                            <div style=""width:240px; margin: auto;"">
                                <img src=""images/map15_Greys_scaleRev_orientDef_000.png"" style= ""width:200px""alt=""img"">
                            </div>
                        </div>","-176","","0","","","","images/map15_Greys_scaleRev_orientDef_000.png","fearful","1","15","15","Greys","orientDef","scaleRev","000","",""
"","","","","","html-slider-response","83","429687","0.0-79.0","6g0bm4ktnv","37","NaN","<div style=""width:500px;"">
                            <p style=""font-size:50px; font-weight:bold;""
                            >fearful</p>
                            <div style=""width:240px; margin: auto;"">
                                <img src=""images/map27_PuBuGn_scaleDef_orientMir_090.png"" style= ""width:200px""alt=""img"">
                            </div>
                        </div>","-98","","0","","","","images/map27_PuBuGn_scaleDef_orientMir_090.png","fearful","1","27","27","PuBuGn","orientMir","scaleDef","090","",""
"","","","","","html-slider-response","84","431907","0.0-80.0","6g0bm4ktnv","37","NaN","<div style=""width:500px;"">
                            <p style=""font-size:50px; font-weight:bold;""
                            >fearful</p>
                            <div style=""width:240px; margin: auto;"">
                                <img src=""images/map26_BuPu_scaleDef_orientMir_090.png"" style= ""width:200px""alt=""img"">
                            </div>
                        </div>","-101","","0","","","","images/map26_BuPu_scaleDef_orientMir_090.png","fearful","1","26","26","BuPu","orientMir","scaleDef","090","",""
"","","","","","html-slider-response","85","434209","0.0-81.0","6g0bm4ktnv","37","NaN","<div style=""width:500px;"">
                            <p style=""font-size:50px; font-weight:bold;""
                            >fearful</p>
                            <div style=""width:240px; margin: auto;"">
                                <img src=""images/map26_RdPu_scaleRev_orientMir_000.png"" style= ""width:200px""alt=""img"">
                            </div>
                        </div>","-119","","0","","","","images/map26_RdPu_scaleRev_orientMir_000.png","fearful","1","26","26","RdPu","orientMir","scaleRev","000","",""
"","","","","","html-slider-response","86","436424","0.0-82.0","6g0bm4ktnv","37","NaN","<div style=""width:500px;"">
                            <p style=""font-size:50px; font-weight:bold;""
                            >fearful</p>
                            <div style=""width:240px; margin: auto;"">
                                <img src=""images/map23_Oranges_scaleRev_orientDef_000.png"" style= ""width:200px""alt=""img"">
                            </div>
                        </div>","-168","","0","","","","images/map23_Oranges_scaleRev_orientDef_000.png","fearful","1","23","23","Oranges","orientDef","scaleRev","000","",""
"","","","","","html-slider-response","87","439109","0.0-83.0","6g0bm4ktnv","37","NaN","<div style=""width:500px;"">
                            <p style=""font-size:50px; font-weight:bold;""
                            >fearful</p>
                            <div style=""width:240px; margin: auto;"">
                                <img src=""images/map23_YlOrBr_scaleRev_orientMir_000.png"" style= ""width:200px""alt=""img"">
                            </div>
                        </div>","-155","","0","","","","images/map23_YlOrBr_scaleRev_orientMir_000.png","fearful","1","23","23","YlOrBr","orientMir","scaleRev","000","",""
"","","","","","html-slider-response","88","441735","0.0-84.0","6g0bm4ktnv","37","NaN","<div style=""width:500px;"">
                            <p style=""font-size:50px; font-weight:bold;""
                            >fearful</p>
                            <div style=""width:240px; margin: auto;"">
                                <img src=""images/map13_magma_scaleRev_orientMir_000.png"" style= ""width:200px""alt=""img"">
                            </div>
                        </div>","120","","0","","","","images/map13_magma_scaleRev_orientMir_000.png","fearful","1","13","13","magma","orientMir","scaleRev","000","",""
"","","","","","html-slider-response","89","444319","0.0-85.0","6g0bm4ktnv","37","NaN","<div style=""width:500px;"">
                            <p style=""font-size:50px; font-weight:bold;""
                            >fearful</p>
                            <div style=""width:240px; margin: auto;"">
                                <img src=""images/map26_PuRd_scaleDef_orientDef_090.png"" style= ""width:200px""alt=""img"">
                            </div>
                        </div>","-151","","0","","","","images/map26_PuRd_scaleDef_orientDef_090.png","fearful","1","26","26","PuRd","orientDef","scaleDef","090","",""
"","","","","","html-slider-response","90","446183","0.0-86.0","6g0bm4ktnv","37","NaN","<div style=""width:500px;"">
                            <p style=""font-size:50px; font-weight:bold;""
                            >fearful</p>
                            <div style=""width:240px; margin: auto;"">
                                <img src=""images/map15_Greens_scaleDef_orientMir_090.png"" style= ""width:200px""alt=""img"">
                            </div>
                        </div>","-40","","0","","","","images/map15_Greens_scaleDef_orientMir_090.png","fearful","1","15","15","Greens","orientMir","scaleDef","090","",""
"","","","","","html-slider-response","91","447959","0.0-87.0","6g0bm4ktnv","37","NaN","<div style=""width:500px;"">
                            <p style=""font-size:50px; font-weight:bold;""
                            >fearful</p>
                            <div style=""width:240px; margin: auto;"">
                                <img src=""images/map27_GnBu_scaleRev_orientDef_000.png"" style= ""width:200px""alt=""img"">
                            </div>
                        </div>","-60","","0","","","","images/map27_GnBu_scaleRev_orientDef_000.png","fearful","1","27","27","GnBu","orientDef","scaleRev","000","",""
"","","","","","html-slider-response","92","449941","0.0-88.0","6g0bm4ktnv","37","NaN","<div style=""width:500px;"">
                            <p style=""font-size:50px; font-weight:bold;""
                            >fearful</p>
                            <div style=""width:240px; margin: auto;"">
                                <img src=""images/map10_seismic_scaleDef_orientDef_090.png"" style= ""width:200px""alt=""img"">
                            </div>
                        </div>","86","","0","","","","images/map10_seismic_scaleDef_orientDef_090.png","fearful","1","10","10","seismic","orientDef","scaleDef","090","",""
"","","","","","html-slider-response","93","452007","0.0-89.0","6g0bm4ktnv","37","NaN","<div style=""width:500px;"">
                            <p style=""font-size:50px; font-weight:bold;""
                            >fearful</p>
                            <div style=""width:240px; margin: auto;"">
                                <img src=""images/map02_PRGn_scaleRev_orientMir_180.png"" style= ""width:200px""alt=""img"">
                            </div>
                        </div>","138","","0","","","","images/map02_PRGn_scaleRev_orientMir_180.png","fearful","1","02","02","PRGn","orientMir","scaleRev","180","",""
"","","","","","html-slider-response","94","454154","0.0-90.0","6g0bm4ktnv","37","NaN","<div style=""width:500px;"">
                            <p style=""font-size:50px; font-weight:bold;""
                            >fearful</p>
                            <div style=""width:240px; margin: auto;"">
                                <img src=""images/map26_PuRd_scaleRev_orientDef_180.png"" style= ""width:200px""alt=""img"">
                            </div>
                        </div>","-51","","0","","","","images/map26_PuRd_scaleRev_orientDef_180.png","fearful","1","26","26","PuRd","orientDef","scaleRev","180","",""
"","","","","","html-slider-response","95","456293","0.0-91.0","6g0bm4ktnv","37","NaN","<div style=""width:500px;"">
                            <p style=""font-size:50px; font-weight:bold;""
                            >fearful</p>
                            <div style=""width:240px; margin: auto;"">
                                <img src=""images/map15_Purples_scaleDef_orientDef_090.png"" style= ""width:200px""alt=""img"">
                            </div>
                        </div>","-88","","0","","","","images/map15_Purples_scaleDef_orientDef_090.png","fearful","1","15","15","Purples","orientDef","scaleDef","090","",""
"","","","","","html-slider-response","96","458441","0.0-92.0","6g0bm4ktnv","37","NaN","<div style=""width:500px;"">
                            <p style=""font-size:50px; font-weight:bold;""
                            >fearful</p>
                            <div style=""width:240px; margin: auto;"">
                                <img src=""images/map05_RdGy_scaleRev_orientMir_000.png"" style= ""width:200px""alt=""img"">
                            </div>
                        </div>","51","","0","","","","images/map05_RdGy_scaleRev_orientMir_000.png","fearful","1","05","05","RdGy","orientMir","scaleRev","000","",""
"","","","","","html-slider-response","97","460175","0.0-93.0","6g0bm4ktnv","37","NaN","<div style=""width:500px;"">
                            <p style=""font-size:50px; font-weight:bold;""
                            >fearful</p>
                            <div style=""width:240px; margin: auto;"">
                                <img src=""images/map05_RdYlBu_scaleDef_orientMir_270.png"" style= ""width:200px""alt=""img"">
                            </div>
                        </div>","61","","0","","","","images/map05_RdYlBu_scaleDef_orientMir_270.png","fearful","1","05","05","RdYlBu","orientMir","scaleDef","270","",""
"","","","","","html-slider-response","98","461973","0.0-94.0","6g0bm4ktnv","37","NaN","<div style=""width:500px;"">
                            <p style=""font-size:50px; font-weight:bold;""
                            >fearful</p>
                            <div style=""width:240px; margin: auto;"">
                                <img src=""images/map02_PiYG_scaleRev_orientMir_000.png"" style= ""width:200px""alt=""img"">
                            </div>
                        </div>","134","","0","","","","images/map02_PiYG_scaleRev_orientMir_000.png","fearful","1","02","02","PiYG","orientMir","scaleRev","000","",""
"","","","","","html-button-response","99","463778","0.0-95.0","6g0bm4ktnv","37","1302","<p>Great Job! You've finished block 1.<br></br> You have 4 block(s) left to go.<br></br></p>","0","","","","","","","","","","","","","","","",""
"","","","","","html-button-response","100","464878","0.0-96.0","6g0bm4ktnv","37","1099","<p>In this block of trials, you will be asked to rate how much you associate each map with:</p > <p style = 'font-size:150%; font-weight: bold'>disgust</p><br></br>","0","","","","","","","","","","","","","","","",""
"","","","","","html-slider-response","101","470648","0.0-97.0","6g0bm4ktnv","37","NaN","<div style=""width:500px;"">
                            <p style=""font-size:50px; font-weight:bold;""
                            >disgust</p>
                            <div style=""width:240px; margin: auto;"">
                                <img src=""images/map26_PuRd_scaleRev_orientDef_180.png"" style= ""width:200px""alt=""img"">
                            </div>
                        </div>","-128","","0","","","","images/map26_PuRd_scaleRev_orientDef_180.png","disgust","1","26","26","PuRd","orientDef","scaleRev","180","",""
"","","","","","html-slider-response","102","473169","0.0-98.0","6g0bm4ktnv","37","NaN","<div style=""width:500px;"">
                            <p style=""font-size:50px; font-weight:bold;""
                            >disgust</p>
                            <div style=""width:240px; margin: auto;"">
                                <img src=""images/map05_RdGy_scaleRev_orientMir_000.png"" style= ""width:200px""alt=""img"">
                            </div>
                        </div>","78","","0","","","","images/map05_RdGy_scaleRev_orientMir_000.png","disgust","1","05","05","RdGy","orientMir","scaleRev","000","",""
"","","","","","html-slider-response","103","475790","0.0-99.0","6g0bm4ktnv","37","NaN","<div style=""width:500px;"">
                            <p style=""font-size:50px; font-weight:bold;""
                            >disgust</p>
                            <div style=""width:240px; margin: auto;"">
                                <img src=""images/map13_Greys_scaleDef_orientMir_270.png"" style= ""width:200px""alt=""img"">
                            </div>
                        </div>","-159","","0","","","","images/map13_Greys_scaleDef_orientMir_270.png","disgust","1","13","13","Greys","orientMir","scaleDef","270","",""
"","","","","","html-slider-response","104","477951","0.0-100.0","6g0bm4ktnv","37","NaN","<div style=""width:500px;"">
                            <p style=""font-size:50px; font-weight:bold;""
                            >disgust</p>
                            <div style=""width:240px; margin: auto;"">
                                <img src=""images/map05_RdBu_scaleDef_orientMir_090.png"" style= ""width:200px""alt=""img"">
                            </div>
                        </div>","82","","0","","","","images/map05_RdBu_scaleDef_orientMir_090.png","disgust","1","05","05","RdBu","orientMir","scaleDef","090","",""
"","","","","","html-slider-response","105","479884","0.0-101.0","6g0bm4ktnv","37","NaN","<div style=""width:500px;"">
                            <p style=""font-size:50px; font-weight:bold;""
                            >disgust</p>
                            <div style=""width:240px; margin: auto;"">
                                <img src=""images/map26_BuPu_scaleRev_orientMir_180.png"" style= ""width:200px""alt=""img"">
                            </div>
                        </div>","-83","","0","","","","images/map26_BuPu_scaleRev_orientMir_180.png","disgust","1","26","26","BuPu","orientMir","scaleRev","180","",""
"","","","","","html-slider-response","106","481577","0.0-102.0","6g0bm4ktnv","37","NaN","<div style=""width:500px;"">
                            <p style=""font-size:50px; font-weight:bold;""
                            >disgust</p>
                            <div style=""width:240px; margin: auto;"">
                                <img src=""images/map15_Purples_scaleDef_orientDef_090.png"" style= ""width:200px""alt=""img"">
                            </div>
                        </div>","-95","","0","","","","images/map15_Purples_scaleDef_orientDef_090.png","disgust","1","15","15","Purples","orientDef","scaleDef","090","",""
"","","","","","html-slider-response","107","483642","0.0-103.0","6g0bm4ktnv","37","NaN","<div style=""width:500px;"">
                            <p style=""font-size:50px; font-weight:bold;""
                            >disgust</p>
                            <div style=""width:240px; margin: auto;"">
                                <img src=""images/map07_Spectral_scaleRev_orientMir_000.png"" style= ""width:200px""alt=""img"">
                            </div>
                        </div>","134","","0","","","","images/map07_Spectral_scaleRev_orientMir_000.png","disgust","1","07","07","Spectral","orientMir","scaleRev","000","",""
"","","","","","html-slider-response","108","486121","0.0-104.0","6g0bm4ktnv","37","NaN","<div style=""width:500px;"">
                            <p style=""font-size:50px; font-weight:bold;""
                            >disgust</p>
                            <div style=""width:240px; margin: auto;"">
                                <img src=""images/map02_BuGn_scaleRev_orientDef_000.png"" style= ""width:200px""alt=""img"">
                            </div>
                        </div>","20","","0","","","","images/map02_BuGn_scaleRev_orientDef_000.png","disgust","1","02","02","BuGn","orientDef","scaleRev","000","",""
"","","","","","html-slider-response","109","488919","0.0-105.0","6g0bm4ktnv","37","NaN","<div style=""width:500px;"">
                            <p style=""font-size:50px; font-weight:bold;""
                            >disgust</p>
                            <div style=""width:240px; margin: auto;"">
                                <img src=""images/map13_inferno_scaleDef_orientDef_090.png"" style= ""width:200px""alt=""img"">
                            </div>
                        </div>","-166","","0","","","","images/map13_inferno_scaleDef_orientDef_090.png","disgust","1","13","13","inferno","orientDef","scaleDef","090","",""
"","","","","","html-slider-response","110","491338","0.0-106.0","6g0bm4ktnv","37","NaN","<div style=""width:500px;"">
                            <p style=""font-size:50px; font-weight:bold;""
                            >disgust</p>
                            <div style=""width:240px; margin: auto;"">
                                <img src=""images/map23_OrRd_scaleDef_orientMir_270.png"" style= ""width:200px""alt=""img"">
                            </div>
                        </div>","-149","","0","","","","images/map23_OrRd_scaleDef_orientMir_270.png","disgust","1","23","23","OrRd","orientMir","scaleDef","270","",""
"","","","","","html-slider-response","111","492967","0.0-107.0","6g0bm4ktnv","37","NaN","<div style=""width:500px;"">
                            <p style=""font-size:50px; font-weight:bold;""
                            >disgust</p>
                            <div style=""width:240px; margin: auto;"">
                                <img src=""images/map15_Oranges_scaleDef_orientMir_270.png"" style= ""width:200px""alt=""img"">
                            </div>
                        </div>","-146","","0","","","","images/map15_Oranges_scaleDef_orientMir_270.png","disgust","1","15","15","Oranges","orientMir","scaleDef","270","",""
"","","","","","html-slider-response","112","494302","0.0-108.0","6g0bm4ktnv","37","NaN","<div style=""width:500px;"">
                            <p style=""font-size:50px; font-weight:bold;""
                            >disgust</p>
                            <div style=""width:240px; margin: auto;"">
                                <img src=""images/map23_YlOrBr_scaleRev_orientMir_000.png"" style= ""width:200px""alt=""img"">
                            </div>
                        </div>","-149","","0","","","","images/map23_YlOrBr_scaleRev_orientMir_000.png","disgust","1","23","23","YlOrBr","orientMir","scaleRev","000","",""
"","","","","","html-slider-response","113","497851","0.0-109.0","6g0bm4ktnv","37","NaN","<div style=""width:500px;"">
                            <p style=""font-size:50px; font-weight:bold;""
                            >disgust</p>
                            <div style=""width:240px; margin: auto;"">
                                <img src=""images/map07_bwr_scaleDef_orientMir_270.png"" style= ""width:200px""alt=""img"">
                            </div>
                        </div>","101","","0","","","","images/map07_bwr_scaleDef_orientMir_270.png","disgust","1","07","07","bwr","orientMir","scaleDef","270","",""
"","","","","","html-slider-response","114","499657","0.0-110.0","6g0bm4ktnv","37","NaN","<div style=""width:500px;"">
                            <p style=""font-size:50px; font-weight:bold;""
                            >disgust</p>
                            <div style=""width:240px; margin: auto;"">
                                <img src=""images/map27_PuBuGn_scaleDef_orientMir_090.png"" style= ""width:200px""alt=""img"">
                            </div>
                        </div>","-93","","0","","","","images/map27_PuBuGn_scaleDef_orientMir_090.png","disgust","1","27","27","PuBuGn","orientMir","scaleDef","090","",""
"","","","","","html-slider-response","115","501928","0.0-111.0","6g0bm4ktnv","37","NaN","<div style=""width:500px;"">
                            <p style=""font-size:50px; font-weight:bold;""
                            >disgust</p>
                            <div style=""width:240px; margin: auto;"">
                                <img src=""images/map10_berlin_scaleRev_orientMir_000.png"" style= ""width:200px""alt=""img"">
                            </div>
                        </div>","-70","","0","","","","images/map10_berlin_scaleRev_orientMir_000.png","disgust","1","10","10","berlin","orientMir","scaleRev","000","",""
"","","","","","html-slider-response","116","503891","0.0-112.0","6g0bm4ktnv","37","NaN","<div style=""width:500px;"">
                            <p style=""font-size:50px; font-weight:bold;""
                            >disgust</p>
                            <div style=""width:240px; margin: auto;"">
                                <img src=""images/map07_coolwarm_scaleRev_orientMir_180.png"" style= ""width:200px""alt=""img"">
                            </div>
                        </div>","70","","0","","","","images/map07_coolwarm_scaleRev_orientMir_180.png","disgust","1","07","07","coolwarm","orientMir","scaleRev","180","",""
"","","","","","html-slider-response","117","505755","0.0-113.0","6g0bm4ktnv","37","NaN","<div style=""width:500px;"">
                            <p style=""font-size:50px; font-weight:bold;""
                            >disgust</p>
                            <div style=""width:240px; margin: auto;"">
                                <img src=""images/map02_PiYG_scaleDef_orientDef_270.png"" style= ""width:200px""alt=""img"">
                            </div>
                        </div>","156","","0","","","","images/map02_PiYG_scaleDef_orientDef_270.png","disgust","1","02","02","PiYG","orientDef","scaleDef","270","",""
"","","","","","html-slider-response","118","507689","0.0-114.0","6g0bm4ktnv","37","NaN","<div style=""width:500px;"">
                            <p style=""font-size:50px; font-weight:bold;""
                            >disgust</p>
                            <div style=""width:240px; margin: auto;"">
                                <img src=""images/map27_PuBu_scaleRev_orientDef_180.png"" style= ""width:200px""alt=""img"">
                            </div>
                        </div>","-74","","0","","","","images/map27_PuBu_scaleRev_orientDef_180.png","disgust","1","27","27","PuBu","orientDef","scaleRev","180","",""
"","","","","","html-slider-response","119","509500","0.0-115.0","6g0bm4ktnv","37","NaN","<div style=""width:500px;"">
                            <p style=""font-size:50px; font-weight:bold;""
                            >disgust</p>
                            <div style=""width:240px; margin: auto;"">
                                <img src=""images/map05_RdYlBu_scaleDef_orientMir_270.png"" style= ""width:200px""alt=""img"">
                            </div>
                        </div>","64","","0","","","","images/map05_RdYlBu_scaleDef_orientMir_270.png","disgust","1","05","05","RdYlBu","orientMir","scaleDef","270","",""
"","","","","","html-slider-response","120","511474","0.0-116.0","6g0bm4ktnv","37","NaN","<div style=""width:500px;"">
                            <p style=""font-size:50px; font-weight:bold;""
                            >disgust</p>
                            <div style=""width:240px; margin: auto;"">
                                <img src=""images/map02_PRGn_scaleDef_orientMir_090.png"" style= ""width:200px""alt=""img"">
                            </div>
                        </div>","151","","0","","","","images/map02_PRGn_scaleDef_orientMir_090.png","disgust","1","02","02","PRGn","orientMir","scaleDef","090","",""
"","","","","","html-slider-response","121","513891","0.0-117.0","6g0bm4ktnv","37","NaN","<div style=""width:500px;"">
                            <p style=""font-size:50px; font-weight:bold;""
                            >disgust</p>
                            <div style=""width:240px; margin: auto;"">
                                <img src=""images/map12_vanimo_scaleRev_orientDef_000.png"" style= ""width:200px""alt=""img"">
                            </div>
                        </div>","197","","0","","","","images/map12_vanimo_scaleRev_orientDef_000.png","disgust","1","12","12","vanimo","orientDef","scaleRev","000","",""
"","","","","","html-slider-response","122","515611","0.0-118.0","6g0bm4ktnv","37","NaN","<div style=""width:500px;"">
                            <p style=""font-size:50px; font-weight:bold;""
                            >disgust</p>
                            <div style=""width:240px; margin: auto;"">
                                <img src=""images/map27_BuGn_scaleDef_orientMir_270.png"" style= ""width:200px""alt=""img"">
                            </div>
                        </div>","-72","","0","","","","images/map27_BuGn_scaleDef_orientMir_270.png","disgust","1","27","27","BuGn","orientMir","scaleDef","270","",""
"","","","","","html-slider-response","123","517423","0.0-119.0","6g0bm4ktnv","37","NaN","<div style=""width:500px;"">
                            <p style=""font-size:50px; font-weight:bold;""
                            >disgust</p>
                            <div style=""width:240px; margin: auto;"">
                                <img src=""images/map27_PuBu_scaleDef_orientDef_090.png"" style= ""width:200px""alt=""img"">
                            </div>
                        </div>","-107","","0","","","","images/map27_PuBu_scaleDef_orientDef_090.png","disgust","1","27","27","PuBu","orientDef","scaleDef","090","",""
"","","","","","html-slider-response","124","519048","0.0-120.0","6g0bm4ktnv","37","NaN","<div style=""width:500px;"">
                            <p style=""font-size:50px; font-weight:bold;""
                            >disgust</p>
                            <div style=""width:240px; margin: auto;"">
                                <img src=""images/map23_Reds_scaleRev_orientDef_180.png"" style= ""width:200px""alt=""img"">
                            </div>
                        </div>","-127","","0","","","","images/map23_Reds_scaleRev_orientDef_180.png","disgust","1","23","23","Reds","orientDef","scaleRev","180","",""
"","","","","","html-slider-response","125","521507","0.0-121.0","6g0bm4ktnv","37","NaN","<div style=""width:500px;"">
                            <p style=""font-size:50px; font-weight:bold;""
                            >disgust</p>
                            <div style=""width:240px; margin: auto;"">
                                <img src=""images/map12_turbo_scaleDef_orientDef_270.png"" style= ""width:200px""alt=""img"">
                            </div>
                        </div>","90","","0","","","","images/map12_turbo_scaleDef_orientDef_270.png","disgust","1","12","12","turbo","orientDef","scaleDef","270","",""
"","","","","","html-slider-response","126","523384","0.0-122.0","6g0bm4ktnv","37","NaN","<div style=""width:500px;"">
                            <p style=""font-size:50px; font-weight:bold;""
                            >disgust</p>
                            <div style=""width:240px; margin: auto;"">
                                <img src=""images/map23_YlOrRd_scaleDef_orientMir_090.png"" style= ""width:200px""alt=""img"">
                            </div>
                        </div>","-114","","0","","","","images/map23_YlOrRd_scaleDef_orientMir_090.png","disgust","1","23","23","YlOrRd","orientMir","scaleDef","090","",""
"","","","","","html-slider-response","127","525830","0.0-123.0","6g0bm4ktnv","37","NaN","<div style=""width:500px;"">
                            <p style=""font-size:50px; font-weight:bold;""
                            >disgust</p>
                            <div style=""width:240px; margin: auto;"">
                                <img src=""images/map15_Greens_scaleRev_orientMir_180.png"" style= ""width:200px""alt=""img"">
                            </div>
                        </div>","22","","0","","","","images/map15_Greens_scaleRev_orientMir_180.png","disgust","1","15","15","Greens","orientMir","scaleRev","180","",""
"","","","","","html-slider-response","128","614146","0.0-124.0","6g0bm4ktnv","37","NaN","<div style=""width:500px;"">
                            <p style=""font-size:50px; font-weight:bold;""
                            >disgust</p>
                            <div style=""width:240px; margin: auto;"">
                                <img src=""images/map12_gist_earth_scaleRev_orientDef_180.png"" style= ""width:200px""alt=""img"">
                            </div>
                        </div>","94","","0","","","","images/map12_gist_earth_scaleRev_orientDef_180.png","disgust","1","12","12","gist","scaleRev","earth","orientDef","",""
"","","","","","html-slider-response","129","615775","0.0-125.0","6g0bm4ktnv","37","NaN","<div style=""width:500px;"">
                            <p style=""font-size:50px; font-weight:bold;""
                            >disgust</p>
                            <div style=""width:240px; margin: auto;"">
                                <img src=""images/map05_RdGy_scaleDef_orientDef_270.png"" style= ""width:200px""alt=""img"">
                            </div>
                        </div>","66","","0","","","","images/map05_RdGy_scaleDef_orientDef_270.png","disgust","1","05","05","RdGy","orientDef","scaleDef","270","",""
"","","","","","html-slider-response","130","617555","0.0-126.0","6g0bm4ktnv","37","NaN","<div style=""width:500px;"">
                            <p style=""font-size:50px; font-weight:bold;""
                            >disgust</p>
                            <div style=""width:240px; margin: auto;"">
                                <img src=""images/map13_magma_scaleDef_orientDef_270.png"" style= ""width:200px""alt=""img"">
                            </div>
                        </div>","-68","","0","","","","images/map13_magma_scaleDef_orientDef_270.png","disgust","1","13","13","magma","orientDef","scaleDef","270","",""
"","","","","","html-slider-response","131","619122","0.0-127.0","6g0bm4ktnv","37","NaN","<div style=""width:500px;"">
                            <p style=""font-size:50px; font-weight:bold;""
                            >disgust</p>
                            <div style=""width:240px; margin: auto;"">
                                <img src=""images/map23_Reds_scaleDef_orientDef_090.png"" style= ""width:200px""alt=""img"">
                            </div>
                        </div>","-127","","0","","","","images/map23_Reds_scaleDef_orientDef_090.png","disgust","1","23","23","Reds","orientDef","scaleDef","090","",""
"","","","","","html-slider-response","132","620989","0.0-128.0","6g0bm4ktnv","37","NaN","<div style=""width:500px;"">
                            <p style=""font-size:50px; font-weight:bold;""
                            >disgust</p>
                            <div style=""width:240px; margin: auto;"">
                                <img src=""images/map12_viridis_scaleDef_orientMir_090.png"" style= ""width:200px""alt=""img"">
                            </div>
                        </div>","-29","","0","","","","images/map12_viridis_scaleDef_orientMir_090.png","disgust","1","12","12","viridis","orientMir","scaleDef","090","",""
"","","","","","html-slider-response","133","623025","0.0-129.0","6g0bm4ktnv","37","NaN","<div style=""width:500px;"">
                            <p style=""font-size:50px; font-weight:bold;""
                            >disgust</p>
                            <div style=""width:240px; margin: auto;"">
                                <img src=""images/map10_vanimo_scaleDef_orientMir_270.png"" style= ""width:200px""alt=""img"">
                            </div>
                        </div>","195","","0","","","","images/map10_vanimo_scaleDef_orientMir_270.png","disgust","1","10","10","vanimo","orientMir","scaleDef","270","",""
"","","","","","html-slider-response","134","624606","0.0-130.0","6g0bm4ktnv","37","NaN","<div style=""width:500px;"">
                            <p style=""font-size:50px; font-weight:bold;""
                            >disgust</p>
                            <div style=""width:240px; margin: auto;"">
                                <img src=""images/map10_seismic_scaleRev_orientDef_180.png"" style= ""width:200px""alt=""img"">
                            </div>
                        </div>","89","","0","","","","images/map10_seismic_scaleRev_orientDef_180.png","disgust","1","10","10","seismic","orientDef","scaleRev","180","",""
"","","","","","html-slider-response","135","626520","0.0-131.0","6g0bm4ktnv","37","NaN","<div style=""width:500px;"">
                            <p style=""font-size:50px; font-weight:bold;""
                            >disgust</p>
                            <div style=""width:240px; margin: auto;"">
                                <img src=""images/map26_PuRd_scaleDef_orientDef_090.png"" style= ""width:200px""alt=""img"">
                            </div>
                        </div>","-64","","0","","","","images/map26_PuRd_scaleDef_orientDef_090.png","disgust","1","26","26","PuRd","orientDef","scaleDef","090","",""
"","","","","","html-slider-response","136","627841","0.0-132.0","6g0bm4ktnv","37","NaN","<div style=""width:500px;"">
                            <p style=""font-size:50px; font-weight:bold;""
                            >disgust</p>
                            <div style=""width:240px; margin: auto;"">
                                <img src=""images/map23_Oranges_scaleRev_orientDef_000.png"" style= ""width:200px""alt=""img"">
                            </div>
                        </div>","-78","","0","","","","images/map23_Oranges_scaleRev_orientDef_000.png","disgust","1","23","23","Oranges","orientDef","scaleRev","000","",""
"","","","","","html-slider-response","137","629394","0.0-133.0","6g0bm4ktnv","37","NaN","<div style=""width:500px;"">
                            <p style=""font-size:50px; font-weight:bold;""
                            >disgust</p>
                            <div style=""width:240px; margin: auto;"">
                                <img src=""images/map07_Spectral_scaleDef_orientDef_270.png"" style= ""width:200px""alt=""img"">
                            </div>
                        </div>","68","","0","","","","images/map07_Spectral_scaleDef_orientDef_270.png","disgust","1","07","07","Spectral","orientDef","scaleDef","270","",""
"","","","","","html-slider-response","138","631240","0.0-134.0","6g0bm4ktnv","37","NaN","<div style=""width:500px;"">
                            <p style=""font-size:50px; font-weight:bold;""
                            >disgust</p>
                            <div style=""width:240px; margin: auto;"">
                                <img src=""images/map05_PuOr_scaleDef_orientDef_090.png"" style= ""width:200px""alt=""img"">
                            </div>
                        </div>","130","","0","","","","images/map05_PuOr_scaleDef_orientDef_090.png","disgust","1","05","05","PuOr","orientDef","scaleDef","090","",""
"","","","","","html-slider-response","139","633055","0.0-135.0","6g0bm4ktnv","37","NaN","<div style=""width:500px;"">
                            <p style=""font-size:50px; font-weight:bold;""
                            >disgust</p>
                            <div style=""width:240px; margin: auto;"">
                                <img src=""images/map05_RdBu_scaleRev_orientMir_180.png"" style= ""width:200px""alt=""img"">
                            </div>
                        </div>","99","","0","","","","images/map05_RdBu_scaleRev_orientMir_180.png","disgust","1","05","05","RdBu","orientMir","scaleRev","180","",""
"","","","","","html-slider-response","140","634950","0.0-136.0","6g0bm4ktnv","37","NaN","<div style=""width:500px;"">
                            <p style=""font-size:50px; font-weight:bold;""
                            >disgust</p>
                            <div style=""width:240px; margin: auto;"">
                                <img src=""images/map15_Blues_scaleRev_orientMir_000.png"" style= ""width:200px""alt=""img"">
                            </div>
                        </div>","-136","","0","","","","images/map15_Blues_scaleRev_orientMir_000.png","disgust","1","15","15","Blues","orientMir","scaleRev","000","",""
"","","","","","html-button-response","141","636174","0.0-137.0","6g0bm4ktnv","37","720","<p>You are doing great!<br></br> You are halway done with the current block. When you are ready to continue, click the 'Continue' button.</p>","0","","","","","","","","","","","","","","","",""
"","","","","","html-slider-response","142","637326","0.0-138.0","6g0bm4ktnv","37","NaN","<div style=""width:500px;"">
                            <p style=""font-size:50px; font-weight:bold;""
                            >disgust</p>
                            <div style=""width:240px; margin: auto;"">
                                <img src=""images/map15_Purples_scaleRev_orientDef_180.png"" style= ""width:200px""alt=""img"">
                            </div>
                        </div>","-122","","0","","","","images/map15_Purples_scaleRev_orientDef_180.png","disgust","1","15","15","Purples","orientDef","scaleRev","180","",""
"","","","","","html-slider-response","143","638637","0.0-139.0","6g0bm4ktnv","37","NaN","<div style=""width:500px;"">
                            <p style=""font-size:50px; font-weight:bold;""
                            >disgust</p>
                            <div style=""width:240px; margin: auto;"">
                                <img src=""images/map27_PuBuGn_scaleRev_orientMir_180.png"" style= ""width:200px""alt=""img"">
                            </div>
                        </div>","-104","","0","","","","images/map27_PuBuGn_scaleRev_orientMir_180.png","disgust","1","27","27","PuBuGn","orientMir","scaleRev","180","",""
"","","","","","html-slider-response","144","639984","0.0-140.0","6g0bm4ktnv","37","NaN","<div style=""width:500px;"">
                            <p style=""font-size:50px; font-weight:bold;""
                            >disgust</p>
                            <div style=""width:240px; margin: auto;"">
                                <img src=""images/map26_RdPu_scaleDef_orientDef_270.png"" style= ""width:200px""alt=""img"">
                            </div>
                        </div>","-117","","0","","","","images/map26_RdPu_scaleDef_orientDef_270.png","disgust","1","26","26","RdPu","orientDef","scaleDef","270","",""
"","","","","","html-slider-response","145","641448","0.0-141.0","6g0bm4ktnv","37","NaN","<div style=""width:500px;"">
                            <p style=""font-size:50px; font-weight:bold;""
                            >disgust</p>
                            <div style=""width:240px; margin: auto;"">
                                <img src=""images/map13_inferno_scaleRev_orientDef_180.png"" style= ""width:200px""alt=""img"">
                            </div>
                        </div>","-75","","0","","","","images/map13_inferno_scaleRev_orientDef_180.png","disgust","1","13","13","inferno","orientDef","scaleRev","180","",""
"","","","","","html-slider-response","146","643020","0.0-142.0","6g0bm4ktnv","37","NaN","<div style=""width:500px;"">
                            <p style=""font-size:50px; font-weight:bold;""
                            >disgust</p>
                            <div style=""width:240px; margin: auto;"">
                                <img src=""images/map10_bwr_scaleRev_orientDef_000.png"" style= ""width:200px""alt=""img"">
                            </div>
                        </div>","82","","0","","","","images/map10_bwr_scaleRev_orientDef_000.png","disgust","1","10","10","bwr","orientDef","scaleRev","000","",""
"","","","","","html-slider-response","147","644730","0.0-143.0","6g0bm4ktnv","37","NaN","<div style=""width:500px;"">
                            <p style=""font-size:50px; font-weight:bold;""
                            >disgust</p>
                            <div style=""width:240px; margin: auto;"">
                                <img src=""images/map27_YlGnBu_scaleRev_orientMir_000.png"" style= ""width:200px""alt=""img"">
                            </div>
                        </div>","-66","","0","","","","images/map27_YlGnBu_scaleRev_orientMir_000.png","disgust","1","27","27","YlGnBu","orientMir","scaleRev","000","",""
"","","","","","html-slider-response","148","661584","0.0-144.0","6g0bm4ktnv","37","NaN","<div style=""width:500px;"">
                            <p style=""font-size:50px; font-weight:bold;""
                            >disgust</p>
                            <div style=""width:240px; margin: auto;"">
                                <img src=""images/map27_GnBu_scaleRev_orientDef_000.png"" style= ""width:200px""alt=""img"">
                            </div>
                        </div>","-117","","0","","","","images/map27_GnBu_scaleRev_orientDef_000.png","disgust","1","27","27","GnBu","orientDef","scaleRev","000","",""
"","","","","","html-slider-response","149","663057","0.0-145.0","6g0bm4ktnv","37","NaN","<div style=""width:500px;"">
                            <p style=""font-size:50px; font-weight:bold;""
                            >disgust</p>
                            <div style=""width:240px; margin: auto;"">
                                <img src=""images/map07_RdYlBu_scaleRev_orientDef_000.png"" style= ""width:200px""alt=""img"">
                            </div>
                        </div>","88","","0","","","","images/map07_RdYlBu_scaleRev_orientDef_000.png","disgust","1","07","07","RdYlBu","orientDef","scaleRev","000","",""
"","","","","","html-slider-response","150","665419","0.0-146.0","6g0bm4ktnv","37","NaN","<div style=""width:500px;"">
                            <p style=""font-size:50px; font-weight:bold;""
                            >disgust</p>
                            <div style=""width:240px; margin: auto;"">
                                <img src=""images/map02_YlGn_scaleRev_orientDef_180.png"" style= ""width:200px""alt=""img"">
                            </div>
                        </div>","22","","0","","","","images/map02_YlGn_scaleRev_orientDef_180.png","disgust","1","02","02","YlGn","orientDef","scaleRev","180","",""
"","","","","","html-slider-response","151","666855","0.0-147.0","6g0bm4ktnv","37","NaN","<div style=""width:500px;"">
                            <p style=""font-size:50px; font-weight:bold;""
                            >disgust</p>
                            <div style=""width:240px; margin: auto;"">
                                <img src=""images/map27_YlGnBu_scaleDef_orientDef_270.png"" style= ""width:200px""alt=""img"">
                            </div>
                        </div>","-56","","0","","","","images/map27_YlGnBu_scaleDef_orientDef_270.png","disgust","1","27","27","YlGnBu","orientDef","scaleDef","270","",""
"","","","","","html-slider-response","152","668425","0.0-148.0","6g0bm4ktnv","37","NaN","<div style=""width:500px;"">
                            <p style=""font-size:50px; font-weight:bold;""
                            >disgust</p>
                            <div style=""width:240px; margin: auto;"">
                                <img src=""images/map07_coolwarm_scaleDef_orientMir_090.png"" style= ""width:200px""alt=""img"">
                            </div>
                        </div>","54","","0","","","","images/map07_coolwarm_scaleDef_orientMir_090.png","disgust","1","07","07","coolwarm","orientMir","scaleDef","090","",""
"","","","","","html-slider-response","153","670109","0.0-149.0","6g0bm4ktnv","37","NaN","<div style=""width:500px;"">
                            <p style=""font-size:50px; font-weight:bold;""
                            >disgust</p>
                            <div style=""width:240px; margin: auto;"">
                                <img src=""images/map26_OrRd_scaleRev_orientDef_000.png"" style= ""width:200px""alt=""img"">
                            </div>
                        </div>","-27","","0","","","","images/map26_OrRd_scaleRev_orientDef_000.png","disgust","1","26","26","OrRd","orientDef","scaleRev","000","",""
"","","","","","html-slider-response","154","671630","0.0-150.0","6g0bm4ktnv","37","NaN","<div style=""width:500px;"">
                            <p style=""font-size:50px; font-weight:bold;""
                            >disgust</p>
                            <div style=""width:240px; margin: auto;"">
                                <img src=""images/map23_YlOrBr_scaleDef_orientDef_270.png"" style= ""width:200px""alt=""img"">
                            </div>
                        </div>","-90","","0","","","","images/map23_YlOrBr_scaleDef_orientDef_270.png","disgust","1","23","23","YlOrBr","orientDef","scaleDef","270","",""
"","","","","","html-slider-response","155","673355","0.0-151.0","6g0bm4ktnv","37","NaN","<div style=""width:500px;"">
                            <p style=""font-size:50px; font-weight:bold;""
                            >disgust</p>
                            <div style=""width:240px; margin: auto;"">
                                <img src=""images/map02_PRGn_scaleRev_orientMir_180.png"" style= ""width:200px""alt=""img"">
                            </div>
                        </div>","104","","0","","","","images/map02_PRGn_scaleRev_orientMir_180.png","disgust","1","02","02","PRGn","orientMir","scaleRev","180","",""
"","","","","","html-slider-response","156","674903","0.0-152.0","6g0bm4ktnv","37","NaN","<div style=""width:500px;"">
                            <p style=""font-size:50px; font-weight:bold;""
                            >disgust</p>
                            <div style=""width:240px; margin: auto;"">
                                <img src=""images/map15_Blues_scaleDef_orientDef_270.png"" style= ""width:200px""alt=""img"">
                            </div>
                        </div>","-120","","0","","","","images/map15_Blues_scaleDef_orientDef_270.png","disgust","1","15","15","Blues","orientDef","scaleDef","270","",""
"","","","","","html-slider-response","157","676749","0.0-153.0","6g0bm4ktnv","37","NaN","<div style=""width:500px;"">
                            <p style=""font-size:50px; font-weight:bold;""
