"success","timeout","failed_images","failed_audio","failed_video","trial_type","trial_index","time_elapsed","internal_node_id","subject_id","condition_num","rt","stimulus","response","question_order","slider_start","practiceTrial","practiceTrialNum","correct","image_path","concept","repetition","map_id","map_num","scale_name","orientation_code","mapping_code","rotation_code","ishihara_plate","correct_response"
"true","false","[]","[]","[]","preload","0","413","0.0-0.0","83sokewkbz","61","","","","","","","","","","","","","","","","","","",""
"","","","","","html-button-response","1","36664","0.0-1.0","83sokewkbz","61","36250","Welcome to our experiment!<p>At the bottom of this screen, you will see a button that says ""Begin Experiment"".<br>Please only click that button when you are ready to complete the 30 minute experiment in one sitting.</p><p> Once you click that button, it will not be possible to restart the experiment.","0","","","","","","","","","","","","","","","",""
"true","","","","","fullscreen","2","43050","0.0-2.0","83sokewkbz","61","5382","","","","","","","","","","","","","","","","","",""
"","","","","","survey-multi-select","3","47590","0.0-3.0","83sokewkbz","61","4534","","{""Consent"":[""<strong>I consent</strong>""]}","[0]","","","","","","","","","","","","","","",""
"","","","","","html-button-response","4","51974","0.0-4.0","83sokewkbz","61","4382","Welcome! <p> This experiment involves two parts: demographic information, followed by the experimental task.<p> It will take about 30 minutes to complete both parts.","0","","","","","","","","","","","","","","","",""
"","","","","","survey-text","5","61668","0.0-5.0","83sokewkbz","61","9683","","{""Age"":""19"",""Gender"":""female"",""Race/ethnicity"":""white"",""Languages"":""english""}","","","","","","","","","","","","","","","",""
"","","","","","html-slider-response","6","134219","0.0-6.0","83sokewkbz","61","72551","<div style='text-align:left; font-size:20px; line-height:25px; width: 1000px;'>
                                During this experiment you will be asked to rate how much you associate maps with                    different concepts.<br> Below, you can see some examples of the maps you will be asked to rate. Above the maps
                    is the list of concepts.<br>You will be asked                    to rate how much you associate each map with each concept on a scale from 'not at all' to 'very much' like the
                    one below. <br><br>
                    Now, please look at the list of concepts and maps. For each concept, think about the map you associate 'very
                    much' with the concept.<br>                     When you see that map during the experiment, please rate it near the 'very much' endpoint of the
                    scale.<br>Now, please think about which map you associate 'not at all'                     with each concept. When you see that map during the experiment, please rate it near the 'not at all' endpoint
                    of the scale.<br>
                    Please use the full range of the scale. That is, if a map is somewhat associated with the concept, you would
                    click partway between the middle point and right side of the scale.                    You will be asked to rate each map for a given concept before moving on to the next concept.<br>Press the
                    'Continue' button for instructions on how to use the slider.                    <br>
                </div>

                <div style=""width: 500px; margin: 0 auto;"">
                    <!-- Centered text paragraphs -->
                    <div style=""text-align: center; width: 500px;"">
                        <p style=""font-size:25px; line-height:15px;"">
                            angry&nbsp;&nbsp;&nbsp;&nbsp;
                            sad&nbsp;&nbsp;&nbsp;&nbsp;
                            fearful&nbsp;&nbsp;&nbsp;&nbsp;
                            disgust&nbsp;&nbsp;&nbsp;&nbsp;
                            happy
                        </p>
                        <!-- <p style=""font-size:20px; line-height:15px;"">sad</p>
                        <p style=""font-size:20px;line-height:15px;"">fearful</p>
                        <p style=""font-size:20px;line-height:15px;"">disgust</p>
                        <p style=""font-size:20px;line-height:15px;"">happy</p> -->
                    </div>
            

                    <!-- Grid section -->
                   <div style=""display: flex; justify-content: center; padding-top: 15px;"">
                    <div style=""display: grid; grid-template-columns: repeat(10, 55px); grid-gap: 5px; width: auto;"">
                        <img src=""images/map02_YlOrRd_scaleDef_orientMir_090.png"" alt=""map"" style=""width: 100%;""><img src=""images/map10_BuGn_scaleRev_orientDef_000.png"" alt=""map"" style=""width: 100%;""><img src=""images/map02_YlOrBr_scaleRev_orientMir_000.png"" alt=""map"" style=""width: 100%;""><img src=""images/map27_Blues_scaleRev_orientMir_000.png"" alt=""map"" style=""width: 100%;""><img src=""images/map15_managua_scaleRev_orientMir_180.png"" alt=""map"" style=""width: 100%;""><img src=""images/map12_BrBG_scaleRev_orientDef_000.png"" alt=""map"" style=""width: 100%;""><img src=""images/map26_inferno_scaleRev_orientDef_180.png"" alt=""map"" style=""width: 100%;""><img src=""images/map23_plasma_scaleDef_orientMir_270.png"" alt=""map"" style=""width: 100%;""><img src=""images/map05_BuPu_scaleRev_orientMir_180.png"" alt=""map"" style=""width: 100%;""><img src=""images/map07_YlGnBu_scaleDef_orientDef_270.png"" alt=""map"" style=""width: 100%;""><img src=""images/map02_OrRd_scaleDef_orientMir_270.png"" alt=""map"" style=""width: 100%;""><img src=""images/map12_PuOr_scaleDef_orientDef_090.png"" alt=""map"" style=""width: 100%;""><img src=""images/map10_PiYG_scaleDef_orientDef_270.png"" alt=""map"" style=""width: 100%;""><img src=""images/map05_PuRd_scaleRev_orientDef_180.png"" alt=""map"" style=""width: 100%;""><img src=""images/map13_coolwarm_scaleDef_orientMir_090.png"" alt=""map"" style=""width: 100%;""><img src=""images/map10_PRGn_scaleDef_orientMir_090.png"" alt=""map"" style=""width: 100%;""><img src=""images/map12_RdGy_scaleDef_orientDef_270.png"" alt=""map"" style=""width: 100%;""><img src=""images/map07_PuBu_scaleRev_orientDef_180.png"" alt=""map"" style=""width: 100%;""><img src=""images/map23_vanimo_scaleRev_orientDef_000.png"" alt=""map"" style=""width: 100%;""><img src=""images/map23_turbo_scaleRev_orientMir_000.png"" alt=""map"" style=""width: 100%;""><img src=""images/map15_berlin_scaleDef_orientDef_270.png"" alt=""map"" style=""width: 100%;""><img src=""images/map07_PuBuGn_scaleDef_orientMir_090.png"" alt=""map"" style=""width: 100%;""><img src=""images/map27_Oranges_scaleDef_orientMir_270.png"" alt=""map"" style=""width: 100%;""><img src=""images/map05_GnBu_scaleDef_orientMir_270.png"" alt=""map"" style=""width: 100%;""><img src=""images/map15_bwr_scaleRev_orientDef_000.png"" alt=""map"" style=""width: 100%;""><img src=""images/map27_Purples_scaleDef_orientDef_090.png"" alt=""map"" style=""width: 100%;""><img src=""images/map13_RdYlGn_scaleDef_orientDef_090.png"" alt=""map"" style=""width: 100%;""><img src=""images/map27_Greys_scaleRev_orientDef_000.png"" alt=""map"" style=""width: 100%;""><img src=""images/map23_viridis_scaleRev_orientMir_180.png"" alt=""map"" style=""width: 100%;""><img src=""images/map02_Reds_scaleDef_orientDef_090.png"" alt=""map"" style=""width: 100%;""><img src=""images/map26_cividis_scaleDef_orientMir_090.png"" alt=""map"" style=""width: 100%;""><img src=""images/map26_magma_scaleRev_orientMir_000.png"" alt=""map"" style=""width: 100%;""><img src=""images/map12_RdBu_scaleDef_orientMir_090.png"" alt=""map"" style=""width: 100%;""><img src=""images/map12_RdYlBu_scaleDef_orientMir_270.png"" alt=""map"" style=""width: 100%;""><img src=""images/map15_seismic_scaleDef_orientDef_090.png"" alt=""map"" style=""width: 100%;""><img src=""images/map27_Greens_scaleDef_orientMir_090.png"" alt=""map"" style=""width: 100%;""><img src=""images/map05_RdPu_scaleDef_orientDef_270.png"" alt=""map"" style=""width: 100%;""><img src=""images/map13_Spectral_scaleRev_orientMir_000.png"" alt=""map"" style=""width: 100%;""><img src=""images/map23_gist_earth_scaleDef_orientDef_090.png"" alt=""map"" style=""width: 100%;""><img src=""images/map10_YlGn_scaleRev_orientDef_180.png"" alt=""map"" style=""width: 100%;"">
                    </div>
                </div>

                    <!-- Clear floats -->
                    <div style=""clear: both;""></div>
                </div>
                            ","null","","0","true","","","","","","","","","","","","",""
"","","","","","html-button-response","7","136546","0.0-7.0","83sokewkbz","61","2325","<div style=""width:800px;""><p style=""text-align:left"">To move the slider, click and drag your cursor to the location of the scale where you would like to make your rating and then let go. When you let go of the slider, your response will be recorded and the next trial will begin. <br>
                    We are interested in your initial impressions of each map for the given concept, so please go with your first intuition. <br>
                    Before you begin the experiment, there will be four training trials for you to practice using the scale. <br>
                     When you are ready to start the training trials, please click ""Continue"".</p><br></div>","0","","","","","","","","","","","","","","","",""
"","","","","","html-slider-response","8","140837","0.0-8.0-0.0","83sokewkbz","61","NaN","<div style=""width:500px;"">
                                    <p style=""font-size:25px;"">Please move the slider all the way to the <br> right endpoint of the scale</p>

                                    </div>
                                </div>","200","","0","true","0","true","","","","","","","","","","",""
"","","","","","html-button-response","9","145067","0.0-8.0-1.0","83sokewkbz","61","3727","<p align='center'><b>Good job!</b> Click on 'Continue' to proceed.</p>","0","","","","","","","","","","","","","","","",""
"","","","","","html-slider-response","10","147424","0.0-9.0-0.0","83sokewkbz","61","NaN","<div style=""width:500px;"">
                                    <p style=""font-size:25px;"">Please move the slider all the way to the <br> left endpoint of the scale</p>

                                    </div>
                                </div>","-200","","0","true","1","true","","","","","","","","","","",""
"","","","","","html-button-response","11","151384","0.0-9.0-1.0","83sokewkbz","61","3456","<p align='center'><b>Good job!</b> Click on 'Continue' to proceed.</p>","0","","","","","","","","","","","","","","","",""
"","","","","","html-slider-response","12","154326","0.0-10.0-0.0","83sokewkbz","61","NaN","<div style=""width:500px;"">
                                    <p style=""font-size:25px;"">Please move the slider halfway between the center and right endpoint of the scale</p>

                                    </div>
                                </div>","-7","","0","true","2","false","","","","","","","","","","",""
"","","","","","html-button-response","13","157780","0.0-10.0-1.0","83sokewkbz","61","2951","<p align='center'><b>Not quite!</b> The slider was not placed near the instructed located. Click on 'Continue' to try again. </p>","0","","","","","","","","","","","","","","","",""
"","","","","","html-slider-response","14","163033","0.0-10.1-0.1","83sokewkbz","61","NaN","<div style=""width:500px;"">
                                    <p style=""font-size:25px;"">Please move the slider halfway between the center and right endpoint of the scale</p>

                                    </div>
                                </div>","99","","0","true","2","true","","","","","","","","","","",""
"","","","","","html-button-response","15","164209","0.0-10.1-1.1","83sokewkbz","61","675","<p align='center'><b>Good job!</b> Click on 'Continue' to proceed.</p>","0","","","","","","","","","","","","","","","",""
"","","","","","html-slider-response","16","172402","0.0-11.0-0.0","83sokewkbz","61","NaN","<div style=""width:500px;"">
                                    <p style=""font-size:25px;"">Please move the slider halfway between the center and left endpoint of the scale</p>

                                    </div>
                                </div>","-106","","0","true","3","true","","","","","","","","","","",""
"","","","","","html-button-response","17","173796","0.0-11.0-1.0","83sokewkbz","61","892","<p align='center'><b>Good job!</b> Click on 'Continue' to proceed.</p>","0","","","","","","","","","","","","","","","",""
"","","","","","html-button-response","18","175840","0.0-12.0","83sokewkbz","61","2042","<p>Great job! You've completed the practice trials. Now you will begin the main task.</p>","0","","","","","","","","","","","","","","","",""
"","","","","","html-button-response","19","178553","0.0-13.0","83sokewkbz","61","2711","<p>In this block of trials, you will be asked to rate how much you associate each map with:</p > <p style = 'font-size:150%; font-weight: bold'>angry</p><br></br>","0","","","","","","","","","","","","","","","",""
"","","","","","html-slider-response","20","181649","0.0-14.0","83sokewkbz","61","NaN","<div style=""width:500px;"">
                            <p style=""font-size:50px; font-weight:bold;""
                            >angry</p>
                            <div style=""width:240px; margin: auto;"">
                                <img src=""images/map05_BuPu_scaleRev_orientMir_180.png"" style= ""width:200px""alt=""img"">
                            </div>
                        </div>","111","","0","","","","images/map05_BuPu_scaleRev_orientMir_180.png","angry","1","05","05","BuPu","orientMir","scaleRev","180","",""
"","","","","","html-slider-response","21","184823","0.0-15.0","83sokewkbz","61","NaN","<div style=""width:500px;"">
                            <p style=""font-size:50px; font-weight:bold;""
                            >angry</p>
                            <div style=""width:240px; margin: auto;"">
                                <img src=""images/map27_Blues_scaleDef_orientDef_270.png"" style= ""width:200px""alt=""img"">
                            </div>
                        </div>","-120","","0","","","","images/map27_Blues_scaleDef_orientDef_270.png","angry","1","27","27","Blues","orientDef","scaleDef","270","",""
"","","","","","html-slider-response","22","187191","0.0-16.0","83sokewkbz","61","NaN","<div style=""width:500px;"">
                            <p style=""font-size:50px; font-weight:bold;""
                            >angry</p>
                            <div style=""width:240px; margin: auto;"">
                                <img src=""images/map02_Reds_scaleRev_orientDef_180.png"" style= ""width:200px""alt=""img"">
                            </div>
                        </div>","200","","0","","","","images/map02_Reds_scaleRev_orientDef_180.png","angry","1","02","02","Reds","orientDef","scaleRev","180","",""
"","","","","","html-slider-response","23","189644","0.0-17.0","83sokewkbz","61","NaN","<div style=""width:500px;"">
                            <p style=""font-size:50px; font-weight:bold;""
                            >angry</p>
                            <div style=""width:240px; margin: auto;"">
                                <img src=""images/map13_Spectral_scaleDef_orientDef_270.png"" style= ""width:200px""alt=""img"">
                            </div>
                        </div>","156","","0","","","","images/map13_Spectral_scaleDef_orientDef_270.png","angry","1","13","13","Spectral","orientDef","scaleDef","270","",""
"","","","","","html-slider-response","24","192181","0.0-18.0","83sokewkbz","61","NaN","<div style=""width:500px;"">
                            <p style=""font-size:50px; font-weight:bold;""
                            >angry</p>
                            <div style=""width:240px; margin: auto;"">
                                <img src=""images/map07_PuBu_scaleRev_orientDef_180.png"" style= ""width:200px""alt=""img"">
                            </div>
                        </div>","-162","","0","","","","images/map07_PuBu_scaleRev_orientDef_180.png","angry","1","07","07","PuBu","orientDef","scaleRev","180","",""
"","","","","","html-slider-response","25","194029","0.0-19.0","83sokewkbz","61","NaN","<div style=""width:500px;"">
                            <p style=""font-size:50px; font-weight:bold;""
                            >angry</p>
                            <div style=""width:240px; margin: auto;"">
                                <img src=""images/map02_Reds_scaleDef_orientDef_090.png"" style= ""width:200px""alt=""img"">
                            </div>
                        </div>","200","","0","","","","images/map02_Reds_scaleDef_orientDef_090.png","angry","1","02","02","Reds","orientDef","scaleDef","090","",""
"","","","","","html-slider-response","26","197348","0.0-20.0","83sokewkbz","61","NaN","<div style=""width:500px;"">
                            <p style=""font-size:50px; font-weight:bold;""
                            >angry</p>
                            <div style=""width:240px; margin: auto;"">
                                <img src=""images/map10_PRGn_scaleDef_orientMir_090.png"" style= ""width:200px""alt=""img"">
                            </div>
                        </div>","39","","0","","","","images/map10_PRGn_scaleDef_orientMir_090.png","angry","1","10","10","PRGn","orientMir","scaleDef","090","",""
"","","","","","html-slider-response","27","199828","0.0-21.0","83sokewkbz","61","NaN","<div style=""width:500px;"">
                            <p style=""font-size:50px; font-weight:bold;""
                            >angry</p>
                            <div style=""width:240px; margin: auto;"">
                                <img src=""images/map26_cividis_scaleDef_orientMir_090.png"" style= ""width:200px""alt=""img"">
                            </div>
                        </div>","-88","","0","","","","images/map26_cividis_scaleDef_orientMir_090.png","angry","1","26","26","cividis","orientMir","scaleDef","090","",""
"","","","","","html-slider-response","28","204998","0.0-22.0","83sokewkbz","61","NaN","<div style=""width:500px;"">
                            <p style=""font-size:50px; font-weight:bold;""
                            >angry</p>
                            <div style=""width:240px; margin: auto;"">
                                <img src=""images/map23_viridis_scaleRev_orientMir_180.png"" style= ""width:200px""alt=""img"">
                            </div>
                        </div>","28","","0","","","","images/map23_viridis_scaleRev_orientMir_180.png","angry","1","23","23","viridis","orientMir","scaleRev","180","",""
"","","","","","html-slider-response","29","207129","0.0-23.0","83sokewkbz","61","NaN","<div style=""width:500px;"">
                            <p style=""font-size:50px; font-weight:bold;""
                            >angry</p>
                            <div style=""width:240px; margin: auto;"">
                                <img src=""images/map02_YlOrRd_scaleRev_orientMir_180.png"" style= ""width:200px""alt=""img"">
                            </div>
                        </div>","200","","0","","","","images/map02_YlOrRd_scaleRev_orientMir_180.png","angry","1","02","02","YlOrRd","orientMir","scaleRev","180","",""
"","","","","","html-slider-response","30","210545","0.0-24.0","83sokewkbz","61","NaN","<div style=""width:500px;"">
                            <p style=""font-size:50px; font-weight:bold;""
                            >angry</p>
                            <div style=""width:240px; margin: auto;"">
                                <img src=""images/map23_gist_earth_scaleRev_orientDef_180.png"" style= ""width:200px""alt=""img"">
                            </div>
                        </div>","-124","","0","","","","images/map23_gist_earth_scaleRev_orientDef_180.png","angry","1","23","23","gist","scaleRev","earth","orientDef","",""
"","","","","","html-slider-response","31","212831","0.0-25.0","83sokewkbz","61","NaN","<div style=""width:500px;"">
                            <p style=""font-size:50px; font-weight:bold;""
                            >angry</p>
                            <div style=""width:240px; margin: auto;"">
                                <img src=""images/map05_PuRd_scaleRev_orientDef_180.png"" style= ""width:200px""alt=""img"">
                            </div>
                        </div>","200","","0","","","","images/map05_PuRd_scaleRev_orientDef_180.png","angry","1","05","05","PuRd","orientDef","scaleRev","180","",""
"","","","","","html-slider-response","32","215697","0.0-26.0","83sokewkbz","61","NaN","<div style=""width:500px;"">
                            <p style=""font-size:50px; font-weight:bold;""
                            >angry</p>
                            <div style=""width:240px; margin: auto;"">
                                <img src=""images/map15_seismic_scaleDef_orientDef_090.png"" style= ""width:200px""alt=""img"">
                            </div>
                        </div>","200","","0","","","","images/map15_seismic_scaleDef_orientDef_090.png","angry","1","15","15","seismic","orientDef","scaleDef","090","",""
"","","","","","html-slider-response","33","218484","0.0-27.0","83sokewkbz","61","NaN","<div style=""width:500px;"">
                            <p style=""font-size:50px; font-weight:bold;""
                            >angry</p>
                            <div style=""width:240px; margin: auto;"">
                                <img src=""images/map12_PuOr_scaleDef_orientDef_090.png"" style= ""width:200px""alt=""img"">
                            </div>
                        </div>","-82","","0","","","","images/map12_PuOr_scaleDef_orientDef_090.png","angry","1","12","12","PuOr","orientDef","scaleDef","090","",""
"","","","","","html-slider-response","34","220757","0.0-28.0","83sokewkbz","61","NaN","<div style=""width:500px;"">
                            <p style=""font-size:50px; font-weight:bold;""
                            >angry</p>
                            <div style=""width:240px; margin: auto;"">
                                <img src=""images/map02_OrRd_scaleDef_orientMir_270.png"" style= ""width:200px""alt=""img"">
                            </div>
                        </div>","200","","0","","","","images/map02_OrRd_scaleDef_orientMir_270.png","angry","1","02","02","OrRd","orientMir","scaleDef","270","",""
"","","","","","html-slider-response","35","223563","0.0-29.0","83sokewkbz","61","NaN","<div style=""width:500px;"">
                            <p style=""font-size:50px; font-weight:bold;""
                            >angry</p>
                            <div style=""width:240px; margin: auto;"">
                                <img src=""images/map02_YlOrRd_scaleDef_orientMir_090.png"" style= ""width:200px""alt=""img"">
                            </div>
                        </div>","200","","0","","","","images/map02_YlOrRd_scaleDef_orientMir_090.png","angry","1","02","02","YlOrRd","orientMir","scaleDef","090","",""
"","","","","","html-slider-response","36","226374","0.0-30.0","83sokewkbz","61","NaN","<div style=""width:500px;"">
                            <p style=""font-size:50px; font-weight:bold;""
                            >angry</p>
                            <div style=""width:240px; margin: auto;"">
                                <img src=""images/map02_YlOrBr_scaleDef_orientDef_270.png"" style= ""width:200px""alt=""img"">
                            </div>
                        </div>","82","","0","","","","images/map02_YlOrBr_scaleDef_orientDef_270.png","angry","1","02","02","YlOrBr","orientDef","scaleDef","270","",""
"","","","","","html-slider-response","37","228174","0.0-31.0","83sokewkbz","61","NaN","<div style=""width:500px;"">
                            <p style=""font-size:50px; font-weight:bold;""
                            >angry</p>
                            <div style=""width:240px; margin: auto;"">
                                <img src=""images/map07_PuBuGn_scaleDef_orientMir_090.png"" style= ""width:200px""alt=""img"">
                            </div>
                        </div>","-200","","0","","","","images/map07_PuBuGn_scaleDef_orientMir_090.png","angry","1","07","07","PuBuGn","orientMir","scaleDef","090","",""
"","","","","","html-slider-response","38","230435","0.0-32.0","83sokewkbz","61","NaN","<div style=""width:500px;"">
                            <p style=""font-size:50px; font-weight:bold;""
                            >angry</p>
                            <div style=""width:240px; margin: auto;"">
                                <img src=""images/map26_magma_scaleDef_orientDef_270.png"" style= ""width:200px""alt=""img"">
                            </div>
                        </div>","200","","0","","","","images/map26_magma_scaleDef_orientDef_270.png","angry","1","26","26","magma","orientDef","scaleDef","270","",""
"","","","","","html-slider-response","39","233110","0.0-33.0","83sokewkbz","61","NaN","<div style=""width:500px;"">
                            <p style=""font-size:50px; font-weight:bold;""
                            >angry</p>
                            <div style=""width:240px; margin: auto;"">
                                <img src=""images/map13_RdYlGn_scaleRev_orientDef_180.png"" style= ""width:200px""alt=""img"">
                            </div>
                        </div>","78","","0","","","","images/map13_RdYlGn_scaleRev_orientDef_180.png","angry","1","13","13","RdYlGn","orientDef","scaleRev","180","",""
"","","","","","html-slider-response","40","237986","0.0-34.0","83sokewkbz","61","NaN","<div style=""width:500px;"">
                            <p style=""font-size:50px; font-weight:bold;""
                            >angry</p>
                            <div style=""width:240px; margin: auto;"">
                                <img src=""images/map10_PiYG_scaleDef_orientDef_270.png"" style= ""width:200px""alt=""img"">
                            </div>
                        </div>","-58","","0","","","","images/map10_PiYG_scaleDef_orientDef_270.png","angry","1","10","10","PiYG","orientDef","scaleDef","270","",""
"","","","","","html-slider-response","41","240022","0.0-35.0","83sokewkbz","61","NaN","<div style=""width:500px;"">
                            <p style=""font-size:50px; font-weight:bold;""
                            >angry</p>
                            <div style=""width:240px; margin: auto;"">
                                <img src=""images/map13_bwr_scaleDef_orientMir_270.png"" style= ""width:200px""alt=""img"">
                            </div>
                        </div>","131","","0","","","","images/map13_bwr_scaleDef_orientMir_270.png","angry","1","13","13","bwr","orientMir","scaleDef","270","",""
"","","","","","html-slider-response","42","242510","0.0-36.0","83sokewkbz","61","NaN","<div style=""width:500px;"">
                            <p style=""font-size:50px; font-weight:bold;""
                            >angry</p>
                            <div style=""width:240px; margin: auto;"">
                                <img src=""images/map12_RdGy_scaleDef_orientDef_270.png"" style= ""width:200px""alt=""img"">
                            </div>
                        </div>","200","","0","","","","images/map12_RdGy_scaleDef_orientDef_270.png","angry","1","12","12","RdGy","orientDef","scaleDef","270","",""
"","","","","","html-slider-response","43","248672","0.0-37.0","83sokewkbz","61","NaN","<div style=""width:500px;"">
                            <p style=""font-size:50px; font-weight:bold;""
                            >angry</p>
                            <div style=""width:240px; margin: auto;"">
                                <img src=""images/map07_BuGn_scaleDef_orientMir_270.png"" style= ""width:200px""alt=""img"">
                            </div>
                        </div>","-122","","0","","","","images/map07_BuGn_scaleDef_orientMir_270.png","angry","1","07","07","BuGn","orientMir","scaleDef","270","",""
"","","","","","html-slider-response","44","251080","0.0-38.0","83sokewkbz","61","NaN","<div style=""width:500px;"">
                            <p style=""font-size:50px; font-weight:bold;""
                            >angry</p>
                            <div style=""width:240px; margin: auto;"">
                                <img src=""images/map10_BuGn_scaleRev_orientDef_000.png"" style= ""width:200px""alt=""img"">
                            </div>
                        </div>","-154","","0","","","","images/map10_BuGn_scaleRev_orientDef_000.png","angry","1","10","10","BuGn","orientDef","scaleRev","000","",""
"","","","","","html-slider-response","45","253365","0.0-39.0","83sokewkbz","61","NaN","<div style=""width:500px;"">
                            <p style=""font-size:50px; font-weight:bold;""
                            >angry</p>
                            <div style=""width:240px; margin: auto;"">
                                <img src=""images/map12_RdBu_scaleRev_orientMir_180.png"" style= ""width:200px""alt=""img"">
                            </div>
                        </div>","200","","0","","","","images/map12_RdBu_scaleRev_orientMir_180.png","angry","1","12","12","RdBu","orientMir","scaleRev","180","",""
"","","","","","html-slider-response","46","256381","0.0-40.0","83sokewkbz","61","NaN","<div style=""width:500px;"">
                            <p style=""font-size:50px; font-weight:bold;""
                            >angry</p>
                            <div style=""width:240px; margin: auto;"">
                                <img src=""images/map27_Greys_scaleRev_orientDef_000.png"" style= ""width:200px""alt=""img"">
                            </div>
                        </div>","120","","0","","","","images/map27_Greys_scaleRev_orientDef_000.png","angry","1","27","27","Greys","orientDef","scaleRev","000","",""
"","","","","","html-slider-response","47","259237","0.0-41.0","83sokewkbz","61","NaN","<div style=""width:500px;"">
                            <p style=""font-size:50px; font-weight:bold;""
                            >angry</p>
                            <div style=""width:240px; margin: auto;"">
                                <img src=""images/map26_plasma_scaleRev_orientDef_000.png"" style= ""width:200px""alt=""img"">
                            </div>
                        </div>","200","","0","","","","images/map26_plasma_scaleRev_orientDef_000.png","angry","1","26","26","plasma","orientDef","scaleRev","000","",""
"","","","","","html-slider-response","48","262169","0.0-42.0","83sokewkbz","61","NaN","<div style=""width:500px;"">
                            <p style=""font-size:50px; font-weight:bold;""
                            >angry</p>
                            <div style=""width:240px; margin: auto;"">
                                <img src=""images/map27_Purples_scaleRev_orientDef_180.png"" style= ""width:200px""alt=""img"">
                            </div>
                        </div>","-102","","0","","","","images/map27_Purples_scaleRev_orientDef_180.png","angry","1","27","27","Purples","orientDef","scaleRev","180","",""
"","","","","","html-slider-response","49","264163","0.0-43.0","83sokewkbz","61","NaN","<div style=""width:500px;"">
                            <p style=""font-size:50px; font-weight:bold;""
                            >angry</p>
                            <div style=""width:240px; margin: auto;"">
                                <img src=""images/map15_berlin_scaleDef_orientDef_270.png"" style= ""width:200px""alt=""img"">
                            </div>
                        </div>","200","","0","","","","images/map15_berlin_scaleDef_orientDef_270.png","angry","1","15","15","berlin","orientDef","scaleDef","270","",""
"","","","","","html-slider-response","50","265907","0.0-44.0","83sokewkbz","61","NaN","<div style=""width:500px;"">
                            <p style=""font-size:50px; font-weight:bold;""
                            >angry</p>
                            <div style=""width:240px; margin: auto;"">
                                <img src=""images/map05_RdPu_scaleDef_orientDef_270.png"" style= ""width:200px""alt=""img"">
                            </div>
                        </div>","200","","0","","","","images/map05_RdPu_scaleDef_orientDef_270.png","angry","1","05","05","RdPu","orientDef","scaleDef","270","",""
"","","","","","html-slider-response","51","269332","0.0-45.0","83sokewkbz","61","NaN","<div style=""width:500px;"">
                            <p style=""font-size:50px; font-weight:bold;""
                            >angry</p>
                            <div style=""width:240px; margin: auto;"">
                                <img src=""images/map12_PuOr_scaleRev_orientDef_180.png"" style= ""width:200px""alt=""img"">
                            </div>
                        </div>","-94","","0","","","","images/map12_PuOr_scaleRev_orientDef_180.png","angry","1","12","12","PuOr","orientDef","scaleRev","180","",""
"","","","","","html-slider-response","52","271613","0.0-46.0","83sokewkbz","61","NaN","<div style=""width:500px;"">
                            <p style=""font-size:50px; font-weight:bold;""
                            >angry</p>
                            <div style=""width:240px; margin: auto;"">
                                <img src=""images/map27_Greens_scaleDef_orientMir_090.png"" style= ""width:200px""alt=""img"">
                            </div>
                        </div>","-112","","0","","","","images/map27_Greens_scaleDef_orientMir_090.png","angry","1","27","27","Greens","orientMir","scaleDef","090","",""
"","","","","","html-slider-response","53","274299","0.0-47.0","83sokewkbz","61","NaN","<div style=""width:500px;"">
                            <p style=""font-size:50px; font-weight:bold;""
                            >angry</p>
                            <div style=""width:240px; margin: auto;"">
                                <img src=""images/map10_PRGn_scaleRev_orientMir_180.png"" style= ""width:200px""alt=""img"">
                            </div>
                        </div>","-89","","0","","","","images/map10_PRGn_scaleRev_orientMir_180.png","angry","1","10","10","PRGn","orientMir","scaleRev","180","",""
"","","","","","html-slider-response","54","276092","0.0-48.0","83sokewkbz","61","NaN","<div style=""width:500px;"">
                            <p style=""font-size:50px; font-weight:bold;""
                            >angry</p>
                            <div style=""width:240px; margin: auto;"">
                                <img src=""images/map05_OrRd_scaleRev_orientDef_000.png"" style= ""width:200px""alt=""img"">
                            </div>
                        </div>","200","","0","","","","images/map05_OrRd_scaleRev_orientDef_000.png","angry","1","05","05","OrRd","orientDef","scaleRev","000","",""
"","","","","","html-slider-response","55","279105","0.0-49.0","83sokewkbz","61","NaN","<div style=""width:500px;"">
                            <p style=""font-size:50px; font-weight:bold;""
                            >angry</p>
                            <div style=""width:240px; margin: auto;"">
                                <img src=""images/map12_BrBG_scaleRev_orientDef_000.png"" style= ""width:200px""alt=""img"">
                            </div>
                        </div>","51","","0","","","","images/map12_BrBG_scaleRev_orientDef_000.png","angry","1","12","12","BrBG","orientDef","scaleRev","000","",""
"","","","","","html-slider-response","56","281231","0.0-50.0","83sokewkbz","61","NaN","<div style=""width:500px;"">
                            <p style=""font-size:50px; font-weight:bold;""
                            >angry</p>
                            <div style=""width:240px; margin: auto;"">
                                <img src=""images/map10_PiYG_scaleRev_orientMir_000.png"" style= ""width:200px""alt=""img"">
                            </div>
                        </div>","-43","","0","","","","images/map10_PiYG_scaleRev_orientMir_000.png","angry","1","10","10","PiYG","orientMir","scaleRev","000","",""
"","","","","","html-slider-response","57","283673","0.0-51.0","83sokewkbz","61","NaN","<div style=""width:500px;"">
                            <p style=""font-size:50px; font-weight:bold;""
                            >angry</p>
                            <div style=""width:240px; margin: auto;"">
                                <img src=""images/map23_viridis_scaleDef_orientMir_090.png"" style= ""width:200px""alt=""img"">
                            </div>
                        </div>","-98","","0","","","","images/map23_viridis_scaleDef_orientMir_090.png","angry","1","23","23","viridis","orientMir","scaleDef","090","",""
"","","","","","html-slider-response","58","285291","0.0-52.0","83sokewkbz","61","NaN","<div style=""width:500px;"">
                            <p style=""font-size:50px; font-weight:bold;""
                            >angry</p>
                            <div style=""width:240px; margin: auto;"">
                                <img src=""images/map15_seismic_scaleRev_orientDef_180.png"" style= ""width:200px""alt=""img"">
                            </div>
                        </div>","200","","0","","","","images/map15_seismic_scaleRev_orientDef_180.png","angry","1","15","15","seismic","orientDef","scaleRev","180","",""
"","","","","","html-slider-response","59","287648","0.0-53.0","83sokewkbz","61","NaN","<div style=""width:500px;"">
                            <p style=""font-size:50px; font-weight:bold;""
                            >angry</p>
                            <div style=""width:240px; margin: auto;"">
                                <img src=""images/map23_gist_earth_scaleDef_orientDef_090.png"" style= ""width:200px""alt=""img"">
                            </div>
                        </div>","-89","","0","","","","images/map23_gist_earth_scaleDef_orientDef_090.png","angry","1","23","23","gist","scaleDef","earth","orientDef","",""
"","","","","","html-button-response","60","305718","0.0-54.0","83sokewkbz","61","17569","<p>You are doing great!<br></br> You are halway done with the current block. When you are ready to continue, click the 'Continue' button.</p>","0","","","","","","","","","","","","","","","",""
"","","","","","html-slider-response","61","307482","0.0-55.0","83sokewkbz","61","NaN","<div style=""width:500px;"">
                            <p style=""font-size:50px; font-weight:bold;""
                            >angry</p>
                            <div style=""width:240px; margin: auto;"">
                                <img src=""images/map05_RdPu_scaleRev_orientMir_000.png"" style= ""width:200px""alt=""img"">
                            </div>
                        </div>","200","","0","","","","images/map05_RdPu_scaleRev_orientMir_000.png","angry","1","05","05","RdPu","orientMir","scaleRev","000","",""
"","","","","","html-slider-response","62","309373","0.0-56.0","83sokewkbz","61","NaN","<div style=""width:500px;"">
                            <p style=""font-size:50px; font-weight:bold;""
                            >angry</p>
                            <div style=""width:240px; margin: auto;"">
                                <img src=""images/map10_YlGn_scaleDef_orientDef_090.png"" style= ""width:200px""alt=""img"">
                            </div>
                        </div>","-126","","0","","","","images/map10_YlGn_scaleDef_orientDef_090.png","angry","1","10","10","YlGn","orientDef","scaleDef","090","",""
"","","","","","html-slider-response","63","315283","0.0-57.0","83sokewkbz","61","NaN","<div style=""width:500px;"">
                            <p style=""font-size:50px; font-weight:bold;""
                            >angry</p>
                            <div style=""width:240px; margin: auto;"">
                                <img src=""images/map07_PuBuGn_scaleRev_orientMir_180.png"" style= ""width:200px""alt=""img"">
                            </div>
                        </div>","-180","","0","","","","images/map07_PuBuGn_scaleRev_orientMir_180.png","angry","1","07","07","PuBuGn","orientMir","scaleRev","180","",""
"","","","","","html-slider-response","64","317909","0.0-58.0","83sokewkbz","61","NaN","<div style=""width:500px;"">
                            <p style=""font-size:50px; font-weight:bold;""
                            >angry</p>
                            <div style=""width:240px; margin: auto;"">
                                <img src=""images/map10_YlGn_scaleRev_orientDef_180.png"" style= ""width:200px""alt=""img"">
                            </div>
                        </div>","-98","","0","","","","images/map10_YlGn_scaleRev_orientDef_180.png","angry","1","10","10","YlGn","orientDef","scaleRev","180","",""
"","","","","","html-slider-response","65","319596","0.0-59.0","83sokewkbz","61","NaN","<div style=""width:500px;"">
                            <p style=""font-size:50px; font-weight:bold;""
                            >angry</p>
                            <div style=""width:240px; margin: auto;"">
                                <img src=""images/map26_cividis_scaleRev_orientMir_180.png"" style= ""width:200px""alt=""img"">
                            </div>
                        </div>","-55","","0","","","","images/map26_cividis_scaleRev_orientMir_180.png","angry","1","26","26","cividis","orientMir","scaleRev","180","",""
"","","","","","html-slider-response","66","321487","0.0-60.0","83sokewkbz","61","NaN","<div style=""width:500px;"">
                            <p style=""font-size:50px; font-weight:bold;""
                            >angry</p>
                            <div style=""width:240px; margin: auto;"">
                                <img src=""images/map13_coolwarm_scaleDef_orientMir_090.png"" style= ""width:200px""alt=""img"">
                            </div>
                        </div>","94","","0","","","","images/map13_coolwarm_scaleDef_orientMir_090.png","angry","1","13","13","coolwarm","orientMir","scaleDef","090","",""
"","","","","","html-slider-response","67","323377","0.0-61.0","83sokewkbz","61","NaN","<div style=""width:500px;"">
                            <p style=""font-size:50px; font-weight:bold;""
                            >angry</p>
                            <div style=""width:240px; margin: auto;"">
                                <img src=""images/map13_RdYlGn_scaleDef_orientDef_090.png"" style= ""width:200px""alt=""img"">
                            </div>
                        </div>","166","","0","","","","images/map13_RdYlGn_scaleDef_orientDef_090.png","angry","1","13","13","RdYlGn","orientDef","scaleDef","090","",""
"","","","","","html-slider-response","68","324992","0.0-62.0","83sokewkbz","61","NaN","<div style=""width:500px;"">
                            <p style=""font-size:50px; font-weight:bold;""
                            >angry</p>
                            <div style=""width:240px; margin: auto;"">
                                <img src=""images/map27_Oranges_scaleDef_orientMir_270.png"" style= ""width:200px""alt=""img"">
                            </div>
                        </div>","200","","0","","","","images/map27_Oranges_scaleDef_orientMir_270.png","angry","1","27","27","Oranges","orientMir","scaleDef","270","",""
"","","","","","html-slider-response","69","327092","0.0-63.0","83sokewkbz","61","NaN","<div style=""width:500px;"">
                            <p style=""font-size:50px; font-weight:bold;""
                            >angry</p>
                            <div style=""width:240px; margin: auto;"">
                                <img src=""images/map12_RdBu_scaleDef_orientMir_090.png"" style= ""width:200px""alt=""img"">
                            </div>
                        </div>","110","","0","","","","images/map12_RdBu_scaleDef_orientMir_090.png","angry","1","12","12","RdBu","orientMir","scaleDef","090","",""
"","","","","","html-slider-response","70","328941","0.0-64.0","83sokewkbz","61","NaN","<div style=""width:500px;"">
                            <p style=""font-size:50px; font-weight:bold;""
                            >angry</p>
                            <div style=""width:240px; margin: auto;"">
                                <img src=""images/map12_RdYlBu_scaleDef_orientMir_270.png"" style= ""width:200px""alt=""img"">
                            </div>
                        </div>","-58","","0","","","","images/map12_RdYlBu_scaleDef_orientMir_270.png","angry","1","12","12","RdYlBu","orientMir","scaleDef","270","",""
"","","","","","html-slider-response","71","330467","0.0-65.0","83sokewkbz","61","NaN","<div style=""width:500px;"">
                            <p style=""font-size:50px; font-weight:bold;""
                            >angry</p>
                            <div style=""width:240px; margin: auto;"">
                                <img src=""images/map27_Greens_scaleRev_orientMir_180.png"" style= ""width:200px""alt=""img"">
                            </div>
                        </div>","-134","","0","","","","images/map27_Greens_scaleRev_orientMir_180.png","angry","1","27","27","Greens","orientMir","scaleRev","180","",""
"","","","","","html-slider-response","72","332487","0.0-66.0","83sokewkbz","61","NaN","<div style=""width:500px;"">
                            <p style=""font-size:50px; font-weight:bold;""
                            >angry</p>
                            <div style=""width:240px; margin: auto;"">
                                <img src=""images/map23_turbo_scaleRev_orientMir_000.png"" style= ""width:200px""alt=""img"">
                            </div>
                        </div>","159","","0","","","","images/map23_turbo_scaleRev_orientMir_000.png","angry","1","23","23","turbo","orientMir","scaleRev","000","",""
"","","","","","html-slider-response","73","334508","0.0-67.0","83sokewkbz","61","NaN","<div style=""width:500px;"">
                            <p style=""font-size:50px; font-weight:bold;""
                            >angry</p>
                            <div style=""width:240px; margin: auto;"">
                                <img src=""images/map27_Purples_scaleDef_orientDef_090.png"" style= ""width:200px""alt=""img"">
                            </div>
                        </div>","-200","","0","","","","images/map27_Purples_scaleDef_orientDef_090.png","angry","1","27","27","Purples","orientDef","scaleDef","090","",""
"","","","","","html-slider-response","74","340194","0.0-68.0","83sokewkbz","61","NaN","<div style=""width:500px;"">
                            <p style=""font-size:50px; font-weight:bold;""
                            >angry</p>
                            <div style=""width:240px; margin: auto;"">
                                <img src=""images/map07_PuBu_scaleDef_orientDef_090.png"" style= ""width:200px""alt=""img"">
                            </div>
                        </div>","-200","","0","","","","images/map07_PuBu_scaleDef_orientDef_090.png","angry","1","07","07","PuBu","orientDef","scaleDef","090","",""
"","","","","","html-slider-response","75","343812","0.0-69.0","83sokewkbz","61","NaN","<div style=""width:500px;"">
                            <p style=""font-size:50px; font-weight:bold;""
                            >angry</p>
                            <div style=""width:240px; margin: auto;"">
                                <img src=""images/map26_magma_scaleRev_orientMir_000.png"" style= ""width:200px""alt=""img"">
                            </div>
                        </div>","200","","0","","","","images/map26_magma_scaleRev_orientMir_000.png","angry","1","26","26","magma","orientMir","scaleRev","000","",""
"","","","","","html-slider-response","76","345939","0.0-70.0","83sokewkbz","61","NaN","<div style=""width:500px;"">
                            <p style=""font-size:50px; font-weight:bold;""
                            >angry</p>
                            <div style=""width:240px; margin: auto;"">
                                <img src=""images/map07_GnBu_scaleRev_orientDef_000.png"" style= ""width:200px""alt=""img"">
                            </div>
                        </div>","-200","","0","","","","images/map07_GnBu_scaleRev_orientDef_000.png","angry","1","07","07","GnBu","orientDef","scaleRev","000","",""
"","","","","","html-slider-response","77","348376","0.0-71.0","83sokewkbz","61","NaN","<div style=""width:500px;"">
                            <p style=""font-size:50px; font-weight:bold;""
                            >angry</p>
                            <div style=""width:240px; margin: auto;"">
                                <img src=""images/map02_Oranges_scaleRev_orientDef_000.png"" style= ""width:200px""alt=""img"">
                            </div>
                        </div>","200","","0","","","","images/map02_Oranges_scaleRev_orientDef_000.png","angry","1","02","02","Oranges","orientDef","scaleRev","000","",""
"","","","","","html-slider-response","78","350823","0.0-72.0","83sokewkbz","61","NaN","<div style=""width:500px;"">
                            <p style=""font-size:50px; font-weight:bold;""
                            >angry</p>
                            <div style=""width:240px; margin: auto;"">
                                <img src=""images/map05_GnBu_scaleDef_orientMir_270.png"" style= ""width:200px""alt=""img"">
                            </div>
                        </div>","-200","","0","","","","images/map05_GnBu_scaleDef_orientMir_270.png","angry","1","05","05","GnBu","orientMir","scaleDef","270","",""
"","","","","","html-slider-response","79","353488","0.0-73.0","83sokewkbz","61","NaN","<div style=""width:500px;"">
                            <p style=""font-size:50px; font-weight:bold;""
                            >angry</p>
                            <div style=""width:240px; margin: auto;"">
                                <img src=""images/map23_turbo_scaleDef_orientDef_270.png"" style= ""width:200px""alt=""img"">
                            </div>
                        </div>","132","","0","","","","images/map23_turbo_scaleDef_orientDef_270.png","angry","1","23","23","turbo","orientDef","scaleDef","270","",""
"","","","","","html-slider-response","80","355951","0.0-74.0","83sokewkbz","61","NaN","<div style=""width:500px;"">
                            <p style=""font-size:50px; font-weight:bold;""
                            >angry</p>
                            <div style=""width:240px; margin: auto;"">
                                <img src=""images/map13_coolwarm_scaleRev_orientMir_180.png"" style= ""width:200px""alt=""img"">
                            </div>
                        </div>","200","","0","","","","images/map13_coolwarm_scaleRev_orientMir_180.png","angry","1","13","13","coolwarm","orientMir","scaleRev","180","",""
"","","","","","html-slider-response","81","359092","0.0-75.0","83sokewkbz","61","NaN","<div style=""width:500px;"">
                            <p style=""font-size:50px; font-weight:bold;""
                            >angry</p>
                            <div style=""width:240px; margin: auto;"">
                                <img src=""images/map10_BrBG_scaleDef_orientMir_270.png"" style= ""width:200px""alt=""img"">
                            </div>
                        </div>","-158","","0","","","","images/map10_BrBG_scaleDef_orientMir_270.png","angry","1","10","10","BrBG","orientMir","scaleDef","270","",""
"","","","","","html-slider-response","82","360805","0.0-76.0","83sokewkbz","61","NaN","<div style=""width:500px;"">
                            <p style=""font-size:50px; font-weight:bold;""
                            >angry</p>
                            <div style=""width:240px; margin: auto;"">
                                <img src=""images/map13_Spectral_scaleRev_orientMir_000.png"" style= ""width:200px""alt=""img"">
                            </div>
                        </div>","112","","0","","","","images/map13_Spectral_scaleRev_orientMir_000.png","angry","1","13","13","Spectral","orientMir","scaleRev","000","",""
"","","","","","html-slider-response","83","362739","0.0-77.0","83sokewkbz","61","NaN","<div style=""width:500px;"">
                            <p style=""font-size:50px; font-weight:bold;""
                            >angry</p>
                            <div style=""width:240px; margin: auto;"">
                                <img src=""images/map26_inferno_scaleDef_orientDef_090.png"" style= ""width:200px""alt=""img"">
                            </div>
                        </div>","200","","0","","","","images/map26_inferno_scaleDef_orientDef_090.png","angry","1","26","26","inferno","orientDef","scaleDef","090","",""
"","","","","","html-slider-response","84","364416","0.0-78.0","83sokewkbz","61","NaN","<div style=""width:500px;"">
                            <p style=""font-size:50px; font-weight:bold;""
                            >angry</p>
                            <div style=""width:240px; margin: auto;"">
                                <img src=""images/map05_PuRd_scaleDef_orientDef_090.png"" style= ""width:200px""alt=""img"">
                            </div>
                        </div>","200","","0","","","","images/map05_PuRd_scaleDef_orientDef_090.png","angry","1","05","05","PuRd","orientDef","scaleDef","090","",""
"","","","","","html-slider-response","85","366541","0.0-79.0","83sokewkbz","61","NaN","<div style=""width:500px;"">
                            <p style=""font-size:50px; font-weight:bold;""
                            >angry</p>
                            <div style=""width:240px; margin: auto;"">
                                <img src=""images/map27_Blues_scaleRev_orientMir_000.png"" style= ""width:200px""alt=""img"">
                            </div>
                        </div>","-200","","0","","","","images/map27_Blues_scaleRev_orientMir_000.png","angry","1","27","27","Blues","orientMir","scaleRev","000","",""
"","","","","","html-slider-response","86","368449","0.0-80.0","83sokewkbz","61","NaN","<div style=""width:500px;"">
                            <p style=""font-size:50px; font-weight:bold;""
                            >angry</p>
                            <div style=""width:240px; margin: auto;"">
                                <img src=""images/map26_Greys_scaleDef_orientMir_270.png"" style= ""width:200px""alt=""img"">
                            </div>
                        </div>","154","","0","","","","images/map26_Greys_scaleDef_orientMir_270.png","angry","1","26","26","Greys","orientMir","scaleDef","270","",""
"","","","","","html-slider-response","87","370540","0.0-81.0","83sokewkbz","61","NaN","<div style=""width:500px;"">
                            <p style=""font-size:50px; font-weight:bold;""
                            >angry</p>
                            <div style=""width:240px; margin: auto;"">
                                <img src=""images/map15_berlin_scaleRev_orientMir_000.png"" style= ""width:200px""alt=""img"">
                            </div>
                        </div>","200","","0","","","","images/map15_berlin_scaleRev_orientMir_000.png","angry","1","15","15","berlin","orientMir","scaleRev","000","",""
"","","","","","html-slider-response","88","392771","0.0-82.0","83sokewkbz","61","NaN","<div style=""width:500px;"">
                            <p style=""font-size:50px; font-weight:bold;""
                            >angry</p>
                            <div style=""width:240px; margin: auto;"">
                                <img src=""images/map07_YlGnBu_scaleDef_orientDef_270.png"" style= ""width:200px""alt=""img"">
                            </div>
                        </div>","-200","","0","","","","images/map07_YlGnBu_scaleDef_orientDef_270.png","angry","1","07","07","YlGnBu","orientDef","scaleDef","270","",""
"","","","","","html-slider-response","89","396895","0.0-83.0","83sokewkbz","61","NaN","<div style=""width:500px;"">
                            <p style=""font-size:50px; font-weight:bold;""
                            >angry</p>
                            <div style=""width:240px; margin: auto;"">
                                <img src=""images/map23_plasma_scaleDef_orientMir_270.png"" style= ""width:200px""alt=""img"">
                            </div>
                        </div>","200","","0","","","","images/map23_plasma_scaleDef_orientMir_270.png","angry","1","23","23","plasma","orientMir","scaleDef","270","",""
"","","","","","html-slider-response","90","400393","0.0-84.0","83sokewkbz","61","NaN","<div style=""width:500px;"">
                            <p style=""font-size:50px; font-weight:bold;""
                            >angry</p>
                            <div style=""width:240px; margin: auto;"">
                                <img src=""images/map02_YlOrBr_scaleRev_orientMir_000.png"" style= ""width:200px""alt=""img"">
                            </div>
                        </div>","200","","0","","","","images/map02_YlOrBr_scaleRev_orientMir_000.png","angry","1","02","02","YlOrBr","orientMir","scaleRev","000","",""
"","","","","","html-slider-response","91","402356","0.0-85.0","83sokewkbz","61","NaN","<div style=""width:500px;"">
                            <p style=""font-size:50px; font-weight:bold;""
                            >angry</p>
                            <div style=""width:240px; margin: auto;"">
                                <img src=""images/map26_inferno_scaleRev_orientDef_180.png"" style= ""width:200px""alt=""img"">
                            </div>
                        </div>","200","","0","","","","images/map26_inferno_scaleRev_orientDef_180.png","angry","1","26","26","inferno","orientDef","scaleRev","180","",""
"","","","","","html-slider-response","92","404286","0.0-86.0","83sokewkbz","61","NaN","<div style=""width:500px;"">
                            <p style=""font-size:50px; font-weight:bold;""
                            >angry</p>
                            <div style=""width:240px; margin: auto;"">
                                <img src=""images/map15_managua_scaleDef_orientMir_090.png"" style= ""width:200px""alt=""img"">
                            </div>
                        </div>","-96","","0","","","","images/map15_managua_scaleDef_orientMir_090.png","angry","1","15","15","managua","orientMir","scaleDef","090","",""
"","","","","","html-slider-response","93","406354","0.0-87.0","83sokewkbz","61","NaN","<div style=""width:500px;"">
                            <p style=""font-size:50px; font-weight:bold;""
                            >angry</p>
                            <div style=""width:240px; margin: auto;"">
                                <img src=""images/map23_vanimo_scaleRev_orientDef_000.png"" style= ""width:200px""alt=""img"">
                            </div>
                        </div>","145","","0","","","","images/map23_vanimo_scaleRev_orientDef_000.png","angry","1","23","23","vanimo","orientDef","scaleRev","000","",""
"","","","","","html-slider-response","94","408437","0.0-88.0","83sokewkbz","61","NaN","<div style=""width:500px;"">
                            <p style=""font-size:50px; font-weight:bold;""
                            >angry</p>
                            <div style=""width:240px; margin: auto;"">
                                <img src=""images/map15_bwr_scaleRev_orientDef_000.png"" style= ""width:200px""alt=""img"">
                            </div>
                        </div>","89","","0","","","","images/map15_bwr_scaleRev_orientDef_000.png","angry","1","15","15","bwr","orientDef","scaleRev","000","",""
"","","","","","html-slider-response","95","410133","0.0-89.0","83sokewkbz","61","NaN","<div style=""width:500px;"">
                            <p style=""font-size:50px; font-weight:bold;""
                            >angry</p>
                            <div style=""width:240px; margin: auto;"">
                                <img src=""images/map05_BuPu_scaleDef_orientMir_090.png"" style= ""width:200px""alt=""img"">
                            </div>
                        </div>","-151","","0","","","","images/map05_BuPu_scaleDef_orientMir_090.png","angry","1","05","05","BuPu","orientMir","scaleDef","090","",""
"","","","","","html-slider-response","96","412045","0.0-90.0","83sokewkbz","61","NaN","<div style=""width:500px;"">
                            <p style=""font-size:50px; font-weight:bold;""
                            >angry</p>
                            <div style=""width:240px; margin: auto;"">
                                <img src=""images/map15_vanimo_scaleDef_orientMir_270.png"" style= ""width:200px""alt=""img"">
                            </div>
                        </div>","98","","0","","","","images/map15_vanimo_scaleDef_orientMir_270.png","angry","1","15","15","vanimo","orientMir","scaleDef","270","",""
"","","","","","html-slider-response","97","413874","0.0-91.0","83sokewkbz","61","NaN","<div style=""width:500px;"">
                            <p style=""font-size:50px; font-weight:bold;""
                            >angry</p>
                            <div style=""width:240px; margin: auto;"">
                                <img src=""images/map12_RdGy_scaleRev_orientMir_000.png"" style= ""width:200px""alt=""img"">
                            </div>
                        </div>","169","","0","","","","images/map12_RdGy_scaleRev_orientMir_000.png","angry","1","12","12","RdGy","orientMir","scaleRev","000","",""
"","","","","","html-slider-response","98","417313","0.0-92.0","83sokewkbz","61","NaN","<div style=""width:500px;"">
                            <p style=""font-size:50px; font-weight:bold;""
                            >angry</p>
                            <div style=""width:240px; margin: auto;"">
                                <img src=""images/map15_managua_scaleRev_orientMir_180.png"" style= ""width:200px""alt=""img"">
                            </div>
                        </div>","-112","","0","","","","images/map15_managua_scaleRev_orientMir_180.png","angry","1","15","15","managua","orientMir","scaleRev","180","",""
"","","","","","html-slider-response","99","421612","0.0-93.0","83sokewkbz","61","NaN","<div style=""width:500px;"">
                            <p style=""font-size:50px; font-weight:bold;""
                            >angry</p>
                            <div style=""width:240px; margin: auto;"">
                                <img src=""images/map13_RdYlBu_scaleRev_orientDef_000.png"" style= ""width:200px""alt=""img"">
                            </div>
                        </div>","44","","0","","","","images/map13_RdYlBu_scaleRev_orientDef_000.png","angry","1","13","13","RdYlBu","orientDef","scaleRev","000","",""
"","","","","","html-slider-response","100","423670","0.0-94.0","83sokewkbz","61","NaN","<div style=""width:500px;"">
                            <p style=""font-size:50px; font-weight:bold;""
                            >angry</p>
                            <div style=""width:240px; margin: auto;"">
                                <img src=""images/map07_YlGnBu_scaleRev_orientMir_000.png"" style= ""width:200px""alt=""img"">
                            </div>
                        </div>","-200","","0","","","","images/map07_YlGnBu_scaleRev_orientMir_000.png","angry","1","07","07","YlGnBu","orientMir","scaleRev","000","",""
"","","","","","html-button-response","101","435141","0.0-95.0","83sokewkbz","61","10968","<p>Great Job! You've finished block 1.<br></br> You have 4 block(s) left to go.<br></br></p>","0","","","","","","","","","","","","","","","",""
"","","","","","html-button-response","102","436530","0.0-96.0","83sokewkbz","61","1388","<p>In this block of trials, you will be asked to rate how much you associate each map with:</p > <p style = 'font-size:150%; font-weight: bold'>sad</p><br></br>","0","","","","","","","","","","","","","","","",""
"","","","","","html-slider-response","103","438363","0.0-97.0","83sokewkbz","61","NaN","<div style=""width:500px;"">
                            <p style=""font-size:50px; font-weight:bold;""
                            >sad</p>
                            <div style=""width:240px; margin: auto;"">
                                <img src=""images/map13_coolwarm_scaleDef_orientMir_090.png"" style= ""width:200px""alt=""img"">
                            </div>
                        </div>","128","","0","","","","images/map13_coolwarm_scaleDef_orientMir_090.png","sad","1","13","13","coolwarm","orientMir","scaleDef","090","",""
"","","","","","html-slider-response","104","440789","0.0-98.0","83sokewkbz","61","NaN","<div style=""width:500px;"">
                            <p style=""font-size:50px; font-weight:bold;""
                            >sad</p>
                            <div style=""width:240px; margin: auto;"">
                                <img src=""images/map13_RdYlBu_scaleRev_orientDef_000.png"" style= ""width:200px""alt=""img"">
                            </div>
                        </div>","200","","0","","","","images/map13_RdYlBu_scaleRev_orientDef_000.png","sad","1","13","13","RdYlBu","orientDef","scaleRev","000","",""
"","","","","","html-slider-response","105","442719","0.0-99.0","83sokewkbz","61","NaN","<div style=""width:500px;"">
                            <p style=""font-size:50px; font-weight:bold;""
                            >sad</p>
                            <div style=""width:240px; margin: auto;"">
                                <img src=""images/map13_RdYlGn_scaleRev_orientDef_180.png"" style= ""width:200px""alt=""img"">
                            </div>
                        </div>","-174","","0","","","","images/map13_RdYlGn_scaleRev_orientDef_180.png","sad","1","13","13","RdYlGn","orientDef","scaleRev","180","",""
"","","","","","html-slider-response","106","446232","0.0-100.0","83sokewkbz","61","NaN","<div style=""width:500px;"">
                            <p style=""font-size:50px; font-weight:bold;""
                            >sad</p>
                            <div style=""width:240px; margin: auto;"">
                                <img src=""images/map26_inferno_scaleRev_orientDef_180.png"" style= ""width:200px""alt=""img"">
                            </div>
                        </div>","40","","0","","","","images/map26_inferno_scaleRev_orientDef_180.png","sad","1","26","26","inferno","orientDef","scaleRev","180","",""
"","","","","","html-slider-response","107","447943","0.0-101.0","83sokewkbz","61","NaN","<div style=""width:500px;"">
                            <p style=""font-size:50px; font-weight:bold;""
                            >sad</p>
                            <div style=""width:240px; margin: auto;"">
                                <img src=""images/map07_PuBu_scaleDef_orientDef_090.png"" style= ""width:200px""alt=""img"">
                            </div>
                        </div>","200","","0","","","","images/map07_PuBu_scaleDef_orientDef_090.png","sad","1","07","07","PuBu","orientDef","scaleDef","090","",""
"","","","","","html-slider-response","108","450363","0.0-102.0","83sokewkbz","61","NaN","<div style=""width:500px;"">
                            <p style=""font-size:50px; font-weight:bold;""
                            >sad</p>
                            <div style=""width:240px; margin: auto;"">
                                <img src=""images/map05_RdPu_scaleDef_orientDef_270.png"" style= ""width:200px""alt=""img"">
                            </div>
                        </div>","-66","","0","","","","images/map05_RdPu_scaleDef_orientDef_270.png","sad","1","05","05","RdPu","orientDef","scaleDef","270","",""
"","","","","","html-slider-response","109","456201","0.0-103.0","83sokewkbz","61","NaN","<div style=""width:500px;"">
                            <p style=""font-size:50px; font-weight:bold;""
                            >sad</p>
                            <div style=""width:240px; margin: auto;"">
                                <img src=""images/map23_turbo_scaleRev_orientMir_000.png"" style= ""width:200px""alt=""img"">
                            </div>
                        </div>","-35","","0","","","","images/map23_turbo_scaleRev_orientMir_000.png","sad","1","23","23","turbo","orientMir","scaleRev","000","",""
"","","","","","html-slider-response","110","457979","0.0-104.0","83sokewkbz","61","NaN","<div style=""width:500px;"">
                            <p style=""font-size:50px; font-weight:bold;""
                            >sad</p>
                            <div style=""width:240px; margin: auto;"">
                                <img src=""images/map05_BuPu_scaleDef_orientMir_090.png"" style= ""width:200px""alt=""img"">
                            </div>
                        </div>","200","","0","","","","images/map05_BuPu_scaleDef_orientMir_090.png","sad","1","05","05","BuPu","orientMir","scaleDef","090","",""
"","","","","","html-slider-response","111","460291","0.0-105.0","83sokewkbz","61","NaN","<div style=""width:500px;"">
                            <p style=""font-size:50px; font-weight:bold;""
                            >sad</p>
                            <div style=""width:240px; margin: auto;"">
                                <img src=""images/map12_BrBG_scaleRev_orientDef_000.png"" style= ""width:200px""alt=""img"">
                            </div>
                        </div>","-93","","0","","","","images/map12_BrBG_scaleRev_orientDef_000.png","sad","1","12","12","BrBG","orientDef","scaleRev","000","",""
"","","","","","html-slider-response","112","468189","0.0-106.0","83sokewkbz","61","NaN","<div style=""width:500px;"">
                            <p style=""font-size:50px; font-weight:bold;""
                            >sad</p>
                            <div style=""width:240px; margin: auto;"">
                                <img src=""images/map12_RdBu_scaleRev_orientMir_180.png"" style= ""width:200px""alt=""img"">
                            </div>
                        </div>","-49","","0","","","","images/map12_RdBu_scaleRev_orientMir_180.png","sad","1","12","12","RdBu","orientMir","scaleRev","180","",""
"","","","","","html-slider-response","113","470062","0.0-107.0","83sokewkbz","61","NaN","<div style=""width:500px;"">
                            <p style=""font-size:50px; font-weight:bold;""
                            >sad</p>
                            <div style=""width:240px; margin: auto;"">
                                <img src=""images/map12_RdYlBu_scaleDef_orientMir_270.png"" style= ""width:200px""alt=""img"">
                            </div>
                        </div>","-51","","0","","","","images/map12_RdYlBu_scaleDef_orientMir_270.png","sad","1","12","12","RdYlBu","orientMir","scaleDef","270","",""
"","","","","","html-slider-response","114","472186","0.0-108.0","83sokewkbz","61","NaN","<div style=""width:500px;"">
                            <p style=""font-size:50px; font-weight:bold;""
                            >sad</p>
                            <div style=""width:240px; margin: auto;"">
                                <img src=""images/map12_PuOr_scaleRev_orientDef_180.png"" style= ""width:200px""alt=""img"">
                            </div>
                        </div>","-60","","0","","","","images/map12_PuOr_scaleRev_orientDef_180.png","sad","1","12","12","PuOr","orientDef","scaleRev","180","",""
"","","","","","html-slider-response","115","477796","0.0-109.0","83sokewkbz","61","NaN","<div style=""width:500px;"">
                            <p style=""font-size:50px; font-weight:bold;""
                            >sad</p>
                            <div style=""width:240px; margin: auto;"">
                                <img src=""images/map15_managua_scaleRev_orientMir_180.png"" style= ""width:200px""alt=""img"">
                            </div>
                        </div>","126","","0","","","","images/map15_managua_scaleRev_orientMir_180.png","sad","1","15","15","managua","orientMir","scaleRev","180","",""
"","","","","","html-slider-response","116","481571","0.0-110.0","83sokewkbz","61","NaN","<div style=""width:500px;"">
                            <p style=""font-size:50px; font-weight:bold;""
                            >sad</p>
                            <div style=""width:240px; margin: auto;"">
                                <img src=""images/map27_Purples_scaleRev_orientDef_180.png"" style= ""width:200px""alt=""img"">
                            </div>
                        </div>","200","","0","","","","images/map27_Purples_scaleRev_orientDef_180.png","sad","1","27","27","Purples","orientDef","scaleRev","180","",""
"","","","","","html-slider-response","117","488553","0.0-111.0","83sokewkbz","61","NaN","<div style=""width:500px;"">
                            <p style=""font-size:50px; font-weight:bold;""
                            >sad</p>
                            <div style=""width:240px; margin: auto;"">
                                <img src=""images/map13_bwr_scaleDef_orientMir_270.png"" style= ""width:200px""alt=""img"">
                            </div>
                        </div>","72","","0","","","","images/map13_bwr_scaleDef_orientMir_270.png","sad","1","13","13","bwr","orientMir","scaleDef","270","",""
"","","","","","html-slider-response","118","490548","0.0-112.0","83sokewkbz","61","NaN","<div style=""width:500px;"">
                            <p style=""font-size:50px; font-weight:bold;""
                            >sad</p>
                            <div style=""width:240px; margin: auto;"">
                                <img src=""images/map12_RdGy_scaleDef_orientDef_270.png"" style= ""width:200px""alt=""img"">
                            </div>
                        </div>","-89","","0","","","","images/map12_RdGy_scaleDef_orientDef_270.png","sad","1","12","12","RdGy","orientDef","scaleDef","270","",""
"","","","","","html-slider-response","119","492641","0.0-113.0","83sokewkbz","61","NaN","<div style=""width:500px;"">
                            <p style=""font-size:50px; font-weight:bold;""
                            >sad</p>
                            <div style=""width:240px; margin: auto;"">
                                <img src=""images/map02_YlOrBr_scaleRev_orientMir_000.png"" style= ""width:200px""alt=""img"">
                            </div>
                        </div>","-200","","0","","","","images/map02_YlOrBr_scaleRev_orientMir_000.png","sad","1","02","02","YlOrBr","orientMir","scaleRev","000","",""
"","","","","","html-slider-response","120","494416","0.0-114.0","83sokewkbz","61","NaN","<div style=""width:500px;"">
                            <p style=""font-size:50px; font-weight:bold;""
                            >sad</p>
                            <div style=""width:240px; margin: auto;"">
                                <img src=""images/map05_PuRd_scaleDef_orientDef_090.png"" style= ""width:200px""alt=""img"">
                            </div>
                        </div>","-79","","0","","","","images/map05_PuRd_scaleDef_orientDef_090.png","sad","1","05","05","PuRd","orientDef","scaleDef","090","",""
"","","","","","html-slider-response","121","496323","0.0-115.0","83sokewkbz","61","NaN","<div style=""width:500px;"">
                            <p style=""font-size:50px; font-weight:bold;""
                            >sad</p>
                            <div style=""width:240px; margin: auto;"">
                                <img src=""images/map07_GnBu_scaleRev_orientDef_000.png"" style= ""width:200px""alt=""img"">
                            </div>
                        </div>","200","","0","","","","images/map07_GnBu_scaleRev_orientDef_000.png","sad","1","07","07","GnBu","orientDef","scaleRev","000","",""
"","","","","","html-slider-response","122","498624","0.0-116.0","83sokewkbz","61","NaN","<div style=""width:500px;"">
                            <p style=""font-size:50px; font-weight:bold;""
                            >sad</p>
                            <div style=""width:240px; margin: auto;"">
                                <img src=""images/map13_coolwarm_scaleRev_orientMir_180.png"" style= ""width:200px""alt=""img"">
                            </div>
                        </div>","-59","","0","","","","images/map13_coolwarm_scaleRev_orientMir_180.png","sad","1","13","13","coolwarm","orientMir","scaleRev","180","",""
"","","","","","html-slider-response","123","500721","0.0-117.0","83sokewkbz","61","NaN","<div style=""width:500px;"">
                            <p style=""font-size:50px; font-weight:bold;""
                            >sad</p>
                            <div style=""width:240px; margin: auto;"">
                                <img src=""images/map02_Reds_scaleDef_orientDef_090.png"" style= ""width:200px""alt=""img"">
                            </div>
                        </div>","-162","","0","","","","images/map02_Reds_scaleDef_orientDef_090.png","sad","1","02","02","Reds","orientDef","scaleDef","090","",""
"","","","","","html-slider-response","124","508047","0.0-118.0","83sokewkbz","61","NaN","<div style=""width:500px;"">
                            <p style=""font-size:50px; font-weight:bold;""
                            >sad</p>
                            <div style=""width:240px; margin: auto;"">
                                <img src=""images/map23_vanimo_scaleRev_orientDef_000.png"" style= ""width:200px""alt=""img"">
                            </div>
                        </div>","-175","","0","","","","images/map23_vanimo_scaleRev_orientDef_000.png","sad","1","23","23","vanimo","orientDef","scaleRev","000","",""
"","","","","","html-slider-response","125","510140","0.0-119.0","83sokewkbz","61","NaN","<div style=""width:500px;"">
                            <p style=""font-size:50px; font-weight:bold;""
                            >sad</p>
                            <div style=""width:240px; margin: auto;"">
                                <img src=""images/map05_GnBu_scaleDef_orientMir_270.png"" style= ""width:200px""alt=""img"">
                            </div>
                        </div>","200","","0","","","","images/map05_GnBu_scaleDef_orientMir_270.png","sad","1","05","05","GnBu","orientMir","scaleDef","270","",""
"","","","","","html-slider-response","126","513952","0.0-120.0","83sokewkbz","61","NaN","<div style=""width:500px;"">
                            <p style=""font-size:50px; font-weight:bold;""
                            >sad</p>
                            <div style=""width:240px; margin: auto;"">
                                <img src=""images/map26_inferno_scaleDef_orientDef_090.png"" style= ""width:200px""alt=""img"">
                            </div>
                        </div>","-126","","0","","","","images/map26_inferno_scaleDef_orientDef_090.png","sad","1","26","26","inferno","orientDef","scaleDef","090","",""
"","","","","","html-slider-response","127","516796","0.0-121.0","83sokewkbz","61","NaN","<div style=""width:500px;"">
                            <p style=""font-size:50px; font-weight:bold;""
                            >sad</p>
                            <div style=""width:240px; margin: auto;"">
                                <img src=""images/map13_RdYlGn_scaleDef_orientDef_090.png"" style= ""width:200px""alt=""img"">
                            </div>
                        </div>","-94","","0","","","","images/map13_RdYlGn_scaleDef_orientDef_090.png","sad","1","13","13","RdYlGn","orientDef","scaleDef","090","",""
"","","","","","html-slider-response","128","519209","0.0-122.0","83sokewkbz","61","NaN","<div style=""width:500px;"">
                            <p style=""font-size:50px; font-weight:bold;""
                            >sad</p>
                            <div style=""width:240px; margin: auto;"">
                                <img src=""images/map12_RdGy_scaleRev_orientMir_000.png"" style= ""width:200px""alt=""img"">
                            </div>
                        </div>","-177","","0","","","","images/map12_RdGy_scaleRev_orientMir_000.png","sad","1","12","12","RdGy","orientMir","scaleRev","000","",""
"","","","","","html-slider-response","129","523142","0.0-123.0","83sokewkbz","61","NaN","<div style=""width:500px;"">
                            <p style=""font-size:50px; font-weight:bold;""
                            >sad</p>
                            <div style=""width:240px; margin: auto;"">
                                <img src=""images/map10_PRGn_scaleDef_orientMir_090.png"" style= ""width:200px""alt=""img"">
                            </div>
                        </div>","-117","","0","","","","images/map10_PRGn_scaleDef_orientMir_090.png","sad","1","10","10","PRGn","orientMir","scaleDef","090","",""
"","","","","","html-slider-response","130","525024","0.0-124.0","83sokewkbz","61","NaN","<div style=""width:500px;"">
                            <p style=""font-size:50px; font-weight:bold;""
                            >sad</p>
                            <div style=""width:240px; margin: auto;"">
                                <img src=""images/map02_YlOrRd_scaleDef_orientMir_090.png"" style= ""width:200px""alt=""img"">
                            </div>
                        </div>","-200","","0","","","","images/map02_YlOrRd_scaleDef_orientMir_090.png","sad","1","02","02","YlOrRd","orientMir","scaleDef","090","",""
"","","","","","html-slider-response","131","526761","0.0-125.0","83sokewkbz","61","NaN","<div style=""width:500px;"">
                            <p style=""font-size:50px; font-weight:bold;""
                            >sad</p>
                            <div style=""width:240px; margin: auto;"">
                                <img src=""images/map05_PuRd_scaleRev_orientDef_180.png"" style= ""width:200px""alt=""img"">
                            </div>
                        </div>","-148","","0","","","","images/map05_PuRd_scaleRev_orientDef_180.png","sad","1","05","05","PuRd","orientDef","scaleRev","180","",""
"","","","","","html-slider-response","132","528862","0.0-126.0","83sokewkbz","61","NaN","<div style=""width:500px;"">
                            <p style=""font-size:50px; font-weight:bold;""
                            >sad</p>
                            <div style=""width:240px; margin: auto;"">
                                <img src=""images/map27_Greens_scaleRev_orientMir_180.png"" style= ""width:200px""alt=""img"">
                            </div>
                        </div>","-134","","0","","","","images/map27_Greens_scaleRev_orientMir_180.png","sad","1","27","27","Greens","orientMir","scaleRev","180","",""
"","","","","","html-slider-response","133","531478","0.0-127.0","83sokewkbz","61","NaN","<div style=""width:500px;"">
                            <p style=""font-size:50px; font-weight:bold;""
                            >sad</p>
                            <div style=""width:240px; margin: auto;"">
                                <img src=""images/map27_Greys_scaleRev_orientDef_000.png"" style= ""width:200px""alt=""img"">
                            </div>
                        </div>","200","","0","","","","images/map27_Greys_scaleRev_orientDef_000.png","sad","1","27","27","Greys","orientDef","scaleRev","000","",""
"","","","","","html-slider-response","134","535291","0.0-128.0","83sokewkbz","61","NaN","<div style=""width:500px;"">
                            <p style=""font-size:50px; font-weight:bold;""
                            >sad</p>
                            <div style=""width:240px; margin: auto;"">
                                <img src=""images/map15_berlin_scaleRev_orientMir_000.png"" style= ""width:200px""alt=""img"">
                            </div>
                        </div>","54","","0","","","","images/map15_berlin_scaleRev_orientMir_000.png","sad","1","15","15","berlin","orientMir","scaleRev","000","",""
"","","","","","html-slider-response","135","539563","0.0-129.0","83sokewkbz","61","NaN","<div style=""width:500px;"">
                            <p style=""font-size:50px; font-weight:bold;""
                            >sad</p>
                            <div style=""width:240px; margin: auto;"">
                                <img src=""images/map05_OrRd_scaleRev_orientDef_000.png"" style= ""width:200px""alt=""img"">
                            </div>
                        </div>","-200","","0","","","","images/map05_OrRd_scaleRev_orientDef_000.png","sad","1","05","05","OrRd","orientDef","scaleRev","000","",""
"","","","","","html-slider-response","136","541744","0.0-130.0","83sokewkbz","61","NaN","<div style=""width:500px;"">
                            <p style=""font-size:50px; font-weight:bold;""
                            >sad</p>
                            <div style=""width:240px; margin: auto;"">
                                <img src=""images/map10_PRGn_scaleRev_orientMir_180.png"" style= ""width:200px""alt=""img"">
                            </div>
                        </div>","-122","","0","","","","images/map10_PRGn_scaleRev_orientMir_180.png","sad","1","10","10","PRGn","orientMir","scaleRev","180","",""
"","","","","","html-slider-response","137","544199","0.0-131.0","83sokewkbz","61","NaN","<div style=""width:500px;"">
                            <p style=""font-size:50px; font-weight:bold;""
                            >sad</p>
                            <div style=""width:240px; margin: auto;"">
                                <img src=""images/map15_vanimo_scaleDef_orientMir_270.png"" style= ""width:200px""alt=""img"">
                            </div>
                        </div>","-124","","0","","","","images/map15_vanimo_scaleDef_orientMir_270.png","sad","1","15","15","vanimo","orientMir","scaleDef","270","",""
"","","","","","html-slider-response","138","546202","0.0-132.0","83sokewkbz","61","NaN","<div style=""width:500px;"">
                            <p style=""font-size:50px; font-weight:bold;""
                            >sad</p>
                            <div style=""width:240px; margin: auto;"">
                                <img src=""images/map07_YlGnBu_scaleRev_orientMir_000.png"" style= ""width:200px""alt=""img"">
                            </div>
                        </div>","200","","0","","","","images/map07_YlGnBu_scaleRev_orientMir_000.png","sad","1","07","07","YlGnBu","orientMir","scaleRev","000","",""
"","","","","","html-slider-response","139","549263","0.0-133.0","83sokewkbz","61","NaN","<div style=""width:500px;"">
                            <p style=""font-size:50px; font-weight:bold;""
                            >sad</p>
                            <div style=""width:240px; margin: auto;"">
                                <img src=""images/map26_cividis_scaleRev_orientMir_180.png"" style= ""width:200px""alt=""img"">
                            </div>
                        </div>","48","","0","","","","images/map26_cividis_scaleRev_orientMir_180.png","sad","1","26","26","cividis","orientMir","scaleRev","180","",""
"","","","","","html-slider-response","140","555651","0.0-134.0","83sokewkbz","61","NaN","<div style=""width:500px;"">
                            <p style=""font-size:50px; font-weight:bold;""
                            >sad</p>
                            <div style=""width:240px; margin: auto;"">
                                <img src=""images/map23_plasma_scaleDef_orientMir_270.png"" style= ""width:200px""alt=""img"">
                            </div>
                        </div>","-133","","0","","","","images/map23_plasma_scaleDef_orientMir_270.png","sad","1","23","23","plasma","orientMir","scaleDef","270","",""
"","","","","","html-slider-response","141","557896","0.0-135.0","83sokewkbz","61","NaN","<div style=""width:500px;"">
                            <p style=""font-size:50px; font-weight:bold;""
                            >sad</p>
                            <div style=""width:240px; margin: auto;"">
                                <img src=""images/map23_gist_earth_scaleDef_orientDef_090.png"" style= ""width:200px""alt=""img"">
                            </div>
                        </div>","160","","0","","","","images/map23_gist_earth_scaleDef_orientDef_090.png","sad","1","23","23","gist","scaleDef","earth","orientDef","",""
"","","","","","html-slider-response","142","560472","0.0-136.0","83sokewkbz","61","NaN","<div style=""width:500px;"">
                            <p style=""font-size:50px; font-weight:bold;""
                            >sad</p>
                            <div style=""width:240px; margin: auto;"">
                                <img src=""images/map10_BuGn_scaleRev_orientDef_000.png"" style= ""width:200px""alt=""img"">
                            </div>
                        </div>","105","","0","","","","images/map10_BuGn_scaleRev_orientDef_000.png","sad","1","10","10","BuGn","orientDef","scaleRev","000","",""
"","","","","","html-button-response","143","567651","0.0-137.0","83sokewkbz","61","6676","<p>You are doing great!<br></br> You are halway done with the current block. When you are ready to continue, click the 'Continue' button.</p>","0","","","","","","","","","","","","","","","",""
"","","","","","html-slider-response","144","569480","0.0-138.0","83sokewkbz","61","NaN","<div style=""width:500px;"">
                            <p style=""font-size:50px; font-weight:bold;""
                            >sad</p>
                            <div style=""width:240px; margin: auto;"">
                                <img src=""images/map23_viridis_scaleDef_orientMir_090.png"" style= ""width:200px""alt=""img"">
                            </div>
                        </div>","110","","0","","","","images/map23_viridis_scaleDef_orientMir_090.png","sad","1","23","23","viridis","orientMir","scaleDef","090","",""
"","","","","","html-slider-response","145","571513","0.0-139.0","83sokewkbz","61","NaN","<div style=""width:500px;"">
                            <p style=""font-size:50px; font-weight:bold;""
                            >sad</p>
                            <div style=""width:240px; margin: auto;"">
                                <img src=""images/map10_PiYG_scaleDef_orientDef_270.png"" style= ""width:200px""alt=""img"">
                            </div>
                        </div>","-137","","0","","","","images/map10_PiYG_scaleDef_orientDef_270.png","sad","1","10","10","PiYG","orientDef","scaleDef","270","",""
"","","","","","html-slider-response","146","573511","0.0-140.0","83sokewkbz","61","NaN","<div style=""width:500px;"">
                            <p style=""font-size:50px; font-weight:bold;""
                            >sad</p>
                            <div style=""width:240px; margin: auto;"">
                                <img src=""images/map15_seismic_scaleDef_orientDef_090.png"" style= ""width:200px""alt=""img"">
                            </div>
                        </div>","-125","","0","","","","images/map15_seismic_scaleDef_orientDef_090.png","sad","1","15","15","seismic","orientDef","scaleDef","090","",""
"","","","","","html-slider-response","147","575664","0.0-141.0","83sokewkbz","61","NaN","<div style=""width:500px;"">
                            <p style=""font-size:50px; font-weight:bold;""
                            >sad</p>
                            <div style=""width:240px; margin: auto;"">
                                <img src=""images/map12_RdBu_scaleDef_orientMir_090.png"" style= ""width:200px""alt=""img"">
                            </div>
                        </div>","-94","","0","","","","images/map12_RdBu_scaleDef_orientMir_090.png","sad","1","12","12","RdBu","orientMir","scaleDef","090","",""
"","","","","","html-slider-response","148","577684","0.0-142.0","83sokewkbz","61","NaN","<div style=""width:500px;"">
                            <p style=""font-size:50px; font-weight:bold;""
                            >sad</p>
                            <div style=""width:240px; margin: auto;"">
                                <img src=""images/map02_Oranges_scaleRev_orientDef_000.png"" style= ""width:200px""alt=""img"">
                            </div>
                        </div>","-200","","0","","","","images/map02_Oranges_scaleRev_orientDef_000.png","sad","1","02","02","Oranges","orientDef","scaleRev","000","",""
"","","","","","html-slider-response","149","579491","0.0-143.0","83sokewkbz","61","NaN","<div style=""width:500px;"">
                            <p style=""font-size:50px; font-weight:bold;""
                            >sad</p>
                            <div style=""width:240px; margin: auto;"">
                                <img src=""images/map27_Oranges_scaleDef_orientMir_270.png"" style= ""width:200px""alt=""img"">
                            </div>
                        </div>","-200","","0","","","","images/map27_Oranges_scaleDef_orientMir_270.png","sad","1","27","27","Oranges","orientMir","scaleDef","270","",""
"","","","","","html-slider-response","150","581728","0.0-144.0","83sokewkbz","61","NaN","<div style=""width:500px;"">
                            <p style=""font-size:50px; font-weight:bold;""
                            >sad</p>
                            <div style=""width:240px; margin: auto;"">
                                <img src=""images/map10_PiYG_scaleRev_orientMir_000.png"" style= ""width:200px""alt=""img"">
                            </div>
                        </div>","-90","","0","","","","images/map10_PiYG_scaleRev_orientMir_000.png","sad","1","10","10","PiYG","orientMir","scaleRev","000","",""
"","","","","","html-slider-response","151","583797","0.0-145.0","83sokewkbz","61","NaN","<div style=""width:500px;"">
                            <p style=""font-size:50px; font-weight:bold;""
                            >sad</p>
                            <div style=""width:240px; margin: auto;"">
                                <img src=""images/map05_RdPu_scaleRev_orientMir_000.png"" style= ""width:200px""alt=""img"">
                            </div>
                        </div>","-146","","0","","","","images/map05_RdPu_scaleRev_orientMir_000.png","sad","1","05","05","RdPu","orientMir","scaleRev","000","",""
"","","","","","html-slider-response","152","585574","0.0-146.0","83sokewkbz","61","NaN","<div style=""width:500px;"">
                            <p style=""font-size:50px; font-weight:bold;""
                            >sad</p>
                            <div style=""width:240px; margin: auto;"">
                                <img src=""images/map02_YlOrBr_scaleDef_orientDef_270.png"" style= ""width:200px""alt=""img"">
                            </div>
                        </div>","-163","","0","","","","images/map02_YlOrBr_scaleDef_orientDef_270.png","sad","1","02","02","YlOrBr","orientDef","scaleDef","270","",""
"","","","","","html-slider-response","153","587609","0.0-147.0","83sokewkbz","61","NaN","<div style=""width:500px;"">
                            <p style=""font-size:50px; font-weight:bold;""
                            >sad</p>
                            <div style=""width:240px; margin: auto;"">
                                <img src=""images/map02_Reds_scaleRev_orientDef_180.png"" style= ""width:200px""alt=""img"">
                            </div>
                        </div>","-138","","0","","","","images/map02_Reds_scaleRev_orientDef_180.png","sad","1","02","02","Reds","orientDef","scaleRev","180","",""
"","","","","","html-slider-response","154","589452","0.0-148.0","83sokewkbz","61","NaN","<div style=""width:500px;"">
                            <p style=""font-size:50px; font-weight:bold;""
                            >sad</p>
                            <div style=""width:240px; margin: auto;"">
                                <img src=""images/map05_BuPu_scaleRev_orientMir_180.png"" style= ""width:200px""alt=""img"">
                            </div>
                        </div>","200","","0","","","","images/map05_BuPu_scaleRev_orientMir_180.png","sad","1","05","05","BuPu","orientMir","scaleRev","180","",""
"","","","","","html-slider-response","155","591678","0.0-149.0","83sokewkbz","61","NaN","<div style=""width:500px;"">
                            <p style=""font-size:50px; font-weight:bold;""
                            >sad</p>
                            <div style=""width:240px; margin: auto;"">
                                <img src=""images/map27_Purples_scaleDef_orientDef_090.png"" style= ""width:200px""alt=""img"">
                            </div>
                        </div>","200","","0","","","","images/map27_Purples_scaleDef_orientDef_090.png","sad","1","27","27","Purples","orientDef","scaleDef","090","",""
"","","","","","html-slider-response","156","593427","0.0-150.0","83sokewkbz","61","NaN","<div style=""width:500px;"">
                            <p style=""font-size:50px; font-weight:bold;""
                            >sad</p>
                            <div style=""width:240px; margin: auto;"">
                                <img src=""images/map15_managua_scaleDef_orientMir_090.png"" style= ""width:200px""alt=""img"">
                            </div>
                        </div>","92","","0","","","","images/map15_managua_scaleDef_orientMir_090.png","sad","1","15","15","managua","orientMir","scaleDef","090","",""
"","","","","","html-slider-response","157","595313","0.0-151.0","83sokewkbz","61","NaN","<div style=""width:500px;"">
                            <p style=""font-size:50px; font-weight:bold;""
                            >sad</p>
                            <div style=""width:240px; margin: auto;"">
                                <img src=""images/map27_Blues_scaleDef_orientDef_270.png"" style= ""width:200px""alt=""img"">
                            </div>
                        </div>","200","","0","","","","images/map27_Blues_scaleDef_orientDef_270.png","sad","1","27","27","Blues","orientDef","scaleDef","270","",""
"","","","","","html-slider-response","158","597607","0.0-152.0","83sokewkbz","61","NaN","<div style=""width:500px;"">
                            <p style=""font-size:50px; font-weight:bold;""
                            >sad</p>
                            <div style=""width:240px; margin: auto;"">
                                <img src=""images/map26_cividis_scaleDef_orientMir_090.png"" style= ""width:200px""alt=""img"">
                            </div>
                        </div>","90","","0","","","","images/map26_cividis_scaleDef_orientMir_090.png","sad","1","26","26","cividis","orientMir","scaleDef","090","",""
"","","","","","html-slider-response","159","599543","0.0-153.0","83sokewkbz","61","NaN","<div style=""width:500px;"">
                            <p style=""font-size:50px; font-weight:bold;""
                            >sad</p>
