"success","timeout","failed_images","failed_audio","failed_video","trial_type","trial_index","time_elapsed","internal_node_id","subject_id","condition_num","rt","stimulus","response","question_order","slider_start","practiceTrial","practiceTrialNum","correct","image_path","concept","repetition","map_id","map_num","scale_name","orientation_code","mapping_code","rotation_code","ishihara_plate","correct_response"
"true","false","[]","[]","[]","preload","0","383","0.0-0.0","8klzckev88","57","","","","","","","","","","","","","","","","","","",""
"","","","","","html-button-response","1","5446","0.0-1.0","8klzckev88","57","5060","Welcome to our experiment!<p>At the bottom of this screen, you will see a button that says ""Begin Experiment"".<br>Please only click that button when you are ready to complete the 30 minute experiment in one sitting.</p><p> Once you click that button, it will not be possible to restart the experiment.","0","","","","","","","","","","","","","","","",""
"true","","","","","fullscreen","2","8428","0.0-2.0","8klzckev88","57","1979","","","","","","","","","","","","","","","","","",""
"","","","","","survey-multi-select","3","31527","0.0-3.0","8klzckev88","57","23096","","{""Consent"":[""<strong>I consent</strong>""]}","[0]","","","","","","","","","","","","","","",""
"","","","","","html-button-response","4","32676","0.0-4.0","8klzckev88","57","1147","Welcome! <p> This experiment involves two parts: demographic information, followed by the experimental task.<p> It will take about 30 minutes to complete both parts.","0","","","","","","","","","","","","","","","",""
"","","","","","survey-text","5","51143","0.0-5.0","8klzckev88","57","18462","","{""Age"":""18"",""Gender"":""Female"",""Race/ethnicity"":""White/Black"",""Languages"":""English, Spanish""}","","","","","","","","","","","","","","","",""
"","","","","","html-slider-response","6","67342","0.0-6.0","8klzckev88","57","16196","<div style='text-align:left; font-size:20px; line-height:25px; width: 1000px;'>
                                During this experiment you will be asked to rate how much you associate maps with                    different concepts.<br> Below, you can see some examples of the maps you will be asked to rate. Above the maps
                    is the list of concepts.<br>You will be asked                    to rate how much you associate each map with each concept on a scale from 'not at all' to 'very much' like the
                    one below. <br><br>
                    Now, please look at the list of concepts and maps. For each concept, think about the map you associate 'very
                    much' with the concept.<br>                     When you see that map during the experiment, please rate it near the 'very much' endpoint of the
                    scale.<br>Now, please think about which map you associate 'not at all'                     with each concept. When you see that map during the experiment, please rate it near the 'not at all' endpoint
                    of the scale.<br>
                    Please use the full range of the scale. That is, if a map is somewhat associated with the concept, you would
                    click partway between the middle point and right side of the scale.                    You will be asked to rate each map for a given concept before moving on to the next concept.<br>Press the
                    'Continue' button for instructions on how to use the slider.                    <br>
                </div>

                <div style=""width: 500px; margin: 0 auto;"">
                    <!-- Centered text paragraphs -->
                    <div style=""text-align: center; width: 500px;"">
                        <p style=""font-size:25px; line-height:15px;"">
                            disgust&nbsp;&nbsp;&nbsp;&nbsp;
                            fearful&nbsp;&nbsp;&nbsp;&nbsp;
                            happy&nbsp;&nbsp;&nbsp;&nbsp;
                            sad&nbsp;&nbsp;&nbsp;&nbsp;
                            angry
                        </p>
                        <!-- <p style=""font-size:20px; line-height:15px;"">fearful</p>
                        <p style=""font-size:20px;line-height:15px;"">happy</p>
                        <p style=""font-size:20px;line-height:15px;"">sad</p>
                        <p style=""font-size:20px;line-height:15px;"">angry</p> -->
                    </div>
            

                    <!-- Grid section -->
                   <div style=""display: flex; justify-content: center; padding-top: 15px;"">
                    <div style=""display: grid; grid-template-columns: repeat(10, 55px); grid-gap: 5px; width: auto;"">
                        <img src=""images/map07_BuPu_scaleDef_orientMir_270.png"" alt=""map"" style=""width: 100%;""><img src=""images/map26_turbo_scaleDef_orientMir_090.png"" alt=""map"" style=""width: 100%;""><img src=""images/map26_viridis_scaleDef_orientMir_270.png"" alt=""map"" style=""width: 100%;""><img src=""images/map27_cividis_scaleDef_orientMir_270.png"" alt=""map"" style=""width: 100%;""><img src=""images/map23_bwr_scaleRev_orientDef_180.png"" alt=""map"" style=""width: 100%;""><img src=""images/map05_Oranges_scaleDef_orientDef_090.png"" alt=""map"" style=""width: 100%;""><img src=""images/map12_PRGn_scaleDef_orientMir_270.png"" alt=""map"" style=""width: 100%;""><img src=""images/map07_RdPu_scaleDef_orientMir_090.png"" alt=""map"" style=""width: 100%;""><img src=""images/map26_managua_scaleRev_orientDef_000.png"" alt=""map"" style=""width: 100%;""><img src=""images/map07_OrRd_scaleRev_orientDef_180.png"" alt=""map"" style=""width: 100%;""><img src=""images/map23_seismic_scaleRev_orientMir_000.png"" alt=""map"" style=""width: 100%;""><img src=""images/map13_BrBG_scaleDef_orientDef_090.png"" alt=""map"" style=""width: 100%;""><img src=""images/map02_Blues_scaleDef_orientMir_090.png"" alt=""map"" style=""width: 100%;""><img src=""images/map12_YlGn_scaleRev_orientMir_000.png"" alt=""map"" style=""width: 100%;""><img src=""images/map23_coolwarm_scaleRev_orientDef_000.png"" alt=""map"" style=""width: 100%;""><img src=""images/map15_RdYlGn_scaleRev_orientMir_000.png"" alt=""map"" style=""width: 100%;""><img src=""images/map12_BuGn_scaleDef_orientDef_090.png"" alt=""map"" style=""width: 100%;""><img src=""images/map15_RdYlBu_scaleDef_orientDef_090.png"" alt=""map"" style=""width: 100%;""><img src=""images/map12_PuBuGn_scaleRev_orientDef_000.png"" alt=""map"" style=""width: 100%;""><img src=""images/map26_vanimo_scaleRev_orientDef_180.png"" alt=""map"" style=""width: 100%;""><img src=""images/map02_Greys_scaleRev_orientDef_180.png"" alt=""map"" style=""width: 100%;""><img src=""images/map02_Purples_scaleRev_orientMir_000.png"" alt=""map"" style=""width: 100%;""><img src=""images/map05_Reds_scaleRev_orientMir_000.png"" alt=""map"" style=""width: 100%;""><img src=""images/map23_berlin_scaleRev_orientMir_180.png"" alt=""map"" style=""width: 100%;""><img src=""images/map10_PuBu_scaleRev_orientMir_000.png"" alt=""map"" style=""width: 100%;""><img src=""images/map27_plasma_scaleDef_orientDef_090.png"" alt=""map"" style=""width: 100%;""><img src=""images/map27_inferno_scaleDef_orientDef_270.png"" alt=""map"" style=""width: 100%;""><img src=""images/map10_GnBu_scaleDef_orientDef_090.png"" alt=""map"" style=""width: 100%;""><img src=""images/map13_RdBu_scaleDef_orientMir_270.png"" alt=""map"" style=""width: 100%;""><img src=""images/map07_YlOrRd_scaleRev_orientDef_000.png"" alt=""map"" style=""width: 100%;""><img src=""images/map05_Greens_scaleRev_orientDef_000.png"" alt=""map"" style=""width: 100%;""><img src=""images/map07_PuRd_scaleRev_orientMir_000.png"" alt=""map"" style=""width: 100%;""><img src=""images/map12_PiYG_scaleDef_orientMir_090.png"" alt=""map"" style=""width: 100%;""><img src=""images/map15_Spectral_scaleRev_orientMir_180.png"" alt=""map"" style=""width: 100%;""><img src=""images/map10_YlGnBu_scaleDef_orientMir_090.png"" alt=""map"" style=""width: 100%;""><img src=""images/map13_PuOr_scaleDef_orientDef_270.png"" alt=""map"" style=""width: 100%;""><img src=""images/map05_YlOrBr_scaleDef_orientMir_090.png"" alt=""map"" style=""width: 100%;""><img src=""images/map27_magma_scaleDef_orientMir_090.png"" alt=""map"" style=""width: 100%;""><img src=""images/map26_gist_earth_scaleDef_orientDef_270.png"" alt=""map"" style=""width: 100%;""><img src=""images/map13_RdGy_scaleDef_orientMir_090.png"" alt=""map"" style=""width: 100%;"">
                    </div>
                </div>

                    <!-- Clear floats -->
                    <div style=""clear: both;""></div>
                </div>
                            ","null","","0","true","","","","","","","","","","","","",""
"","","","","","html-button-response","7","68642","0.0-7.0","8klzckev88","57","1299","<div style=""width:800px;""><p style=""text-align:left"">To move the slider, click and drag your cursor to the location of the scale where you would like to make your rating and then let go. When you let go of the slider, your response will be recorded and the next trial will begin. <br>
                    We are interested in your initial impressions of each map for the given concept, so please go with your first intuition. <br>
                    Before you begin the experiment, there will be four training trials for you to practice using the scale. <br>
                     When you are ready to start the training trials, please click ""Continue"".</p><br></div>","0","","","","","","","","","","","","","","","",""
"","","","","","html-slider-response","8","71755","0.0-8.0-0.0","8klzckev88","57","NaN","<div style=""width:500px;"">
                                    <p style=""font-size:25px;"">Please move the slider all the way to the <br> right endpoint of the scale</p>

                                    </div>
                                </div>","200","","0","true","0","true","","","","","","","","","","",""
"","","","","","html-button-response","9","73791","0.0-8.0-1.0","8klzckev88","57","1533","<p align='center'><b>Good job!</b> Click on 'Continue' to proceed.</p>","0","","","","","","","","","","","","","","","",""
"","","","","","html-slider-response","10","76754","0.0-9.0-0.0","8klzckev88","57","NaN","<div style=""width:500px;"">
                                    <p style=""font-size:25px;"">Please move the slider all the way to the <br> left endpoint of the scale</p>

                                    </div>
                                </div>","-200","","0","true","1","true","","","","","","","","","","",""
"","","","","","html-button-response","11","78008","0.0-9.0-1.0","8klzckev88","57","753","<p align='center'><b>Good job!</b> Click on 'Continue' to proceed.</p>","0","","","","","","","","","","","","","","","",""
"","","","","","html-slider-response","12","84687","0.0-10.0-0.0","8klzckev88","57","NaN","<div style=""width:500px;"">
                                    <p style=""font-size:25px;"">Please move the slider halfway between the center and right endpoint of the scale</p>

                                    </div>
                                </div>","102","","0","true","2","true","","","","","","","","","","",""
"","","","","","html-button-response","13","85808","0.0-10.0-1.0","8klzckev88","57","619","<p align='center'><b>Good job!</b> Click on 'Continue' to proceed.</p>","0","","","","","","","","","","","","","","","",""
"","","","","","html-slider-response","14","87770","0.0-11.0-0.0","8klzckev88","57","NaN","<div style=""width:500px;"">
                                    <p style=""font-size:25px;"">Please move the slider halfway between the center and left endpoint of the scale</p>

                                    </div>
                                </div>","-101","","0","true","3","true","","","","","","","","","","",""
"","","","","","html-button-response","15","88825","0.0-11.0-1.0","8klzckev88","57","553","<p align='center'><b>Good job!</b> Click on 'Continue' to proceed.</p>","0","","","","","","","","","","","","","","","",""
"","","","","","html-button-response","16","90175","0.0-12.0","8klzckev88","57","1349","<p>Great job! You've completed the practice trials. Now you will begin the main task.</p>","0","","","","","","","","","","","","","","","",""
"","","","","","html-button-response","17","91791","0.0-13.0","8klzckev88","57","1615","<p>In this block of trials, you will be asked to rate how much you associate each map with:</p > <p style = 'font-size:150%; font-weight: bold'>disgust</p><br></br>","0","","","","","","","","","","","","","","","",""
"","","","","","html-slider-response","18","95136","0.0-14.0","8klzckev88","57","NaN","<div style=""width:500px;"">
                            <p style=""font-size:50px; font-weight:bold;""
                            >disgust</p>
                            <div style=""width:240px; margin: auto;"">
                                <img src=""images/map07_RdPu_scaleRev_orientMir_180.png"" style= ""width:200px""alt=""img"">
                            </div>
                        </div>","82","","0","","","","images/map07_RdPu_scaleRev_orientMir_180.png","disgust","1","07","07","RdPu","orientMir","scaleRev","180","",""
"","","","","","html-slider-response","19","97936","0.0-15.0","8klzckev88","57","NaN","<div style=""width:500px;"">
                            <p style=""font-size:50px; font-weight:bold;""
                            >disgust</p>
                            <div style=""width:240px; margin: auto;"">
                                <img src=""images/map13_PRGn_scaleRev_orientDef_000.png"" style= ""width:200px""alt=""img"">
                            </div>
                        </div>","200","","0","","","","images/map13_PRGn_scaleRev_orientDef_000.png","disgust","1","13","13","PRGn","orientDef","scaleRev","000","",""
"","","","","","html-slider-response","20","100771","0.0-16.0","8klzckev88","57","NaN","<div style=""width:500px;"">
                            <p style=""font-size:50px; font-weight:bold;""
                            >disgust</p>
                            <div style=""width:240px; margin: auto;"">
                                <img src=""images/map13_RdGy_scaleDef_orientMir_090.png"" style= ""width:200px""alt=""img"">
                            </div>
                        </div>","-24","","0","","","","images/map13_RdGy_scaleDef_orientMir_090.png","disgust","1","13","13","RdGy","orientMir","scaleDef","090","",""
"","","","","","html-slider-response","21","102902","0.0-17.0","8klzckev88","57","NaN","<div style=""width:500px;"">
                            <p style=""font-size:50px; font-weight:bold;""
                            >disgust</p>
                            <div style=""width:240px; margin: auto;"">
                                <img src=""images/map13_RdBu_scaleDef_orientMir_270.png"" style= ""width:200px""alt=""img"">
                            </div>
                        </div>","-74","","0","","","","images/map13_RdBu_scaleDef_orientMir_270.png","disgust","1","13","13","RdBu","orientMir","scaleDef","270","",""
"","","","","","html-slider-response","22","105370","0.0-18.0","8klzckev88","57","NaN","<div style=""width:500px;"">
                            <p style=""font-size:50px; font-weight:bold;""
                            >disgust</p>
                            <div style=""width:240px; margin: auto;"">
                                <img src=""images/map15_RdYlGn_scaleRev_orientMir_000.png"" style= ""width:200px""alt=""img"">
                            </div>
                        </div>","33","","0","","","","images/map15_RdYlGn_scaleRev_orientMir_000.png","disgust","1","15","15","RdYlGn","orientMir","scaleRev","000","",""
"","","","","","html-slider-response","23","107569","0.0-19.0","8klzckev88","57","NaN","<div style=""width:500px;"">
                            <p style=""font-size:50px; font-weight:bold;""
                            >disgust</p>
                            <div style=""width:240px; margin: auto;"">
                                <img src=""images/map07_RdPu_scaleDef_orientMir_090.png"" style= ""width:200px""alt=""img"">
                            </div>
                        </div>","113","","0","","","","images/map07_RdPu_scaleDef_orientMir_090.png","disgust","1","07","07","RdPu","orientMir","scaleDef","090","",""
"","","","","","html-slider-response","24","110137","0.0-20.0","8klzckev88","57","NaN","<div style=""width:500px;"">
                            <p style=""font-size:50px; font-weight:bold;""
                            >disgust</p>
                            <div style=""width:240px; margin: auto;"">
                                <img src=""images/map12_YlGn_scaleDef_orientDef_270.png"" style= ""width:200px""alt=""img"">
                            </div>
                        </div>","182","","0","","","","images/map12_YlGn_scaleDef_orientDef_270.png","disgust","1","12","12","YlGn","orientDef","scaleDef","270","",""
"","","","","","html-slider-response","25","112836","0.0-21.0","8klzckev88","57","NaN","<div style=""width:500px;"">
                            <p style=""font-size:50px; font-weight:bold;""
                            >disgust</p>
                            <div style=""width:240px; margin: auto;"">
                                <img src=""images/map05_Greens_scaleRev_orientDef_000.png"" style= ""width:200px""alt=""img"">
                            </div>
                        </div>","183","","0","","","","images/map05_Greens_scaleRev_orientDef_000.png","disgust","1","05","05","Greens","orientDef","scaleRev","000","",""
"","","","","","html-slider-response","26","115269","0.0-22.0","8klzckev88","57","NaN","<div style=""width:500px;"">
                            <p style=""font-size:50px; font-weight:bold;""
                            >disgust</p>
                            <div style=""width:240px; margin: auto;"">
                                <img src=""images/map13_PuOr_scaleDef_orientDef_270.png"" style= ""width:200px""alt=""img"">
                            </div>
                        </div>","20","","0","","","","images/map13_PuOr_scaleDef_orientDef_270.png","disgust","1","13","13","PuOr","orientDef","scaleDef","270","",""
"","","","","","html-slider-response","27","117686","0.0-23.0","8klzckev88","57","NaN","<div style=""width:500px;"">
                            <p style=""font-size:50px; font-weight:bold;""
                            >disgust</p>
                            <div style=""width:240px; margin: auto;"">
                                <img src=""images/map02_Greys_scaleDef_orientDef_090.png"" style= ""width:200px""alt=""img"">
                            </div>
                        </div>","-148","","0","","","","images/map02_Greys_scaleDef_orientDef_090.png","disgust","1","02","02","Greys","orientDef","scaleDef","090","",""
"","","","","","html-slider-response","28","120185","0.0-24.0","8klzckev88","57","NaN","<div style=""width:500px;"">
                            <p style=""font-size:50px; font-weight:bold;""
                            >disgust</p>
                            <div style=""width:240px; margin: auto;"">
                                <img src=""images/map02_Greys_scaleRev_orientDef_180.png"" style= ""width:200px""alt=""img"">
                            </div>
                        </div>","-171","","0","","","","images/map02_Greys_scaleRev_orientDef_180.png","disgust","1","02","02","Greys","orientDef","scaleRev","180","",""
"","","","","","html-slider-response","29","123403","0.0-25.0","8klzckev88","57","NaN","<div style=""width:500px;"">
                            <p style=""font-size:50px; font-weight:bold;""
                            >disgust</p>
                            <div style=""width:240px; margin: auto;"">
                                <img src=""images/map12_BuGn_scaleRev_orientDef_180.png"" style= ""width:200px""alt=""img"">
                            </div>
                        </div>","180","","0","","","","images/map12_BuGn_scaleRev_orientDef_180.png","disgust","1","12","12","BuGn","orientDef","scaleRev","180","",""
"","","","","","html-slider-response","30","125871","0.0-26.0","8klzckev88","57","NaN","<div style=""width:500px;"">
                            <p style=""font-size:50px; font-weight:bold;""
                            >disgust</p>
                            <div style=""width:240px; margin: auto;"">
                                <img src=""images/map12_PiYG_scaleRev_orientMir_180.png"" style= ""width:200px""alt=""img"">
                            </div>
                        </div>","200","","0","","","","images/map12_PiYG_scaleRev_orientMir_180.png","disgust","1","12","12","PiYG","orientMir","scaleRev","180","",""
"","","","","","html-slider-response","31","128236","0.0-27.0","8klzckev88","57","NaN","<div style=""width:500px;"">
                            <p style=""font-size:50px; font-weight:bold;""
                            >disgust</p>
                            <div style=""width:240px; margin: auto;"">
                                <img src=""images/map26_managua_scaleRev_orientDef_000.png"" style= ""width:200px""alt=""img"">
                            </div>
                        </div>","-166","","0","","","","images/map26_managua_scaleRev_orientDef_000.png","disgust","1","26","26","managua","orientDef","scaleRev","000","",""
"","","","","","html-slider-response","32","131853","0.0-28.0","8klzckev88","57","NaN","<div style=""width:500px;"">
                            <p style=""font-size:50px; font-weight:bold;""
                            >disgust</p>
                            <div style=""width:240px; margin: auto;"">
                                <img src=""images/map26_gist_earth_scaleRev_orientMir_000.png"" style= ""width:200px""alt=""img"">
                            </div>
                        </div>","-168","","0","","","","images/map26_gist_earth_scaleRev_orientMir_000.png","disgust","1","26","26","gist","scaleRev","earth","orientMir","",""
"","","","","","html-slider-response","33","134586","0.0-29.0","8klzckev88","57","NaN","<div style=""width:500px;"">
                            <p style=""font-size:50px; font-weight:bold;""
                            >disgust</p>
                            <div style=""width:240px; margin: auto;"">
                                <img src=""images/map27_magma_scaleRev_orientMir_180.png"" style= ""width:200px""alt=""img"">
                            </div>
                        </div>","18","","0","","","","images/map27_magma_scaleRev_orientMir_180.png","disgust","1","27","27","magma","orientMir","scaleRev","180","",""
"","","","","","html-slider-response","34","138186","0.0-30.0","8klzckev88","57","NaN","<div style=""width:500px;"">
                            <p style=""font-size:50px; font-weight:bold;""
                            >disgust</p>
                            <div style=""width:240px; margin: auto;"">
                                <img src=""images/map02_Blues_scaleDef_orientMir_090.png"" style= ""width:200px""alt=""img"">
                            </div>
                        </div>","-200","","0","","","","images/map02_Blues_scaleDef_orientMir_090.png","disgust","1","02","02","Blues","orientMir","scaleDef","090","",""
"","","","","","html-slider-response","35","140369","0.0-31.0","8klzckev88","57","NaN","<div style=""width:500px;"">
                            <p style=""font-size:50px; font-weight:bold;""
                            >disgust</p>
                            <div style=""width:240px; margin: auto;"">
                                <img src=""images/map27_magma_scaleDef_orientMir_090.png"" style= ""width:200px""alt=""img"">
                            </div>
                        </div>","18","","0","","","","images/map27_magma_scaleDef_orientMir_090.png","disgust","1","27","27","magma","orientMir","scaleDef","090","",""
"","","","","","html-slider-response","36","142304","0.0-32.0","8klzckev88","57","NaN","<div style=""width:500px;"">
                            <p style=""font-size:50px; font-weight:bold;""
                            >disgust</p>
                            <div style=""width:240px; margin: auto;"">
                                <img src=""images/map02_Purples_scaleRev_orientMir_000.png"" style= ""width:200px""alt=""img"">
                            </div>
                        </div>","15","","0","","","","images/map02_Purples_scaleRev_orientMir_000.png","disgust","1","02","02","Purples","orientMir","scaleRev","000","",""
"","","","","","html-slider-response","37","144202","0.0-33.0","8klzckev88","57","NaN","<div style=""width:500px;"">
                            <p style=""font-size:50px; font-weight:bold;""
                            >disgust</p>
                            <div style=""width:240px; margin: auto;"">
                                <img src=""images/map27_plasma_scaleDef_orientDef_090.png"" style= ""width:200px""alt=""img"">
                            </div>
                        </div>","15","","0","","","","images/map27_plasma_scaleDef_orientDef_090.png","disgust","1","27","27","plasma","orientDef","scaleDef","090","",""
"","","","","","html-slider-response","38","146336","0.0-34.0","8klzckev88","57","NaN","<div style=""width:500px;"">
                            <p style=""font-size:50px; font-weight:bold;""
                            >disgust</p>
                            <div style=""width:240px; margin: auto;"">
                                <img src=""images/map15_RdBu_scaleRev_orientDef_000.png"" style= ""width:200px""alt=""img"">
                            </div>
                        </div>","-94","","0","","","","images/map15_RdBu_scaleRev_orientDef_000.png","disgust","1","15","15","RdBu","orientDef","scaleRev","000","",""
"","","","","","html-slider-response","39","149070","0.0-35.0","8klzckev88","57","NaN","<div style=""width:500px;"">
                            <p style=""font-size:50px; font-weight:bold;""
                            >disgust</p>
                            <div style=""width:240px; margin: auto;"">
                                <img src=""images/map27_viridis_scaleRev_orientDef_000.png"" style= ""width:200px""alt=""img"">
                            </div>
                        </div>","-67","","0","","","","images/map27_viridis_scaleRev_orientDef_000.png","disgust","1","27","27","viridis","orientDef","scaleRev","000","",""
"","","","","","html-slider-response","40","151921","0.0-36.0","8klzckev88","57","NaN","<div style=""width:500px;"">
                            <p style=""font-size:50px; font-weight:bold;""
                            >disgust</p>
                            <div style=""width:240px; margin: auto;"">
                                <img src=""images/map12_PRGn_scaleDef_orientMir_270.png"" style= ""width:200px""alt=""img"">
                            </div>
                        </div>","158","","0","","","","images/map12_PRGn_scaleDef_orientMir_270.png","disgust","1","12","12","PRGn","orientMir","scaleDef","270","",""
"","","","","","html-slider-response","41","154918","0.0-37.0","8klzckev88","57","NaN","<div style=""width:500px;"">
                            <p style=""font-size:50px; font-weight:bold;""
                            >disgust</p>
                            <div style=""width:240px; margin: auto;"">
                                <img src=""images/map10_PuBu_scaleDef_orientDef_270.png"" style= ""width:200px""alt=""img"">
                            </div>
                        </div>","-200","","0","","","","images/map10_PuBu_scaleDef_orientDef_270.png","disgust","1","10","10","PuBu","orientDef","scaleDef","270","",""
"","","","","","html-slider-response","42","157001","0.0-38.0","8klzckev88","57","NaN","<div style=""width:500px;"">
                            <p style=""font-size:50px; font-weight:bold;""
                            >disgust</p>
                            <div style=""width:240px; margin: auto;"">
                                <img src=""images/map13_BrBG_scaleDef_orientDef_090.png"" style= ""width:200px""alt=""img"">
                            </div>
                        </div>","-131","","0","","","","images/map13_BrBG_scaleDef_orientDef_090.png","disgust","1","13","13","BrBG","orientDef","scaleDef","090","",""
"","","","","","html-slider-response","43","159286","0.0-39.0","8klzckev88","57","NaN","<div style=""width:500px;"">
                            <p style=""font-size:50px; font-weight:bold;""
                            >disgust</p>
                            <div style=""width:240px; margin: auto;"">
                                <img src=""images/map15_coolwarm_scaleDef_orientMir_270.png"" style= ""width:200px""alt=""img"">
                            </div>
                        </div>","-124","","0","","","","images/map15_coolwarm_scaleDef_orientMir_270.png","disgust","1","15","15","coolwarm","orientMir","scaleDef","270","",""
"","","","","","html-slider-response","44","161351","0.0-40.0","8klzckev88","57","NaN","<div style=""width:500px;"">
                            <p style=""font-size:50px; font-weight:bold;""
                            >disgust</p>
                            <div style=""width:240px; margin: auto;"">
                                <img src=""images/map15_Spectral_scaleDef_orientMir_090.png"" style= ""width:200px""alt=""img"">
                            </div>
                        </div>","-82","","0","","","","images/map15_Spectral_scaleDef_orientMir_090.png","disgust","1","15","15","Spectral","orientMir","scaleDef","090","",""
"","","","","","html-slider-response","45","163486","0.0-41.0","8klzckev88","57","NaN","<div style=""width:500px;"">
                            <p style=""font-size:50px; font-weight:bold;""
                            >disgust</p>
                            <div style=""width:240px; margin: auto;"">
                                <img src=""images/map26_viridis_scaleDef_orientMir_270.png"" style= ""width:200px""alt=""img"">
                            </div>
                        </div>","71","","0","","","","images/map26_viridis_scaleDef_orientMir_270.png","disgust","1","26","26","viridis","orientMir","scaleDef","270","",""
"","","","","","html-slider-response","46","165819","0.0-42.0","8klzckev88","57","NaN","<div style=""width:500px;"">
                            <p style=""font-size:50px; font-weight:bold;""
                            >disgust</p>
                            <div style=""width:240px; margin: auto;"">
                                <img src=""images/map10_PuBuGn_scaleDef_orientMir_270.png"" style= ""width:200px""alt=""img"">
                            </div>
                        </div>","-200","","0","","","","images/map10_PuBuGn_scaleDef_orientMir_270.png","disgust","1","10","10","PuBuGn","orientMir","scaleDef","270","",""
"","","","","","html-slider-response","47","168853","0.0-43.0","8klzckev88","57","NaN","<div style=""width:500px;"">
                            <p style=""font-size:50px; font-weight:bold;""
                            >disgust</p>
                            <div style=""width:240px; margin: auto;"">
                                <img src=""images/map02_cividis_scaleRev_orientDef_000.png"" style= ""width:200px""alt=""img"">
                            </div>
                        </div>","-53","","0","","","","images/map02_cividis_scaleRev_orientDef_000.png","disgust","1","02","02","cividis","orientDef","scaleRev","000","",""
"","","","","","html-slider-response","48","170902","0.0-44.0","8klzckev88","57","NaN","<div style=""width:500px;"">
                            <p style=""font-size:50px; font-weight:bold;""
                            >disgust</p>
                            <div style=""width:240px; margin: auto;"">
                                <img src=""images/map23_berlin_scaleDef_orientMir_090.png"" style= ""width:200px""alt=""img"">
                            </div>
                        </div>","-100","","0","","","","images/map23_berlin_scaleDef_orientMir_090.png","disgust","1","23","23","berlin","orientMir","scaleDef","090","",""
"","","","","","html-slider-response","49","172920","0.0-45.0","8klzckev88","57","NaN","<div style=""width:500px;"">
                            <p style=""font-size:50px; font-weight:bold;""
                            >disgust</p>
                            <div style=""width:240px; margin: auto;"">
                                <img src=""images/map23_seismic_scaleDef_orientDef_270.png"" style= ""width:200px""alt=""img"">
                            </div>
                        </div>","-106","","0","","","","images/map23_seismic_scaleDef_orientDef_270.png","disgust","1","23","23","seismic","orientDef","scaleDef","270","",""
"","","","","","html-slider-response","50","175735","0.0-46.0","8klzckev88","57","NaN","<div style=""width:500px;"">
                            <p style=""font-size:50px; font-weight:bold;""
                            >disgust</p>
                            <div style=""width:240px; margin: auto;"">
                                <img src=""images/map07_BuPu_scaleDef_orientMir_270.png"" style= ""width:200px""alt=""img"">
                            </div>
                        </div>","-121","","0","","","","images/map07_BuPu_scaleDef_orientMir_270.png","disgust","1","07","07","BuPu","orientMir","scaleDef","270","",""
"","","","","","html-slider-response","51","177886","0.0-47.0","8klzckev88","57","NaN","<div style=""width:500px;"">
                            <p style=""font-size:50px; font-weight:bold;""
                            >disgust</p>
                            <div style=""width:240px; margin: auto;"">
                                <img src=""images/map10_YlGnBu_scaleRev_orientMir_180.png"" style= ""width:200px""alt=""img"">
                            </div>
                        </div>","-180","","0","","","","images/map10_YlGnBu_scaleRev_orientMir_180.png","disgust","1","10","10","YlGnBu","orientMir","scaleRev","180","",""
"","","","","","html-slider-response","52","179902","0.0-48.0","8klzckev88","57","NaN","<div style=""width:500px;"">
                            <p style=""font-size:50px; font-weight:bold;""
                            >disgust</p>
                            <div style=""width:240px; margin: auto;"">
                                <img src=""images/map05_Reds_scaleDef_orientDef_270.png"" style= ""width:200px""alt=""img"">
                            </div>
                        </div>","61","","0","","","","images/map05_Reds_scaleDef_orientDef_270.png","disgust","1","05","05","Reds","orientDef","scaleDef","270","",""
"","","","","","html-slider-response","53","182519","0.0-49.0","8klzckev88","57","NaN","<div style=""width:500px;"">
                            <p style=""font-size:50px; font-weight:bold;""
                            >disgust</p>
                            <div style=""width:240px; margin: auto;"">
                                <img src=""images/map15_RdYlBu_scaleDef_orientDef_090.png"" style= ""width:200px""alt=""img"">
                            </div>
                        </div>","-106","","0","","","","images/map15_RdYlBu_scaleDef_orientDef_090.png","disgust","1","15","15","RdYlBu","orientDef","scaleDef","090","",""
"","","","","","html-slider-response","54","184652","0.0-50.0","8klzckev88","57","NaN","<div style=""width:500px;"">
                            <p style=""font-size:50px; font-weight:bold;""
                            >disgust</p>
                            <div style=""width:240px; margin: auto;"">
                                <img src=""images/map23_seismic_scaleRev_orientMir_000.png"" style= ""width:200px""alt=""img"">
                            </div>
                        </div>","-101","","0","","","","images/map23_seismic_scaleRev_orientMir_000.png","disgust","1","23","23","seismic","orientMir","scaleRev","000","",""
"","","","","","html-slider-response","55","186436","0.0-51.0","8klzckev88","57","NaN","<div style=""width:500px;"">
                            <p style=""font-size:50px; font-weight:bold;""
                            >disgust</p>
                            <div style=""width:240px; margin: auto;"">
                                <img src=""images/map02_Greens_scaleDef_orientMir_270.png"" style= ""width:200px""alt=""img"">
                            </div>
                        </div>","27","","0","","","","images/map02_Greens_scaleDef_orientMir_270.png","disgust","1","02","02","Greens","orientMir","scaleDef","270","",""
"","","","","","html-slider-response","56","188768","0.0-52.0","8klzckev88","57","NaN","<div style=""width:500px;"">
                            <p style=""font-size:50px; font-weight:bold;""
                            >disgust</p>
                            <div style=""width:240px; margin: auto;"">
                                <img src=""images/map13_RdGy_scaleRev_orientMir_180.png"" style= ""width:200px""alt=""img"">
                            </div>
                        </div>","40","","0","","","","images/map13_RdGy_scaleRev_orientMir_180.png","disgust","1","13","13","RdGy","orientMir","scaleRev","180","",""
"","","","","","html-slider-response","57","192537","0.0-53.0","8klzckev88","57","NaN","<div style=""width:500px;"">
                            <p style=""font-size:50px; font-weight:bold;""
                            >disgust</p>
                            <div style=""width:240px; margin: auto;"">
                                <img src=""images/map05_Reds_scaleRev_orientMir_000.png"" style= ""width:200px""alt=""img"">
                            </div>
                        </div>","-62","","0","","","","images/map05_Reds_scaleRev_orientMir_000.png","disgust","1","05","05","Reds","orientMir","scaleRev","000","",""
"","","","","","html-button-response","58","196074","0.0-54.0","8klzckev88","57","3034","<p>You are doing great!<br></br> You are halway done with the current block. When you are ready to continue, click the 'Continue' button.</p>","0","","","","","","","","","","","","","","","",""
"","","","","","html-slider-response","59","198284","0.0-55.0","8klzckev88","57","NaN","<div style=""width:500px;"">
                            <p style=""font-size:50px; font-weight:bold;""
                            >disgust</p>
                            <div style=""width:240px; margin: auto;"">
                                <img src=""images/map07_OrRd_scaleDef_orientDef_090.png"" style= ""width:200px""alt=""img"">
                            </div>
                        </div>","38","","0","","","","images/map07_OrRd_scaleDef_orientDef_090.png","disgust","1","07","07","OrRd","orientDef","scaleDef","090","",""
"","","","","","html-slider-response","60","200419","0.0-56.0","8klzckev88","57","NaN","<div style=""width:500px;"">
                            <p style=""font-size:50px; font-weight:bold;""
                            >disgust</p>
                            <div style=""width:240px; margin: auto;"">
                                <img src=""images/map27_inferno_scaleDef_orientDef_270.png"" style= ""width:200px""alt=""img"">
                            </div>
                        </div>","33","","0","","","","images/map27_inferno_scaleDef_orientDef_270.png","disgust","1","27","27","inferno","orientDef","scaleDef","270","",""
"","","","","","html-slider-response","61","202952","0.0-57.0","8klzckev88","57","NaN","<div style=""width:500px;"">
                            <p style=""font-size:50px; font-weight:bold;""
                            >disgust</p>
                            <div style=""width:240px; margin: auto;"">
                                <img src=""images/map07_PuRd_scaleRev_orientMir_000.png"" style= ""width:200px""alt=""img"">
                            </div>
                        </div>","-200","","0","","","","images/map07_PuRd_scaleRev_orientMir_000.png","disgust","1","07","07","PuRd","orientMir","scaleRev","000","",""
"","","","","","html-slider-response","62","206234","0.0-58.0","8klzckev88","57","NaN","<div style=""width:500px;"">
                            <p style=""font-size:50px; font-weight:bold;""
                            >disgust</p>
                            <div style=""width:240px; margin: auto;"">
                                <img src=""images/map15_RdYlGn_scaleDef_orientDef_270.png"" style= ""width:200px""alt=""img"">
                            </div>
                        </div>","-57","","0","","","","images/map15_RdYlGn_scaleDef_orientDef_270.png","disgust","1","15","15","RdYlGn","orientDef","scaleDef","270","",""
"","","","","","html-slider-response","63","208750","0.0-59.0","8klzckev88","57","NaN","<div style=""width:500px;"">
                            <p style=""font-size:50px; font-weight:bold;""
                            >disgust</p>
                            <div style=""width:240px; margin: auto;"">
                                <img src=""images/map12_PiYG_scaleDef_orientMir_090.png"" style= ""width:200px""alt=""img"">
                            </div>
                        </div>","200","","0","","","","images/map12_PiYG_scaleDef_orientMir_090.png","disgust","1","12","12","PiYG","orientMir","scaleDef","090","",""
"","","","","","html-slider-response","64","211468","0.0-60.0","8klzckev88","57","NaN","<div style=""width:500px;"">
                            <p style=""font-size:50px; font-weight:bold;""
                            >disgust</p>
                            <div style=""width:240px; margin: auto;"">
                                <img src=""images/map07_PuRd_scaleDef_orientDef_270.png"" style= ""width:200px""alt=""img"">
                            </div>
                        </div>","-146","","0","","","","images/map07_PuRd_scaleDef_orientDef_270.png","disgust","1","07","07","PuRd","orientDef","scaleDef","270","",""
"","","","","","html-slider-response","65","213286","0.0-61.0","8klzckev88","57","NaN","<div style=""width:500px;"">
                            <p style=""font-size:50px; font-weight:bold;""
                            >disgust</p>
                            <div style=""width:240px; margin: auto;"">
                                <img src=""images/map27_inferno_scaleRev_orientMir_000.png"" style= ""width:200px""alt=""img"">
                            </div>
                        </div>","-55","","0","","","","images/map27_inferno_scaleRev_orientMir_000.png","disgust","1","27","27","inferno","orientMir","scaleRev","000","",""
"","","","","","html-slider-response","66","215401","0.0-62.0","8klzckev88","57","NaN","<div style=""width:500px;"">
                            <p style=""font-size:50px; font-weight:bold;""
                            >disgust</p>
                            <div style=""width:240px; margin: auto;"">
                                <img src=""images/map26_vanimo_scaleDef_orientDef_090.png"" style= ""width:200px""alt=""img"">
                            </div>
                        </div>","107","","0","","","","images/map26_vanimo_scaleDef_orientDef_090.png","disgust","1","26","26","vanimo","orientDef","scaleDef","090","",""
"","","","","","html-slider-response","67","217483","0.0-63.0","8klzckev88","57","NaN","<div style=""width:500px;"">
                            <p style=""font-size:50px; font-weight:bold;""
                            >disgust</p>
                            <div style=""width:240px; margin: auto;"">
                                <img src=""images/map10_GnBu_scaleRev_orientDef_180.png"" style= ""width:200px""alt=""img"">
                            </div>
                        </div>","-187","","0","","","","images/map10_GnBu_scaleRev_orientDef_180.png","disgust","1","10","10","GnBu","orientDef","scaleRev","180","",""
"","","","","","html-slider-response","68","219484","0.0-64.0","8klzckev88","57","NaN","<div style=""width:500px;"">
                            <p style=""font-size:50px; font-weight:bold;""
                            >disgust</p>
                            <div style=""width:240px; margin: auto;"">
                                <img src=""images/map23_bwr_scaleRev_orientDef_180.png"" style= ""width:200px""alt=""img"">
                            </div>
                        </div>","-79","","0","","","","images/map23_bwr_scaleRev_orientDef_180.png","disgust","1","23","23","bwr","orientDef","scaleRev","180","",""
"","","","","","html-slider-response","69","221517","0.0-65.0","8klzckev88","57","NaN","<div style=""width:500px;"">
                            <p style=""font-size:50px; font-weight:bold;""
                            >disgust</p>
                            <div style=""width:240px; margin: auto;"">
                                <img src=""images/map15_Spectral_scaleRev_orientMir_180.png"" style= ""width:200px""alt=""img"">
                            </div>
                        </div>","-102","","0","","","","images/map15_Spectral_scaleRev_orientMir_180.png","disgust","1","15","15","Spectral","orientMir","scaleRev","180","",""
"","","","","","html-slider-response","70","223767","0.0-66.0","8klzckev88","57","NaN","<div style=""width:500px;"">
                            <p style=""font-size:50px; font-weight:bold;""
                            >disgust</p>
                            <div style=""width:240px; margin: auto;"">
                                <img src=""images/map23_coolwarm_scaleRev_orientDef_000.png"" style= ""width:200px""alt=""img"">
                            </div>
                        </div>","-123","","0","","","","images/map23_coolwarm_scaleRev_orientDef_000.png","disgust","1","23","23","coolwarm","orientDef","scaleRev","000","",""
"","","","","","html-slider-response","71","225617","0.0-67.0","8klzckev88","57","NaN","<div style=""width:500px;"">
                            <p style=""font-size:50px; font-weight:bold;""
                            >disgust</p>
                            <div style=""width:240px; margin: auto;"">
                                <img src=""images/map12_YlGn_scaleRev_orientMir_000.png"" style= ""width:200px""alt=""img"">
                            </div>
                        </div>","72","","0","","","","images/map12_YlGn_scaleRev_orientMir_000.png","disgust","1","12","12","YlGn","orientMir","scaleRev","000","",""
"","","","","","html-slider-response","72","227735","0.0-68.0","8klzckev88","57","NaN","<div style=""width:500px;"">
                            <p style=""font-size:50px; font-weight:bold;""
                            >disgust</p>
                            <div style=""width:240px; margin: auto;"">
                                <img src=""images/map07_YlOrRd_scaleRev_orientDef_000.png"" style= ""width:200px""alt=""img"">
                            </div>
                        </div>","-118","","0","","","","images/map07_YlOrRd_scaleRev_orientDef_000.png","disgust","1","07","07","YlOrRd","orientDef","scaleRev","000","",""
"","","","","","html-slider-response","73","230618","0.0-69.0","8klzckev88","57","NaN","<div style=""width:500px;"">
                            <p style=""font-size:50px; font-weight:bold;""
                            >disgust</p>
                            <div style=""width:240px; margin: auto;"">
                                <img src=""images/map05_Oranges_scaleRev_orientDef_180.png"" style= ""width:200px""alt=""img"">
                            </div>
                        </div>","-113","","0","","","","images/map05_Oranges_scaleRev_orientDef_180.png","disgust","1","05","05","Oranges","orientDef","scaleRev","180","",""
"","","","","","html-slider-response","74","234752","0.0-70.0","8klzckev88","57","NaN","<div style=""width:500px;"">
                            <p style=""font-size:50px; font-weight:bold;""
                            >disgust</p>
                            <div style=""width:240px; margin: auto;"">
                                <img src=""images/map13_PuOr_scaleRev_orientMir_000.png"" style= ""width:200px""alt=""img"">
                            </div>
                        </div>","62","","0","","","","images/map13_PuOr_scaleRev_orientMir_000.png","disgust","1","13","13","PuOr","orientMir","scaleRev","000","",""
"","","","","","html-slider-response","75","236635","0.0-71.0","8klzckev88","57","NaN","<div style=""width:500px;"">
                            <p style=""font-size:50px; font-weight:bold;""
                            >disgust</p>
                            <div style=""width:240px; margin: auto;"">
                                <img src=""images/map12_BuGn_scaleDef_orientDef_090.png"" style= ""width:200px""alt=""img"">
                            </div>
                        </div>","92","","0","","","","images/map12_BuGn_scaleDef_orientDef_090.png","disgust","1","12","12","BuGn","orientDef","scaleDef","090","",""
"","","","","","html-slider-response","76","239186","0.0-72.0","8klzckev88","57","NaN","<div style=""width:500px;"">
                            <p style=""font-size:50px; font-weight:bold;""
                            >disgust</p>
                            <div style=""width:240px; margin: auto;"">
                                <img src=""images/map07_OrRd_scaleRev_orientDef_180.png"" style= ""width:200px""alt=""img"">
                            </div>
                        </div>","-108","","0","","","","images/map07_OrRd_scaleRev_orientDef_180.png","disgust","1","07","07","OrRd","orientDef","scaleRev","180","",""
"","","","","","html-slider-response","77","244335","0.0-73.0","8klzckev88","57","NaN","<div style=""width:500px;"">
                            <p style=""font-size:50px; font-weight:bold;""
                            >disgust</p>
                            <div style=""width:240px; margin: auto;"">
                                <img src=""images/map13_BrBG_scaleRev_orientDef_180.png"" style= ""width:200px""alt=""img"">
                            </div>
                        </div>","-66","","0","","","","images/map13_BrBG_scaleRev_orientDef_180.png","disgust","1","13","13","BrBG","orientDef","scaleRev","180","",""
"","","","","","html-slider-response","78","246919","0.0-74.0","8klzckev88","57","NaN","<div style=""width:500px;"">
                            <p style=""font-size:50px; font-weight:bold;""
                            >disgust</p>
                            <div style=""width:240px; margin: auto;"">
                                <img src=""images/map12_PuBuGn_scaleRev_orientDef_000.png"" style= ""width:200px""alt=""img"">
                            </div>
                        </div>","-120","","0","","","","images/map12_PuBuGn_scaleRev_orientDef_000.png","disgust","1","12","12","PuBuGn","orientDef","scaleRev","000","",""
"","","","","","html-slider-response","79","250600","0.0-75.0","8klzckev88","57","NaN","<div style=""width:500px;"">
                            <p style=""font-size:50px; font-weight:bold;""
                            >disgust</p>
                            <div style=""width:240px; margin: auto;"">
                                <img src=""images/map26_vanimo_scaleRev_orientDef_180.png"" style= ""width:200px""alt=""img"">
                            </div>
                        </div>","150","","0","","","","images/map26_vanimo_scaleRev_orientDef_180.png","disgust","1","26","26","vanimo","orientDef","scaleRev","180","",""
"","","","","","html-slider-response","80","252835","0.0-76.0","8klzckev88","57","NaN","<div style=""width:500px;"">
                            <p style=""font-size:50px; font-weight:bold;""
                            >disgust</p>
                            <div style=""width:240px; margin: auto;"">
                                <img src=""images/map05_YlOrBr_scaleRev_orientMir_180.png"" style= ""width:200px""alt=""img"">
                            </div>
                        </div>","-137","","0","","","","images/map05_YlOrBr_scaleRev_orientMir_180.png","disgust","1","05","05","YlOrBr","orientMir","scaleRev","180","",""
"","","","","","html-slider-response","81","254668","0.0-77.0","8klzckev88","57","NaN","<div style=""width:500px;"">
                            <p style=""font-size:50px; font-weight:bold;""
                            >disgust</p>
                            <div style=""width:240px; margin: auto;"">
                                <img src=""images/map23_managua_scaleDef_orientMir_270.png"" style= ""width:200px""alt=""img"">
                            </div>
                        </div>","-133","","0","","","","images/map23_managua_scaleDef_orientMir_270.png","disgust","1","23","23","managua","orientMir","scaleDef","270","",""
"","","","","","html-slider-response","82","256667","0.0-78.0","8klzckev88","57","NaN","<div style=""width:500px;"">
                            <p style=""font-size:50px; font-weight:bold;""
                            >disgust</p>
                            <div style=""width:240px; margin: auto;"">
                                <img src=""images/map02_Blues_scaleRev_orientMir_180.png"" style= ""width:200px""alt=""img"">
                            </div>
                        </div>","-200","","0","","","","images/map02_Blues_scaleRev_orientMir_180.png","disgust","1","02","02","Blues","orientMir","scaleRev","180","",""
"","","","","","html-slider-response","83","258619","0.0-79.0","8klzckev88","57","NaN","<div style=""width:500px;"">
                            <p style=""font-size:50px; font-weight:bold;""
                            >disgust</p>
                            <div style=""width:240px; margin: auto;"">
                                <img src=""images/map10_YlGnBu_scaleDef_orientMir_090.png"" style= ""width:200px""alt=""img"">
                            </div>
                        </div>","-200","","0","","","","images/map10_YlGnBu_scaleDef_orientMir_090.png","disgust","1","10","10","YlGnBu","orientMir","scaleDef","090","",""
"","","","","","html-slider-response","84","260569","0.0-80.0","8klzckev88","57","NaN","<div style=""width:500px;"">
                            <p style=""font-size:50px; font-weight:bold;""
                            >disgust</p>
                            <div style=""width:240px; margin: auto;"">
                                <img src=""images/map05_YlOrBr_scaleDef_orientMir_090.png"" style= ""width:200px""alt=""img"">
                            </div>
                        </div>","-21","","0","","","","images/map05_YlOrBr_scaleDef_orientMir_090.png","disgust","1","05","05","YlOrBr","orientMir","scaleDef","090","",""
"","","","","","html-slider-response","85","262218","0.0-81.0","8klzckev88","57","NaN","<div style=""width:500px;"">
                            <p style=""font-size:50px; font-weight:bold;""
                            >disgust</p>
                            <div style=""width:240px; margin: auto;"">
                                <img src=""images/map05_Oranges_scaleDef_orientDef_090.png"" style= ""width:200px""alt=""img"">
                            </div>
                        </div>","-15","","0","","","","images/map05_Oranges_scaleDef_orientDef_090.png","disgust","1","05","05","Oranges","orientDef","scaleDef","090","",""
"","","","","","html-slider-response","86","264635","0.0-82.0","8klzckev88","57","NaN","<div style=""width:500px;"">
                            <p style=""font-size:50px; font-weight:bold;""
                            >disgust</p>
                            <div style=""width:240px; margin: auto;"">
                                <img src=""images/map02_Purples_scaleDef_orientDef_270.png"" style= ""width:200px""alt=""img"">
                            </div>
                        </div>","76","","0","","","","images/map02_Purples_scaleDef_orientDef_270.png","disgust","1","02","02","Purples","orientDef","scaleDef","270","",""
"","","","","","html-slider-response","87","267202","0.0-83.0","8klzckev88","57","NaN","<div style=""width:500px;"">
                            <p style=""font-size:50px; font-weight:bold;""
                            >disgust</p>
                            <div style=""width:240px; margin: auto;"">
                                <img src=""images/map26_gist_earth_scaleDef_orientDef_270.png"" style= ""width:200px""alt=""img"">
                            </div>
                        </div>","-146","","0","","","","images/map26_gist_earth_scaleDef_orientDef_270.png","disgust","1","26","26","gist","scaleDef","earth","orientDef","",""
"","","","","","html-slider-response","88","269350","0.0-84.0","8klzckev88","57","NaN","<div style=""width:500px;"">
                            <p style=""font-size:50px; font-weight:bold;""
                            >disgust</p>
                            <div style=""width:240px; margin: auto;"">
                                <img src=""images/map15_RdYlBu_scaleRev_orientDef_180.png"" style= ""width:200px""alt=""img"">
                            </div>
                        </div>","-123","","0","","","","images/map15_RdYlBu_scaleRev_orientDef_180.png","disgust","1","15","15","RdYlBu","orientDef","scaleRev","180","",""
"","","","","","html-slider-response","89","271384","0.0-85.0","8klzckev88","57","NaN","<div style=""width:500px;"">
                            <p style=""font-size:50px; font-weight:bold;""
                            >disgust</p>
                            <div style=""width:240px; margin: auto;"">
                                <img src=""images/map26_turbo_scaleRev_orientMir_180.png"" style= ""width:200px""alt=""img"">
                            </div>
                        </div>","0","","0","","","","images/map26_turbo_scaleRev_orientMir_180.png","disgust","1","26","26","turbo","orientMir","scaleRev","180","",""
"","","","","","html-slider-response","90","273534","0.0-86.0","8klzckev88","57","NaN","<div style=""width:500px;"">
                            <p style=""font-size:50px; font-weight:bold;""
                            >disgust</p>
                            <div style=""width:240px; margin: auto;"">
                                <img src=""images/map23_berlin_scaleRev_orientMir_180.png"" style= ""width:200px""alt=""img"">
                            </div>
                        </div>","0","","0","","","","images/map23_berlin_scaleRev_orientMir_180.png","disgust","1","23","23","berlin","orientMir","scaleRev","180","",""
"","","","","","html-slider-response","91","275169","0.0-87.0","8klzckev88","57","NaN","<div style=""width:500px;"">
                            <p style=""font-size:50px; font-weight:bold;""
                            >disgust</p>
                            <div style=""width:240px; margin: auto;"">
                                <img src=""images/map05_YlOrRd_scaleDef_orientMir_270.png"" style= ""width:200px""alt=""img"">
                            </div>
                        </div>","-52","","0","","","","images/map05_YlOrRd_scaleDef_orientMir_270.png","disgust","1","05","05","YlOrRd","orientMir","scaleDef","270","",""
"","","","","","html-slider-response","92","277250","0.0-88.0","8klzckev88","57","NaN","<div style=""width:500px;"">
                            <p style=""font-size:50px; font-weight:bold;""
                            >disgust</p>
                            <div style=""width:240px; margin: auto;"">
                                <img src=""images/map23_bwr_scaleDef_orientDef_090.png"" style= ""width:200px""alt=""img"">
                            </div>
                        </div>","-64","","0","","","","images/map23_bwr_scaleDef_orientDef_090.png","disgust","1","23","23","bwr","orientDef","scaleDef","090","",""
"","","","","","html-slider-response","93","279650","0.0-89.0","8klzckev88","57","NaN","<div style=""width:500px;"">
                            <p style=""font-size:50px; font-weight:bold;""
                            >disgust</p>
                            <div style=""width:240px; margin: auto;"">
                                <img src=""images/map27_plasma_scaleRev_orientDef_180.png"" style= ""width:200px""alt=""img"">
                            </div>
                        </div>","-105","","0","","","","images/map27_plasma_scaleRev_orientDef_180.png","disgust","1","27","27","plasma","orientDef","scaleRev","180","",""
"","","","","","html-slider-response","94","281966","0.0-90.0","8klzckev88","57","NaN","<div style=""width:500px;"">
                            <p style=""font-size:50px; font-weight:bold;""
                            >disgust</p>
                            <div style=""width:240px; margin: auto;"">
                                <img src=""images/map26_turbo_scaleDef_orientMir_090.png"" style= ""width:200px""alt=""img"">
                            </div>
                        </div>","-129","","0","","","","images/map26_turbo_scaleDef_orientMir_090.png","disgust","1","26","26","turbo","orientMir","scaleDef","090","",""
"","","","","","html-slider-response","95","284251","0.0-91.0","8klzckev88","57","NaN","<div style=""width:500px;"">
                            <p style=""font-size:50px; font-weight:bold;""
                            >disgust</p>
                            <div style=""width:240px; margin: auto;"">
                                <img src=""images/map10_GnBu_scaleDef_orientDef_090.png"" style= ""width:200px""alt=""img"">
                            </div>
                        </div>","-200","","0","","","","images/map10_GnBu_scaleDef_orientDef_090.png","disgust","1","10","10","GnBu","orientDef","scaleDef","090","",""
"","","","","","html-slider-response","96","286350","0.0-92.0","8klzckev88","57","NaN","<div style=""width:500px;"">
                            <p style=""font-size:50px; font-weight:bold;""
                            >disgust</p>
                            <div style=""width:240px; margin: auto;"">
                                <img src=""images/map10_PuBu_scaleRev_orientMir_000.png"" style= ""width:200px""alt=""img"">
                            </div>
                        </div>","-200","","0","","","","images/map10_PuBu_scaleRev_orientMir_000.png","disgust","1","10","10","PuBu","orientMir","scaleRev","000","",""
"","","","","","html-slider-response","97","288885","0.0-93.0","8klzckev88","57","NaN","<div style=""width:500px;"">
                            <p style=""font-size:50px; font-weight:bold;""
                            >disgust</p>
                            <div style=""width:240px; margin: auto;"">
                                <img src=""images/map27_cividis_scaleDef_orientMir_270.png"" style= ""width:200px""alt=""img"">
                            </div>
                        </div>","-2","","0","","","","images/map27_cividis_scaleDef_orientMir_270.png","disgust","1","27","27","cividis","orientMir","scaleDef","270","",""
"","","","","","html-slider-response","98","291568","0.0-94.0","8klzckev88","57","NaN","<div style=""width:500px;"">
                            <p style=""font-size:50px; font-weight:bold;""
                            >disgust</p>
                            <div style=""width:240px; margin: auto;"">
                                <img src=""images/map10_BuPu_scaleRev_orientDef_000.png"" style= ""width:200px""alt=""img"">
                            </div>
                        </div>","-200","","0","","","","images/map10_BuPu_scaleRev_orientDef_000.png","disgust","1","10","10","BuPu","orientDef","scaleRev","000","",""
"","","","","","html-button-response","99","293939","0.0-95.0","8klzckev88","57","1868","<p>Great Job! You've finished block 1.<br></br> You have 4 block(s) left to go.<br></br></p>","0","","","","","","","","","","","","","","","",""
"","","","","","html-button-response","100","295321","0.0-96.0","8klzckev88","57","1382","<p>In this block of trials, you will be asked to rate how much you associate each map with:</p > <p style = 'font-size:150%; font-weight: bold'>fearful</p><br></br>","0","","","","","","","","","","","","","","","",""
"","","","","","html-slider-response","101","299718","0.0-97.0","8klzckev88","57","NaN","<div style=""width:500px;"">
                            <p style=""font-size:50px; font-weight:bold;""
                            >fearful</p>
                            <div style=""width:240px; margin: auto;"">
                                <img src=""images/map02_Purples_scaleDef_orientDef_270.png"" style= ""width:200px""alt=""img"">
                            </div>
                        </div>","37","","0","","","","images/map02_Purples_scaleDef_orientDef_270.png","fearful","1","02","02","Purples","orientDef","scaleDef","270","",""
"","","","","","html-slider-response","102","311249","0.0-98.0","8klzckev88","57","NaN","<div style=""width:500px;"">
                            <p style=""font-size:50px; font-weight:bold;""
                            >fearful</p>
                            <div style=""width:240px; margin: auto;"">
                                <img src=""images/map02_Blues_scaleRev_orientMir_180.png"" style= ""width:200px""alt=""img"">
                            </div>
                        </div>","-200","","0","","","","images/map02_Blues_scaleRev_orientMir_180.png","fearful","1","02","02","Blues","orientMir","scaleRev","180","",""
"","","","","","html-slider-response","103","313284","0.0-99.0","8klzckev88","57","NaN","<div style=""width:500px;"">
                            <p style=""font-size:50px; font-weight:bold;""
                            >fearful</p>
                            <div style=""width:240px; margin: auto;"">
                                <img src=""images/map07_RdPu_scaleDef_orientMir_090.png"" style= ""width:200px""alt=""img"">
                            </div>
                        </div>","117","","0","","","","images/map07_RdPu_scaleDef_orientMir_090.png","fearful","1","07","07","RdPu","orientMir","scaleDef","090","",""
"","","","","","html-slider-response","104","315301","0.0-100.0","8klzckev88","57","NaN","<div style=""width:500px;"">
                            <p style=""font-size:50px; font-weight:bold;""
                            >fearful</p>
                            <div style=""width:240px; margin: auto;"">
                                <img src=""images/map13_RdGy_scaleDef_orientMir_090.png"" style= ""width:200px""alt=""img"">
                            </div>
                        </div>","102","","0","","","","images/map13_RdGy_scaleDef_orientMir_090.png","fearful","1","13","13","RdGy","orientMir","scaleDef","090","",""
"","","","","","html-slider-response","105","317916","0.0-101.0","8klzckev88","57","NaN","<div style=""width:500px;"">
                            <p style=""font-size:50px; font-weight:bold;""
                            >fearful</p>
                            <div style=""width:240px; margin: auto;"">
                                <img src=""images/map12_PiYG_scaleDef_orientMir_090.png"" style= ""width:200px""alt=""img"">
                            </div>
                        </div>","-78","","0","","","","images/map12_PiYG_scaleDef_orientMir_090.png","fearful","1","12","12","PiYG","orientMir","scaleDef","090","",""
"","","","","","html-slider-response","106","320651","0.0-102.0","8klzckev88","57","NaN","<div style=""width:500px;"">
                            <p style=""font-size:50px; font-weight:bold;""
                            >fearful</p>
                            <div style=""width:240px; margin: auto;"">
                                <img src=""images/map27_plasma_scaleDef_orientDef_090.png"" style= ""width:200px""alt=""img"">
                            </div>
                        </div>","89","","0","","","","images/map27_plasma_scaleDef_orientDef_090.png","fearful","1","27","27","plasma","orientDef","scaleDef","090","",""
"","","","","","html-slider-response","107","322900","0.0-103.0","8klzckev88","57","NaN","<div style=""width:500px;"">
                            <p style=""font-size:50px; font-weight:bold;""
                            >fearful</p>
                            <div style=""width:240px; margin: auto;"">
                                <img src=""images/map13_BrBG_scaleRev_orientDef_180.png"" style= ""width:200px""alt=""img"">
                            </div>
                        </div>","200","","0","","","","images/map13_BrBG_scaleRev_orientDef_180.png","fearful","1","13","13","BrBG","orientDef","scaleRev","180","",""
"","","","","","html-slider-response","108","325433","0.0-104.0","8klzckev88","57","NaN","<div style=""width:500px;"">
                            <p style=""font-size:50px; font-weight:bold;""
                            >fearful</p>
                            <div style=""width:240px; margin: auto;"">
                                <img src=""images/map05_YlOrBr_scaleDef_orientMir_090.png"" style= ""width:200px""alt=""img"">
                            </div>
                        </div>","-101","","0","","","","images/map05_YlOrBr_scaleDef_orientMir_090.png","fearful","1","05","05","YlOrBr","orientMir","scaleDef","090","",""
"","","","","","html-slider-response","109","327450","0.0-105.0","8klzckev88","57","NaN","<div style=""width:500px;"">
                            <p style=""font-size:50px; font-weight:bold;""
                            >fearful</p>
                            <div style=""width:240px; margin: auto;"">
                                <img src=""images/map07_YlOrRd_scaleRev_orientDef_000.png"" style= ""width:200px""alt=""img"">
                            </div>
                        </div>","-97","","0","","","","images/map07_YlOrRd_scaleRev_orientDef_000.png","fearful","1","07","07","YlOrRd","orientDef","scaleRev","000","",""
"","","","","","html-slider-response","110","329549","0.0-106.0","8klzckev88","57","NaN","<div style=""width:500px;"">
                            <p style=""font-size:50px; font-weight:bold;""
                            >fearful</p>
                            <div style=""width:240px; margin: auto;"">
                                <img src=""images/map23_managua_scaleDef_orientMir_270.png"" style= ""width:200px""alt=""img"">
                            </div>
                        </div>","-94","","0","","","","images/map23_managua_scaleDef_orientMir_270.png","fearful","1","23","23","managua","orientMir","scaleDef","270","",""
"","","","","","html-slider-response","111","332699","0.0-107.0","8klzckev88","57","NaN","<div style=""width:500px;"">
                            <p style=""font-size:50px; font-weight:bold;""
                            >fearful</p>
                            <div style=""width:240px; margin: auto;"">
                                <img src=""images/map07_OrRd_scaleDef_orientDef_090.png"" style= ""width:200px""alt=""img"">
                            </div>
                        </div>","-102","","0","","","","images/map07_OrRd_scaleDef_orientDef_090.png","fearful","1","07","07","OrRd","orientDef","scaleDef","090","",""
"","","","","","html-slider-response","112","334901","0.0-108.0","8klzckev88","57","NaN","<div style=""width:500px;"">
                            <p style=""font-size:50px; font-weight:bold;""
                            >fearful</p>
                            <div style=""width:240px; margin: auto;"">
                                <img src=""images/map12_YlGn_scaleRev_orientMir_000.png"" style= ""width:200px""alt=""img"">
                            </div>
                        </div>","21","","0","","","","images/map12_YlGn_scaleRev_orientMir_000.png","fearful","1","12","12","YlGn","orientMir","scaleRev","000","",""
"","","","","","html-slider-response","113","337066","0.0-109.0","8klzckev88","57","NaN","<div style=""width:500px;"">
                            <p style=""font-size:50px; font-weight:bold;""
                            >fearful</p>
                            <div style=""width:240px; margin: auto;"">
                                <img src=""images/map10_PuBu_scaleDef_orientDef_270.png"" style= ""width:200px""alt=""img"">
                            </div>
                        </div>","-200","","0","","","","images/map10_PuBu_scaleDef_orientDef_270.png","fearful","1","10","10","PuBu","orientDef","scaleDef","270","",""
"","","","","","html-slider-response","114","339332","0.0-110.0","8klzckev88","57","NaN","<div style=""width:500px;"">
                            <p style=""font-size:50px; font-weight:bold;""
                            >fearful</p>
                            <div style=""width:240px; margin: auto;"">
                                <img src=""images/map27_magma_scaleRev_orientMir_180.png"" style= ""width:200px""alt=""img"">
                            </div>
                        </div>","78","","0","","","","images/map27_magma_scaleRev_orientMir_180.png","fearful","1","27","27","magma","orientMir","scaleRev","180","",""
"","","","","","html-slider-response","115","342899","0.0-111.0","8klzckev88","57","NaN","<div style=""width:500px;"">
                            <p style=""font-size:50px; font-weight:bold;""
                            >fearful</p>
                            <div style=""width:240px; margin: auto;"">
                                <img src=""images/map05_Oranges_scaleRev_orientDef_180.png"" style= ""width:200px""alt=""img"">
                            </div>
                        </div>","-95","","0","","","","images/map05_Oranges_scaleRev_orientDef_180.png","fearful","1","05","05","Oranges","orientDef","scaleRev","180","",""
"","","","","","html-slider-response","116","349683","0.0-112.0","8klzckev88","57","NaN","<div style=""width:500px;"">
                            <p style=""font-size:50px; font-weight:bold;""
                            >fearful</p>
                            <div style=""width:240px; margin: auto;"">
                                <img src=""images/map05_Greens_scaleRev_orientDef_000.png"" style= ""width:200px""alt=""img"">
                            </div>
                        </div>","54","","0","","","","images/map05_Greens_scaleRev_orientDef_000.png","fearful","1","05","05","Greens","orientDef","scaleRev","000","",""
"","","","","","html-slider-response","117","352649","0.0-113.0","8klzckev88","57","NaN","<div style=""width:500px;"">
                            <p style=""font-size:50px; font-weight:bold;""
                            >fearful</p>
                            <div style=""width:240px; margin: auto;"">
                                <img src=""images/map02_Blues_scaleDef_orientMir_090.png"" style= ""width:200px""alt=""img"">
                            </div>
                        </div>","-200","","0","","","","images/map02_Blues_scaleDef_orientMir_090.png","fearful","1","02","02","Blues","orientMir","scaleDef","090","",""
"","","","","","html-slider-response","118","354366","0.0-114.0","8klzckev88","57","NaN","<div style=""width:500px;"">
                            <p style=""font-size:50px; font-weight:bold;""
                            >fearful</p>
                            <div style=""width:240px; margin: auto;"">
                                <img src=""images/map27_viridis_scaleRev_orientDef_000.png"" style= ""width:200px""alt=""img"">
                            </div>
                        </div>","32","","0","","","","images/map27_viridis_scaleRev_orientDef_000.png","fearful","1","27","27","viridis","orientDef","scaleRev","000","",""
"","","","","","html-slider-response","119","358067","0.0-115.0","8klzckev88","57","NaN","<div style=""width:500px;"">
                            <p style=""font-size:50px; font-weight:bold;""
                            >fearful</p>
                            <div style=""width:240px; margin: auto;"">
                                <img src=""images/map02_Greys_scaleRev_orientDef_180.png"" style= ""width:200px""alt=""img"">
                            </div>
                        </div>","33","","0","","","","images/map02_Greys_scaleRev_orientDef_180.png","fearful","1","02","02","Greys","orientDef","scaleRev","180","",""
"","","","","","html-slider-response","120","362217","0.0-116.0","8klzckev88","57","NaN","<div style=""width:500px;"">
                            <p style=""font-size:50px; font-weight:bold;""
                            >fearful</p>
                            <div style=""width:240px; margin: auto;"">
                                <img src=""images/map23_coolwarm_scaleRev_orientDef_000.png"" style= ""width:200px""alt=""img"">
                            </div>
                        </div>","-36","","0","","","","images/map23_coolwarm_scaleRev_orientDef_000.png","fearful","1","23","23","coolwarm","orientDef","scaleRev","000","",""
"","","","","","html-slider-response","121","368284","0.0-117.0","8klzckev88","57","NaN","<div style=""width:500px;"">
                            <p style=""font-size:50px; font-weight:bold;""
                            >fearful</p>
                            <div style=""width:240px; margin: auto;"">
                                <img src=""images/map05_Oranges_scaleDef_orientDef_090.png"" style= ""width:200px""alt=""img"">
                            </div>
                        </div>","-200","","0","","","","images/map05_Oranges_scaleDef_orientDef_090.png","fearful","1","05","05","Oranges","orientDef","scaleDef","090","",""
"","","","","","html-slider-response","122","371433","0.0-118.0","8klzckev88","57","NaN","<div style=""width:500px;"">
                            <p style=""font-size:50px; font-weight:bold;""
                            >fearful</p>
                            <div style=""width:240px; margin: auto;"">
                                <img src=""images/map15_RdYlGn_scaleRev_orientMir_000.png"" style= ""width:200px""alt=""img"">
                            </div>
                        </div>","68","","0","","","","images/map15_RdYlGn_scaleRev_orientMir_000.png","fearful","1","15","15","RdYlGn","orientMir","scaleRev","000","",""
"","","","","","html-slider-response","123","375249","0.0-119.0","8klzckev88","57","NaN","<div style=""width:500px;"">
                            <p style=""font-size:50px; font-weight:bold;""
                            >fearful</p>
                            <div style=""width:240px; margin: auto;"">
                                <img src=""images/map15_Spectral_scaleDef_orientMir_090.png"" style= ""width:200px""alt=""img"">
                            </div>
                        </div>","88","","0","","","","images/map15_Spectral_scaleDef_orientMir_090.png","fearful","1","15","15","Spectral","orientMir","scaleDef","090","",""
"","","","","","html-slider-response","124","377766","0.0-120.0","8klzckev88","57","NaN","<div style=""width:500px;"">
                            <p style=""font-size:50px; font-weight:bold;""
                            >fearful</p>
                            <div style=""width:240px; margin: auto;"">
                                <img src=""images/map12_PuBuGn_scaleRev_orientDef_000.png"" style= ""width:200px""alt=""img"">
                            </div>
                        </div>","-200","","0","","","","images/map12_PuBuGn_scaleRev_orientDef_000.png","fearful","1","12","12","PuBuGn","orientDef","scaleRev","000","",""
"","","","","","html-slider-response","125","383233","0.0-121.0","8klzckev88","57","NaN","<div style=""width:500px;"">
                            <p style=""font-size:50px; font-weight:bold;""
                            >fearful</p>
                            <div style=""width:240px; margin: auto;"">
                                <img src=""images/map26_vanimo_scaleRev_orientDef_180.png"" style= ""width:200px""alt=""img"">
                            </div>
                        </div>","129","","0","","","","images/map26_vanimo_scaleRev_orientDef_180.png","fearful","1","26","26","vanimo","orientDef","scaleRev","180","",""
"","","","","","html-slider-response","126","385666","0.0-122.0","8klzckev88","57","NaN","<div style=""width:500px;"">
                            <p style=""font-size:50px; font-weight:bold;""
                            >fearful</p>
                            <div style=""width:240px; margin: auto;"">
                                <img src=""images/map10_GnBu_scaleDef_orientDef_090.png"" style= ""width:200px""alt=""img"">
                            </div>
                        </div>","-200","","0","","","","images/map10_GnBu_scaleDef_orientDef_090.png","fearful","1","10","10","GnBu","orientDef","scaleDef","090","",""
"","","","","","html-slider-response","127","387548","0.0-123.0","8klzckev88","57","NaN","<div style=""width:500px;"">
                            <p style=""font-size:50px; font-weight:bold;""
                            >fearful</p>
                            <div style=""width:240px; margin: auto;"">
                                <img src=""images/map12_BuGn_scaleDef_orientDef_090.png"" style= ""width:200px""alt=""img"">
                            </div>
                        </div>","12","","0","","","","images/map12_BuGn_scaleDef_orientDef_090.png","fearful","1","12","12","BuGn","orientDef","scaleDef","090","",""
"","","","","","html-slider-response","128","389332","0.0-124.0","8klzckev88","57","NaN","<div style=""width:500px;"">
                            <p style=""font-size:50px; font-weight:bold;""
                            >fearful</p>
                            <div style=""width:240px; margin: auto;"">
                                <img src=""images/map02_cividis_scaleRev_orientDef_000.png"" style= ""width:200px""alt=""img"">
                            </div>
                        </div>","0","","0","","","","images/map02_cividis_scaleRev_orientDef_000.png","fearful","1","02","02","cividis","orientDef","scaleRev","000","",""
"","","","","","html-slider-response","129","391133","0.0-125.0","8klzckev88","57","NaN","<div style=""width:500px;"">
                            <p style=""font-size:50px; font-weight:bold;""
                            >fearful</p>
                            <div style=""width:240px; margin: auto;"">
                                <img src=""images/map13_BrBG_scaleDef_orientDef_090.png"" style= ""width:200px""alt=""img"">
                            </div>
                        </div>","-52","","0","","","","images/map13_BrBG_scaleDef_orientDef_090.png","fearful","1","13","13","BrBG","orientDef","scaleDef","090","",""
"","","","","","html-slider-response","130","394401","0.0-126.0","8klzckev88","57","NaN","<div style=""width:500px;"">
                            <p style=""font-size:50px; font-weight:bold;""
                            >fearful</p>
                            <div style=""width:240px; margin: auto;"">
                                <img src=""images/map15_Spectral_scaleRev_orientMir_180.png"" style= ""width:200px""alt=""img"">
                            </div>
                        </div>","200","","0","","","","images/map15_Spectral_scaleRev_orientMir_180.png","fearful","1","15","15","Spectral","orientMir","scaleRev","180","",""
"","","","","","html-slider-response","131","396733","0.0-127.0","8klzckev88","57","NaN","<div style=""width:500px;"">
                            <p style=""font-size:50px; font-weight:bold;""
                            >fearful</p>
                            <div style=""width:240px; margin: auto;"">
                                <img src=""images/map02_Greys_scaleDef_orientDef_090.png"" style= ""width:200px""alt=""img"">
                            </div>
                        </div>","59","","0","","","","images/map02_Greys_scaleDef_orientDef_090.png","fearful","1","02","02","Greys","orientDef","scaleDef","090","",""
"","","","","","html-slider-response","132","401466","0.0-128.0","8klzckev88","57","NaN","<div style=""width:500px;"">
                            <p style=""font-size:50px; font-weight:bold;""
                            >fearful</p>
                            <div style=""width:240px; margin: auto;"">
                                <img src=""images/map05_Reds_scaleDef_orientDef_270.png"" style= ""width:200px""alt=""img"">
                            </div>
                        </div>","200","","0","","","","images/map05_Reds_scaleDef_orientDef_270.png","fearful","1","05","05","Reds","orientDef","scaleDef","270","",""
"","","","","","html-slider-response","133","403199","0.0-129.0","8klzckev88","57","NaN","<div style=""width:500px;"">
                            <p style=""font-size:50px; font-weight:bold;""
                            >fearful</p>
                            <div style=""width:240px; margin: auto;"">
                                <img src=""images/map26_turbo_scaleDef_orientMir_090.png"" style= ""width:200px""alt=""img"">
                            </div>
                        </div>","5","","0","","","","images/map26_turbo_scaleDef_orientMir_090.png","fearful","1","26","26","turbo","orientMir","scaleDef","090","",""
"","","","","","html-slider-response","134","405364","0.0-130.0","8klzckev88","57","NaN","<div style=""width:500px;"">
                            <p style=""font-size:50px; font-weight:bold;""
                            >fearful</p>
                            <div style=""width:240px; margin: auto;"">
                                <img src=""images/map10_YlGnBu_scaleRev_orientMir_180.png"" style= ""width:200px""alt=""img"">
                            </div>
                        </div>","-200","","0","","","","images/map10_YlGnBu_scaleRev_orientMir_180.png","fearful","1","10","10","YlGnBu","orientMir","scaleRev","180","",""
"","","","","","html-slider-response","135","407532","0.0-131.0","8klzckev88","57","NaN","<div style=""width:500px;"">
                            <p style=""font-size:50px; font-weight:bold;""
                            >fearful</p>
                            <div style=""width:240px; margin: auto;"">
                                <img src=""images/map26_vanimo_scaleDef_orientDef_090.png"" style= ""width:200px""alt=""img"">
                            </div>
                        </div>","7","","0","","","","images/map26_vanimo_scaleDef_orientDef_090.png","fearful","1","26","26","vanimo","orientDef","scaleDef","090","",""
"","","","","","html-slider-response","136","409382","0.0-132.0","8klzckev88","57","NaN","<div style=""width:500px;"">
                            <p style=""font-size:50px; font-weight:bold;""
                            >fearful</p>
                            <div style=""width:240px; margin: auto;"">
                                <img src=""images/map13_RdBu_scaleDef_orientMir_270.png"" style= ""width:200px""alt=""img"">
                            </div>
                        </div>","39","","0","","","","images/map13_RdBu_scaleDef_orientMir_270.png","fearful","1","13","13","RdBu","orientMir","scaleDef","270","",""
"","","","","","html-slider-response","137","411850","0.0-133.0","8klzckev88","57","NaN","<div style=""width:500px;"">
                            <p style=""font-size:50px; font-weight:bold;""
                            >fearful</p>
                            <div style=""width:240px; margin: auto;"">
                                <img src=""images/map15_RdBu_scaleRev_orientDef_000.png"" style= ""width:200px""alt=""img"">
                            </div>
                        </div>","150","","0","","","","images/map15_RdBu_scaleRev_orientDef_000.png","fearful","1","15","15","RdBu","orientDef","scaleRev","000","",""
"","","","","","html-slider-response","138","414765","0.0-134.0","8klzckev88","57","NaN","<div style=""width:500px;"">
                            <p style=""font-size:50px; font-weight:bold;""
                            >fearful</p>
                            <div style=""width:240px; margin: auto;"">
                                <img src=""images/map07_OrRd_scaleRev_orientDef_180.png"" style= ""width:200px""alt=""img"">
                            </div>
                        </div>","146","","0","","","","images/map07_OrRd_scaleRev_orientDef_180.png","fearful","1","07","07","OrRd","orientDef","scaleRev","180","",""
"","","","","","html-slider-response","139","418033","0.0-135.0","8klzckev88","57","NaN","<div style=""width:500px;"">
                            <p style=""font-size:50px; font-weight:bold;""
                            >fearful</p>
                            <div style=""width:240px; margin: auto;"">
                                <img src=""images/map05_YlOrRd_scaleDef_orientMir_270.png"" style= ""width:200px""alt=""img"">
                            </div>
                        </div>","198","","0","","","","images/map05_YlOrRd_scaleDef_orientMir_270.png","fearful","1","05","05","YlOrRd","orientMir","scaleDef","270","",""
"","","","","","html-slider-response","140","420681","0.0-136.0","8klzckev88","57","NaN","<div style=""width:500px;"">
                            <p style=""font-size:50px; font-weight:bold;""
                            >fearful</p>
                            <div style=""width:240px; margin: auto;"">
                                <img src=""images/map10_PuBu_scaleRev_orientMir_000.png"" style= ""width:200px""alt=""img"">
                            </div>
                        </div>","-200","","0","","","","images/map10_PuBu_scaleRev_orientMir_000.png","fearful","1","10","10","PuBu","orientMir","scaleRev","000","",""
"","","","","","html-button-response","141","423703","0.0-137.0","8klzckev88","57","2520","<p>You are doing great!<br></br> You are halway done with the current block. When you are ready to continue, click the 'Continue' button.</p>","0","","","","","","","","","","","","","","","",""
"","","","","","html-slider-response","142","426199","0.0-138.0","8klzckev88","57","NaN","<div style=""width:500px;"">
                            <p style=""font-size:50px; font-weight:bold;""
                            >fearful</p>
                            <div style=""width:240px; margin: auto;"">
                                <img src=""images/map26_managua_scaleRev_orientDef_000.png"" style= ""width:200px""alt=""img"">
                            </div>
                        </div>","2","","0","","","","images/map26_managua_scaleRev_orientDef_000.png","fearful","1","26","26","managua","orientDef","scaleRev","000","",""
"","","","","","html-slider-response","143","428415","0.0-139.0","8klzckev88","57","NaN","<div style=""width:500px;"">
                            <p style=""font-size:50px; font-weight:bold;""
                            >fearful</p>
                            <div style=""width:240px; margin: auto;"">
                                <img src=""images/map15_RdYlBu_scaleDef_orientDef_090.png"" style= ""width:200px""alt=""img"">
                            </div>
                        </div>","-28","","0","","","","images/map15_RdYlBu_scaleDef_orientDef_090.png","fearful","1","15","15","RdYlBu","orientDef","scaleDef","090","",""
"","","","","","html-slider-response","144","430266","0.0-140.0","8klzckev88","57","NaN","<div style=""width:500px;"">
                            <p style=""font-size:50px; font-weight:bold;""
                            >fearful</p>
                            <div style=""width:240px; margin: auto;"">
                                <img src=""images/map27_plasma_scaleRev_orientDef_180.png"" style= ""width:200px""alt=""img"">
                            </div>
                        </div>","52","","0","","","","images/map27_plasma_scaleRev_orientDef_180.png","fearful","1","27","27","plasma","orientDef","scaleRev","180","",""
"","","","","","html-slider-response","145","432534","0.0-141.0","8klzckev88","57","NaN","<div style=""width:500px;"">
                            <p style=""font-size:50px; font-weight:bold;""
                            >fearful</p>
                            <div style=""width:240px; margin: auto;"">
                                <img src=""images/map13_PuOr_scaleRev_orientMir_000.png"" style= ""width:200px""alt=""img"">
                            </div>
                        </div>","30","","0","","","","images/map13_PuOr_scaleRev_orientMir_000.png","fearful","1","13","13","PuOr","orientMir","scaleRev","000","",""
"","","","","","html-slider-response","146","435100","0.0-142.0","8klzckev88","57","NaN","<div style=""width:500px;"">
                            <p style=""font-size:50px; font-weight:bold;""
                            >fearful</p>
                            <div style=""width:240px; margin: auto;"">
                                <img src=""images/map12_PRGn_scaleDef_orientMir_270.png"" style= ""width:200px""alt=""img"">
                            </div>
                        </div>","-125","","0","","","","images/map12_PRGn_scaleDef_orientMir_270.png","fearful","1","12","12","PRGn","orientMir","scaleDef","270","",""
"","","","","","html-slider-response","147","437632","0.0-143.0","8klzckev88","57","NaN","<div style=""width:500px;"">
                            <p style=""font-size:50px; font-weight:bold;""
                            >fearful</p>
                            <div style=""width:240px; margin: auto;"">
                                <img src=""images/map26_gist_earth_scaleDef_orientDef_270.png"" style= ""width:200px""alt=""img"">
                            </div>
                        </div>","-200","","0","","","","images/map26_gist_earth_scaleDef_orientDef_270.png","fearful","1","26","26","gist","scaleDef","earth","orientDef","",""
"","","","","","html-slider-response","148","439848","0.0-144.0","8klzckev88","57","NaN","<div style=""width:500px;"">
                            <p style=""font-size:50px; font-weight:bold;""
                            >fearful</p>
                            <div style=""width:240px; margin: auto;"">
                                <img src=""images/map15_RdYlBu_scaleRev_orientDef_180.png"" style= ""width:200px""alt=""img"">
                            </div>
                        </div>","14","","0","","","","images/map15_RdYlBu_scaleRev_orientDef_180.png","fearful","1","15","15","RdYlBu","orientDef","scaleRev","180","",""
"","","","","","html-slider-response","149","441931","0.0-145.0","8klzckev88","57","NaN","<div style=""width:500px;"">
                            <p style=""font-size:50px; font-weight:bold;""
                            >fearful</p>
                            <div style=""width:240px; margin: auto;"">
                                <img src=""images/map15_coolwarm_scaleDef_orientMir_270.png"" style= ""width:200px""alt=""img"">
                            </div>
                        </div>","-20","","0","","","","images/map15_coolwarm_scaleDef_orientMir_270.png","fearful","1","15","15","coolwarm","orientMir","scaleDef","270","",""
"","","","","","html-slider-response","150","445614","0.0-146.0","8klzckev88","57","NaN","<div style=""width:500px;"">
                            <p style=""font-size:50px; font-weight:bold;""
                            >fearful</p>
                            <div style=""width:240px; margin: auto;"">
                                <img src=""images/map07_PuRd_scaleDef_orientDef_270.png"" style= ""width:200px""alt=""img"">
                            </div>
                        </div>","64","","0","","","","images/map07_PuRd_scaleDef_orientDef_270.png","fearful","1","07","07","PuRd","orientDef","scaleDef","270","",""
"","","","","","html-slider-response","151","447649","0.0-147.0","8klzckev88","57","NaN","<div style=""width:500px;"">
                            <p style=""font-size:50px; font-weight:bold;""
                            >fearful</p>
                            <div style=""width:240px; margin: auto;"">
                                <img src=""images/map23_berlin_scaleDef_orientMir_090.png"" style= ""width:200px""alt=""img"">
                            </div>
                        </div>","-121","","0","","","","images/map23_berlin_scaleDef_orientMir_090.png","fearful","1","23","23","berlin","orientMir","scaleDef","090","",""
"","","","","","html-slider-response","152","449715","0.0-148.0","8klzckev88","57","NaN","<div style=""width:500px;"">
                            <p style=""font-size:50px; font-weight:bold;""
                            >fearful</p>
                            <div style=""width:240px; margin: auto;"">
                                <img src=""images/map07_BuPu_scaleDef_orientMir_270.png"" style= ""width:200px""alt=""img"">
                            </div>
                        </div>","47","","0","","","","images/map07_BuPu_scaleDef_orientMir_270.png","fearful","1","07","07","BuPu","orientMir","scaleDef","270","",""
"","","","","","html-slider-response","153","456415","0.0-149.0","8klzckev88","57","NaN","<div style=""width:500px;"">
                            <p style=""font-size:50px; font-weight:bold;""
                            >fearful</p>
                            <div style=""width:240px; margin: auto;"">
                                <img src=""images/map27_inferno_scaleRev_orientMir_000.png"" style= ""width:200px""alt=""img"">
                            </div>
                        </div>","19","","0","","","","images/map27_inferno_scaleRev_orientMir_000.png","fearful","1","27","27","inferno","orientMir","scaleRev","000","",""
"","","","","","html-slider-response","154","458315","0.0-150.0","8klzckev88","57","NaN","<div style=""width:500px;"">
                            <p style=""font-size:50px; font-weight:bold;""
                            >fearful</p>
                            <div style=""width:240px; margin: auto;"">
                                <img src=""images/map13_PRGn_scaleRev_orientDef_000.png"" style= ""width:200px""alt=""img"">
                            </div>
                        </div>","50","","0","","","","images/map13_PRGn_scaleRev_orientDef_000.png","fearful","1","13","13","PRGn","orientDef","scaleRev","000","",""
"","","","","","html-slider-response","155","460364","0.0-151.0","8klzckev88","57","NaN","<div style=""width:500px;"">
                            <p style=""font-size:50px; font-weight:bold;""
                            >fearful</p>
                            <div style=""width:240px; margin: auto;"">
                                <img src=""images/map13_PuOr_scaleDef_orientDef_270.png"" style= ""width:200px""alt=""img"">
                            </div>
                        </div>","-36","","0","","","","images/map13_PuOr_scaleDef_orientDef_270.png","fearful","1","13","13","PuOr","orientDef","scaleDef","270","",""
"","","","","","html-slider-response","156","462082","0.0-152.0","8klzckev88","57","NaN","<div style=""width:500px;"">
                            <p style=""font-size:50px; font-weight:bold;""
                            >fearful</p>
                            <div style=""width:240px; margin: auto;"">
                                <img src=""images/map23_bwr_scaleDef_orientDef_090.png"" style= ""width:200px""alt=""img"">
                            </div>
                        </div>","3","","0","","","","images/map23_bwr_scaleDef_orientDef_090.png","fearful","1","23","23","bwr","orientDef","scaleDef","090","",""
"","","","","","html-slider-response","157","464399","0.0-153.0","8klzckev88","57","NaN","<div style=""width:500px;"">
                            <p style=""font-size:50px; font-weight:bold;""
