"success","timeout","failed_images","failed_audio","failed_video","trial_type","trial_index","time_elapsed","internal_node_id","subject_id","condition_num","rt","stimulus","response","question_order","slider_start","practiceTrial","practiceTrialNum","correct","image_path","concept","repetition","map_id","map_num","scale_name","orientation_code","mapping_code","rotation_code","ishihara_plate","correct_response"
"true","false","[]","[]","[]","preload","0","500","0.0-0.0","a6uby74yjn","9","","","","","","","","","","","","","","","","","","",""
"","","","","","html-button-response","1","1466","0.0-1.0","a6uby74yjn","9","964","Welcome to our experiment!<p>At the bottom of this screen, you will see a button that says ""Begin Experiment"".<br>Please only click that button when you are ready to complete the 30 minute experiment in one sitting.</p><p> Once you click that button, it will not be possible to restart the experiment.","0","","","","","","","","","","","","","","","",""
"true","","","","","fullscreen","2","3248","0.0-2.0","a6uby74yjn","9","779","","","","","","","","","","","","","","","","","",""
"","","","","","survey-multi-select","3","6169","0.0-3.0","a6uby74yjn","9","2917","","{""Consent"":[""<strong>I consent</strong>""]}","[0]","","","","","","","","","","","","","","",""
"","","","","","html-button-response","4","7425","0.0-4.0","a6uby74yjn","9","1255","Welcome! <p> This experiment involves two parts: demographic information, followed by the experimental task.<p> It will take about 30 minutes to complete both parts.","0","","","","","","","","","","","","","","","",""
"","","","","","survey-text","5","16256","0.0-5.0","a6uby74yjn","9","8823","","{""Age"":""18"",""Gender"":""female"",""Race/ethnicity"":""white"",""Languages"":""english, french""}","","","","","","","","","","","","","","","",""
"","","","","","html-slider-response","6","22411","0.0-6.0","a6uby74yjn","9","6151","<div style='text-align:left; font-size:20px; line-height:25px; width: 1000px;'>
                                During this experiment you will be asked to rate how much you associate maps with                    different concepts.<br> Below, you can see some examples of the maps you will be asked to rate. Above the maps
                    is the list of concepts.<br>You will be asked                    to rate how much you associate each map with each concept on a scale from 'not at all' to 'very much' like the
                    one below. <br><br>
                    Now, please look at the list of concepts and maps. For each concept, think about the map you associate 'very
                    much' with the concept.<br>                     When you see that map during the experiment, please rate it near the 'very much' endpoint of the
                    scale.<br>Now, please think about which map you associate 'not at all'                     with each concept. When you see that map during the experiment, please rate it near the 'not at all' endpoint
                    of the scale.<br>
                    Please use the full range of the scale. That is, if a map is somewhat associated with the concept, you would
                    click partway between the middle point and right side of the scale.                    You will be asked to rate each map for a given concept before moving on to the next concept.<br>Press the
                    'Continue' button for instructions on how to use the slider.                    <br>
                </div>

                <div style=""width: 500px; margin: 0 auto;"">
                    <!-- Centered text paragraphs -->
                    <div style=""text-align: center; width: 500px;"">
                        <p style=""font-size:25px; line-height:15px;"">
                            disgust&nbsp;&nbsp;&nbsp;&nbsp;
                            happy&nbsp;&nbsp;&nbsp;&nbsp;
                            angry&nbsp;&nbsp;&nbsp;&nbsp;
                            fearful&nbsp;&nbsp;&nbsp;&nbsp;
                            sad
                        </p>
                        <!-- <p style=""font-size:20px; line-height:15px;"">happy</p>
                        <p style=""font-size:20px;line-height:15px;"">angry</p>
                        <p style=""font-size:20px;line-height:15px;"">fearful</p>
                        <p style=""font-size:20px;line-height:15px;"">sad</p> -->
                    </div>
            

                    <!-- Grid section -->
                   <div style=""display: flex; justify-content: center; padding-top: 15px;"">
                    <div style=""display: grid; grid-template-columns: repeat(10, 55px); grid-gap: 5px; width: auto;"">
                        <img src=""images/map13_YlGnBu_scaleDef_orientMir_270.png"" alt=""map"" style=""width: 100%;""><img src=""images/map05_plasma_scaleRev_orientMir_000.png"" alt=""map"" style=""width: 100%;""><img src=""images/map10_Oranges_scaleDef_orientDef_270.png"" alt=""map"" style=""width: 100%;""><img src=""images/map13_PuBu_scaleRev_orientMir_180.png"" alt=""map"" style=""width: 100%;""><img src=""images/map27_bwr_scaleDef_orientDef_270.png"" alt=""map"" style=""width: 100%;""><img src=""images/map05_turbo_scaleRev_orientDef_000.png"" alt=""map"" style=""width: 100%;""><img src=""images/map23_RdGy_scaleDef_orientMir_270.png"" alt=""map"" style=""width: 100%;""><img src=""images/map07_Greys_scaleRev_orientMir_000.png"" alt=""map"" style=""width: 100%;""><img src=""images/map26_Spectral_scaleDef_orientMir_270.png"" alt=""map"" style=""width: 100%;""><img src=""images/map12_OrRd_scaleDef_orientDef_270.png"" alt=""map"" style=""width: 100%;""><img src=""images/map07_Purples_scaleRev_orientMir_180.png"" alt=""map"" style=""width: 100%;""><img src=""images/map02_vanimo_scaleRev_orientMir_000.png"" alt=""map"" style=""width: 100%;""><img src=""images/map05_viridis_scaleRev_orientDef_180.png"" alt=""map"" style=""width: 100%;""><img src=""images/map05_inferno_scaleRev_orientMir_180.png"" alt=""map"" style=""width: 100%;""><img src=""images/map15_PiYG_scaleDef_orientMir_270.png"" alt=""map"" style=""width: 100%;""><img src=""images/map10_Reds_scaleRev_orientMir_180.png"" alt=""map"" style=""width: 100%;""><img src=""images/map26_RdYlBu_scaleDef_orientDef_270.png"" alt=""map"" style=""width: 100%;""><img src=""images/map26_RdBu_scaleDef_orientDef_090.png"" alt=""map"" style=""width: 100%;""><img src=""images/map12_PuRd_scaleDef_orientMir_090.png"" alt=""map"" style=""width: 100%;""><img src=""images/map13_BuPu_scaleRev_orientDef_180.png"" alt=""map"" style=""width: 100%;""><img src=""images/map10_YlOrBr_scaleDef_orientMir_270.png"" alt=""map"" style=""width: 100%;""><img src=""images/map27_coolwarm_scaleDef_orientDef_090.png"" alt=""map"" style=""width: 100%;""><img src=""images/map26_RdYlGn_scaleDef_orientMir_090.png"" alt=""map"" style=""width: 100%;""><img src=""images/map07_magma_scaleRev_orientDef_000.png"" alt=""map"" style=""width: 100%;""><img src=""images/map07_cividis_scaleRev_orientDef_180.png"" alt=""map"" style=""width: 100%;""><img src=""images/map12_RdPu_scaleDef_orientMir_270.png"" alt=""map"" style=""width: 100%;""><img src=""images/map02_managua_scaleRev_orientDef_180.png"" alt=""map"" style=""width: 100%;""><img src=""images/map15_BuGn_scaleDef_orientDef_270.png"" alt=""map"" style=""width: 100%;""><img src=""images/map23_BrBG_scaleDef_orientDef_270.png"" alt=""map"" style=""width: 100%;""><img src=""images/map27_seismic_scaleRev_orientMir_180.png"" alt=""map"" style=""width: 100%;""><img src=""images/map02_berlin_scaleRev_orientDef_000.png"" alt=""map"" style=""width: 100%;""><img src=""images/map13_GnBu_scaleDef_orientDef_270.png"" alt=""map"" style=""width: 100%;""><img src=""images/map12_YlOrRd_scaleRev_orientDef_180.png"" alt=""map"" style=""width: 100%;""><img src=""images/map15_PuBuGn_scaleDef_orientDef_090.png"" alt=""map"" style=""width: 100%;""><img src=""images/map02_gist_earth_scaleRev_orientMir_180.png"" alt=""map"" style=""width: 100%;""><img src=""images/map23_PRGn_scaleRev_orientDef_180.png"" alt=""map"" style=""width: 100%;""><img src=""images/map07_Blues_scaleDef_orientMir_270.png"" alt=""map"" style=""width: 100%;""><img src=""images/map10_Greens_scaleRev_orientDef_180.png"" alt=""map"" style=""width: 100%;""><img src=""images/map15_YlGn_scaleDef_orientMir_090.png"" alt=""map"" style=""width: 100%;""><img src=""images/map23_PuOr_scaleRev_orientMir_180.png"" alt=""map"" style=""width: 100%;"">
                    </div>
                </div>

                    <!-- Clear floats -->
                    <div style=""clear: both;""></div>
                </div>
                            ","null","","0","true","","","","","","","","","","","","",""
"","","","","","html-button-response","7","24614","0.0-7.0","a6uby74yjn","9","2201","<div style=""width:800px;""><p style=""text-align:left"">To move the slider, click and drag your cursor to the location of the scale where you would like to make your rating and then let go. When you let go of the slider, your response will be recorded and the next trial will begin. <br>
                    We are interested in your initial impressions of each map for the given concept, so please go with your first intuition. <br>
                    Before you begin the experiment, there will be four training trials for you to practice using the scale. <br>
                     When you are ready to start the training trials, please click ""Continue"".</p><br></div>","0","","","","","","","","","","","","","","","",""
"","","","","","html-slider-response","8","27817","0.0-8.0-0.0","a6uby74yjn","9","NaN","<div style=""width:500px;"">
                                    <p style=""font-size:25px;"">Please move the slider all the way to the <br> right endpoint of the scale</p>

                                    </div>
                                </div>","200","","0","true","0","true","","","","","","","","","","",""
"","","","","","html-button-response","9","29337","0.0-8.0-1.0","a6uby74yjn","9","1017","<p align='center'><b>Good job!</b> Click on 'Continue' to proceed.</p>","0","","","","","","","","","","","","","","","",""
"","","","","","html-slider-response","10","31159","0.0-9.0-0.0","a6uby74yjn","9","NaN","<div style=""width:500px;"">
                                    <p style=""font-size:25px;"">Please move the slider all the way to the <br> left endpoint of the scale</p>

                                    </div>
                                </div>","-200","","0","true","1","true","","","","","","","","","","",""
"","","","","","html-button-response","11","32371","0.0-9.0-1.0","a6uby74yjn","9","709","<p align='center'><b>Good job!</b> Click on 'Continue' to proceed.</p>","0","","","","","","","","","","","","","","","",""
"","","","","","html-slider-response","12","35945","0.0-10.0-0.0","a6uby74yjn","9","NaN","<div style=""width:500px;"">
                                    <p style=""font-size:25px;"">Please move the slider halfway between the center and right endpoint of the scale</p>

                                    </div>
                                </div>","110","","0","true","2","true","","","","","","","","","","",""
"","","","","","html-button-response","13","37127","0.0-10.0-1.0","a6uby74yjn","9","679","<p align='center'><b>Good job!</b> Click on 'Continue' to proceed.</p>","0","","","","","","","","","","","","","","","",""
"","","","","","html-slider-response","14","38942","0.0-11.0-0.0","a6uby74yjn","9","NaN","<div style=""width:500px;"">
                                    <p style=""font-size:25px;"">Please move the slider halfway between the center and left endpoint of the scale</p>

                                    </div>
                                </div>","-102","","0","true","3","true","","","","","","","","","","",""
"","","","","","html-button-response","15","40303","0.0-11.0-1.0","a6uby74yjn","9","858","<p align='center'><b>Good job!</b> Click on 'Continue' to proceed.</p>","0","","","","","","","","","","","","","","","",""
"","","","","","html-button-response","16","41308","0.0-12.0","a6uby74yjn","9","1004","<p>Great job! You've completed the practice trials. Now you will begin the main task.</p>","0","","","","","","","","","","","","","","","",""
"","","","","","html-button-response","17","43535","0.0-13.0","a6uby74yjn","9","2227","<p>In this block of trials, you will be asked to rate how much you associate each map with:</p > <p style = 'font-size:150%; font-weight: bold'>disgust</p><br></br>","0","","","","","","","","","","","","","","","",""
"","","","","","html-slider-response","18","45295","0.0-14.0","a6uby74yjn","9","NaN","<div style=""width:500px;"">
                            <p style=""font-size:50px; font-weight:bold;""
                            >disgust</p>
                            <div style=""width:240px; margin: auto;"">
                                <img src=""images/map26_RdYlGn_scaleRev_orientMir_180.png"" style= ""width:200px""alt=""img"">
                            </div>
                        </div>","140","","0","","","","images/map26_RdYlGn_scaleRev_orientMir_180.png","disgust","1","26","26","RdYlGn","orientMir","scaleRev","180","",""
"","","","","","html-slider-response","19","47885","0.0-15.0","a6uby74yjn","9","NaN","<div style=""width:500px;"">
                            <p style=""font-size:50px; font-weight:bold;""
                            >disgust</p>
                            <div style=""width:240px; margin: auto;"">
                                <img src=""images/map07_magma_scaleRev_orientDef_000.png"" style= ""width:200px""alt=""img"">
                            </div>
                        </div>","-141","","0","","","","images/map07_magma_scaleRev_orientDef_000.png","disgust","1","07","07","magma","orientDef","scaleRev","000","",""
"","","","","","html-slider-response","20","49954","0.0-16.0","a6uby74yjn","9","NaN","<div style=""width:500px;"">
                            <p style=""font-size:50px; font-weight:bold;""
                            >disgust</p>
                            <div style=""width:240px; margin: auto;"">
                                <img src=""images/map27_seismic_scaleRev_orientMir_180.png"" style= ""width:200px""alt=""img"">
                            </div>
                        </div>","-153","","0","","","","images/map27_seismic_scaleRev_orientMir_180.png","disgust","1","27","27","seismic","orientMir","scaleRev","180","",""
"","","","","","html-slider-response","21","51902","0.0-17.0","a6uby74yjn","9","NaN","<div style=""width:500px;"">
                            <p style=""font-size:50px; font-weight:bold;""
                            >disgust</p>
                            <div style=""width:240px; margin: auto;"">
                                <img src=""images/map23_PRGn_scaleDef_orientDef_090.png"" style= ""width:200px""alt=""img"">
                            </div>
                        </div>","174","","0","","","","images/map23_PRGn_scaleDef_orientDef_090.png","disgust","1","23","23","PRGn","orientDef","scaleDef","090","",""
"","","","","","html-slider-response","22","53728","0.0-18.0","a6uby74yjn","9","NaN","<div style=""width:500px;"">
                            <p style=""font-size:50px; font-weight:bold;""
                            >disgust</p>
                            <div style=""width:240px; margin: auto;"">
                                <img src=""images/map05_inferno_scaleRev_orientMir_180.png"" style= ""width:200px""alt=""img"">
                            </div>
                        </div>","-162","","0","","","","images/map05_inferno_scaleRev_orientMir_180.png","disgust","1","05","05","inferno","orientMir","scaleRev","180","",""
"","","","","","html-slider-response","23","55764","0.0-19.0","a6uby74yjn","9","NaN","<div style=""width:500px;"">
                            <p style=""font-size:50px; font-weight:bold;""
                            >disgust</p>
                            <div style=""width:240px; margin: auto;"">
                                <img src=""images/map27_berlin_scaleDef_orientMir_270.png"" style= ""width:200px""alt=""img"">
                            </div>
                        </div>","-181","","0","","","","images/map27_berlin_scaleDef_orientMir_270.png","disgust","1","27","27","berlin","orientMir","scaleDef","270","",""
"","","","","","html-slider-response","24","57512","0.0-20.0","a6uby74yjn","9","NaN","<div style=""width:500px;"">
                            <p style=""font-size:50px; font-weight:bold;""
                            >disgust</p>
                            <div style=""width:240px; margin: auto;"">
                                <img src=""images/map05_viridis_scaleRev_orientDef_180.png"" style= ""width:200px""alt=""img"">
                            </div>
                        </div>","200","","0","","","","images/map05_viridis_scaleRev_orientDef_180.png","disgust","1","05","05","viridis","orientDef","scaleRev","180","",""
"","","","","","html-slider-response","25","59158","0.0-21.0","a6uby74yjn","9","NaN","<div style=""width:500px;"">
                            <p style=""font-size:50px; font-weight:bold;""
                            >disgust</p>
                            <div style=""width:240px; margin: auto;"">
                                <img src=""images/map15_YlGn_scaleDef_orientMir_090.png"" style= ""width:200px""alt=""img"">
                            </div>
                        </div>","200","","0","","","","images/map15_YlGn_scaleDef_orientMir_090.png","disgust","1","15","15","YlGn","orientMir","scaleDef","090","",""
"","","","","","html-slider-response","26","60928","0.0-22.0","a6uby74yjn","9","NaN","<div style=""width:500px;"">
                            <p style=""font-size:50px; font-weight:bold;""
                            >disgust</p>
                            <div style=""width:240px; margin: auto;"">
                                <img src=""images/map27_seismic_scaleDef_orientMir_090.png"" style= ""width:200px""alt=""img"">
                            </div>
                        </div>","-151","","0","","","","images/map27_seismic_scaleDef_orientMir_090.png","disgust","1","27","27","seismic","orientMir","scaleDef","090","",""
"","","","","","html-slider-response","27","62699","0.0-23.0","a6uby74yjn","9","NaN","<div style=""width:500px;"">
                            <p style=""font-size:50px; font-weight:bold;""
                            >disgust</p>
                            <div style=""width:240px; margin: auto;"">
                                <img src=""images/map26_Spectral_scaleDef_orientMir_270.png"" style= ""width:200px""alt=""img"">
                            </div>
                        </div>","-140","","0","","","","images/map26_Spectral_scaleDef_orientMir_270.png","disgust","1","26","26","Spectral","orientMir","scaleDef","270","",""
"","","","","","html-slider-response","28","64375","0.0-24.0","a6uby74yjn","9","NaN","<div style=""width:500px;"">
                            <p style=""font-size:50px; font-weight:bold;""
                            >disgust</p>
                            <div style=""width:240px; margin: auto;"">
                                <img src=""images/map02_gist_earth_scaleRev_orientMir_180.png"" style= ""width:200px""alt=""img"">
                            </div>
                        </div>","93","","0","","","","images/map02_gist_earth_scaleRev_orientMir_180.png","disgust","1","02","02","gist","scaleRev","earth","orientMir","",""
"","","","","","html-slider-response","29","65834","0.0-25.0","a6uby74yjn","9","NaN","<div style=""width:500px;"">
                            <p style=""font-size:50px; font-weight:bold;""
                            >disgust</p>
                            <div style=""width:240px; margin: auto;"">
                                <img src=""images/map05_magma_scaleDef_orientMir_270.png"" style= ""width:200px""alt=""img"">
                            </div>
                        </div>","-110","","0","","","","images/map05_magma_scaleDef_orientMir_270.png","disgust","1","05","05","magma","orientMir","scaleDef","270","",""
"","","","","","html-slider-response","30","67487","0.0-26.0","a6uby74yjn","9","NaN","<div style=""width:500px;"">
                            <p style=""font-size:50px; font-weight:bold;""
                            >disgust</p>
                            <div style=""width:240px; margin: auto;"">
                                <img src=""images/map27_bwr_scaleRev_orientMir_000.png"" style= ""width:200px""alt=""img"">
                            </div>
                        </div>","-165","","0","","","","images/map27_bwr_scaleRev_orientMir_000.png","disgust","1","27","27","bwr","orientMir","scaleRev","000","",""
"","","","","","html-slider-response","31","69185","0.0-27.0","a6uby74yjn","9","NaN","<div style=""width:500px;"">
                            <p style=""font-size:50px; font-weight:bold;""
                            >disgust</p>
                            <div style=""width:240px; margin: auto;"">
                                <img src=""images/map23_PuOr_scaleDef_orientMir_090.png"" style= ""width:200px""alt=""img"">
                            </div>
                        </div>","-174","","0","","","","images/map23_PuOr_scaleDef_orientMir_090.png","disgust","1","23","23","PuOr","orientMir","scaleDef","090","",""
"","","","","","html-slider-response","32","70717","0.0-28.0","a6uby74yjn","9","NaN","<div style=""width:500px;"">
                            <p style=""font-size:50px; font-weight:bold;""
                            >disgust</p>
                            <div style=""width:240px; margin: auto;"">
                                <img src=""images/map27_coolwarm_scaleDef_orientDef_090.png"" style= ""width:200px""alt=""img"">
                            </div>
                        </div>","-145","","0","","","","images/map27_coolwarm_scaleDef_orientDef_090.png","disgust","1","27","27","coolwarm","orientDef","scaleDef","090","",""
"","","","","","html-slider-response","33","72355","0.0-29.0","a6uby74yjn","9","NaN","<div style=""width:500px;"">
                            <p style=""font-size:50px; font-weight:bold;""
                            >disgust</p>
                            <div style=""width:240px; margin: auto;"">
                                <img src=""images/map07_Purples_scaleDef_orientMir_090.png"" style= ""width:200px""alt=""img"">
                            </div>
                        </div>","-142","","0","","","","images/map07_Purples_scaleDef_orientMir_090.png","disgust","1","07","07","Purples","orientMir","scaleDef","090","",""
"","","","","","html-slider-response","34","74663","0.0-30.0","a6uby74yjn","9","NaN","<div style=""width:500px;"">
                            <p style=""font-size:50px; font-weight:bold;""
                            >disgust</p>
                            <div style=""width:240px; margin: auto;"">
                                <img src=""images/map02_turbo_scaleDef_orientMir_270.png"" style= ""width:200px""alt=""img"">
                            </div>
                        </div>","94","","0","","","","images/map02_turbo_scaleDef_orientMir_270.png","disgust","1","02","02","turbo","orientMir","scaleDef","270","",""
"","","","","","html-slider-response","35","76431","0.0-31.0","a6uby74yjn","9","NaN","<div style=""width:500px;"">
                            <p style=""font-size:50px; font-weight:bold;""
                            >disgust</p>
                            <div style=""width:240px; margin: auto;"">
                                <img src=""images/map27_bwr_scaleDef_orientDef_270.png"" style= ""width:200px""alt=""img"">
                            </div>
                        </div>","-117","","0","","","","images/map27_bwr_scaleDef_orientDef_270.png","disgust","1","27","27","bwr","orientDef","scaleDef","270","",""
"","","","","","html-slider-response","36","78109","0.0-32.0","a6uby74yjn","9","NaN","<div style=""width:500px;"">
                            <p style=""font-size:50px; font-weight:bold;""
                            >disgust</p>
                            <div style=""width:240px; margin: auto;"">
                                <img src=""images/map23_PiYG_scaleRev_orientDef_000.png"" style= ""width:200px""alt=""img"">
                            </div>
                        </div>","54","","0","","","","images/map23_PiYG_scaleRev_orientDef_000.png","disgust","1","23","23","PiYG","orientDef","scaleRev","000","",""
"","","","","","html-slider-response","37","79759","0.0-33.0","a6uby74yjn","9","NaN","<div style=""width:500px;"">
                            <p style=""font-size:50px; font-weight:bold;""
                            >disgust</p>
                            <div style=""width:240px; margin: auto;"">
                                <img src=""images/map13_PuBu_scaleDef_orientMir_090.png"" style= ""width:200px""alt=""img"">
                            </div>
                        </div>","-95","","0","","","","images/map13_PuBu_scaleDef_orientMir_090.png","disgust","1","13","13","PuBu","orientMir","scaleDef","090","",""
"","","","","","html-slider-response","38","81476","0.0-34.0","a6uby74yjn","9","NaN","<div style=""width:500px;"">
                            <p style=""font-size:50px; font-weight:bold;""
                            >disgust</p>
                            <div style=""width:240px; margin: auto;"">
                                <img src=""images/map13_GnBu_scaleDef_orientDef_270.png"" style= ""width:200px""alt=""img"">
                            </div>
                        </div>","54","","0","","","","images/map13_GnBu_scaleDef_orientDef_270.png","disgust","1","13","13","GnBu","orientDef","scaleDef","270","",""
"","","","","","html-slider-response","39","83119","0.0-35.0","a6uby74yjn","9","NaN","<div style=""width:500px;"">
                            <p style=""font-size:50px; font-weight:bold;""
                            >disgust</p>
                            <div style=""width:240px; margin: auto;"">
                                <img src=""images/map10_Reds_scaleDef_orientMir_090.png"" style= ""width:200px""alt=""img"">
                            </div>
                        </div>","-138","","0","","","","images/map10_Reds_scaleDef_orientMir_090.png","disgust","1","10","10","Reds","orientMir","scaleDef","090","",""
"","","","","","html-slider-response","40","84810","0.0-36.0","a6uby74yjn","9","NaN","<div style=""width:500px;"">
                            <p style=""font-size:50px; font-weight:bold;""
                            >disgust</p>
                            <div style=""width:240px; margin: auto;"">
                                <img src=""images/map13_BuPu_scaleDef_orientDef_090.png"" style= ""width:200px""alt=""img"">
                            </div>
                        </div>","-126","","0","","","","images/map13_BuPu_scaleDef_orientDef_090.png","disgust","1","13","13","BuPu","orientDef","scaleDef","090","",""
"","","","","","html-slider-response","41","86336","0.0-37.0","a6uby74yjn","9","NaN","<div style=""width:500px;"">
                            <p style=""font-size:50px; font-weight:bold;""
                            >disgust</p>
                            <div style=""width:240px; margin: auto;"">
                                <img src=""images/map12_OrRd_scaleRev_orientMir_000.png"" style= ""width:200px""alt=""img"">
                            </div>
                        </div>","-149","","0","","","","images/map12_OrRd_scaleRev_orientMir_000.png","disgust","1","12","12","OrRd","orientMir","scaleRev","000","",""
"","","","","","html-slider-response","42","88395","0.0-38.0","a6uby74yjn","9","NaN","<div style=""width:500px;"">
                            <p style=""font-size:50px; font-weight:bold;""
                            >disgust</p>
                            <div style=""width:240px; margin: auto;"">
                                <img src=""images/map26_RdGy_scaleRev_orientDef_000.png"" style= ""width:200px""alt=""img"">
                            </div>
                        </div>","-136","","0","","","","images/map26_RdGy_scaleRev_orientDef_000.png","disgust","1","26","26","RdGy","orientDef","scaleRev","000","",""
"","","","","","html-slider-response","43","90282","0.0-39.0","a6uby74yjn","9","NaN","<div style=""width:500px;"">
                            <p style=""font-size:50px; font-weight:bold;""
                            >disgust</p>
                            <div style=""width:240px; margin: auto;"">
                                <img src=""images/map10_Blues_scaleRev_orientDef_000.png"" style= ""width:200px""alt=""img"">
                            </div>
                        </div>","-146","","0","","","","images/map10_Blues_scaleRev_orientDef_000.png","disgust","1","10","10","Blues","orientDef","scaleRev","000","",""
"","","","","","html-slider-response","44","92218","0.0-40.0","a6uby74yjn","9","NaN","<div style=""width:500px;"">
                            <p style=""font-size:50px; font-weight:bold;""
                            >disgust</p>
                            <div style=""width:240px; margin: auto;"">
                                <img src=""images/map15_PiYG_scaleDef_orientMir_270.png"" style= ""width:200px""alt=""img"">
                            </div>
                        </div>","106","","0","","","","images/map15_PiYG_scaleDef_orientMir_270.png","disgust","1","15","15","PiYG","orientMir","scaleDef","270","",""
"","","","","","html-slider-response","45","94005","0.0-41.0","a6uby74yjn","9","NaN","<div style=""width:500px;"">
                            <p style=""font-size:50px; font-weight:bold;""
                            >disgust</p>
                            <div style=""width:240px; margin: auto;"">
                                <img src=""images/map26_RdBu_scaleDef_orientDef_090.png"" style= ""width:200px""alt=""img"">
                            </div>
                        </div>","-115","","0","","","","images/map26_RdBu_scaleDef_orientDef_090.png","disgust","1","26","26","RdBu","orientDef","scaleDef","090","",""
"","","","","","html-slider-response","46","95625","0.0-42.0","a6uby74yjn","9","NaN","<div style=""width:500px;"">
                            <p style=""font-size:50px; font-weight:bold;""
                            >disgust</p>
                            <div style=""width:240px; margin: auto;"">
                                <img src=""images/map12_OrRd_scaleDef_orientDef_270.png"" style= ""width:200px""alt=""img"">
                            </div>
                        </div>","-140","","0","","","","images/map12_OrRd_scaleDef_orientDef_270.png","disgust","1","12","12","OrRd","orientDef","scaleDef","270","",""
"","","","","","html-slider-response","47","97340","0.0-43.0","a6uby74yjn","9","NaN","<div style=""width:500px;"">
                            <p style=""font-size:50px; font-weight:bold;""
                            >disgust</p>
                            <div style=""width:240px; margin: auto;"">
                                <img src=""images/map27_coolwarm_scaleRev_orientDef_180.png"" style= ""width:200px""alt=""img"">
                            </div>
                        </div>","-178","","0","","","","images/map27_coolwarm_scaleRev_orientDef_180.png","disgust","1","27","27","coolwarm","orientDef","scaleRev","180","",""
"","","","","","html-slider-response","48","99007","0.0-44.0","a6uby74yjn","9","NaN","<div style=""width:500px;"">
                            <p style=""font-size:50px; font-weight:bold;""
                            >disgust</p>
                            <div style=""width:240px; margin: auto;"">
                                <img src=""images/map02_managua_scaleDef_orientDef_090.png"" style= ""width:200px""alt=""img"">
                            </div>
                        </div>","-152","","0","","","","images/map02_managua_scaleDef_orientDef_090.png","disgust","1","02","02","managua","orientDef","scaleDef","090","",""
"","","","","","html-slider-response","49","100829","0.0-45.0","a6uby74yjn","9","NaN","<div style=""width:500px;"">
                            <p style=""font-size:50px; font-weight:bold;""
                            >disgust</p>
                            <div style=""width:240px; margin: auto;"">
                                <img src=""images/map23_BrBG_scaleRev_orientMir_000.png"" style= ""width:200px""alt=""img"">
                            </div>
                        </div>","90","","0","","","","images/map23_BrBG_scaleRev_orientMir_000.png","disgust","1","23","23","BrBG","orientMir","scaleRev","000","",""
"","","","","","html-slider-response","50","102344","0.0-46.0","a6uby74yjn","9","NaN","<div style=""width:500px;"">
                            <p style=""font-size:50px; font-weight:bold;""
                            >disgust</p>
                            <div style=""width:240px; margin: auto;"">
                                <img src=""images/map05_inferno_scaleDef_orientMir_090.png"" style= ""width:200px""alt=""img"">
                            </div>
                        </div>","-161","","0","","","","images/map05_inferno_scaleDef_orientMir_090.png","disgust","1","05","05","inferno","orientMir","scaleDef","090","",""
"","","","","","html-slider-response","51","104004","0.0-47.0","a6uby74yjn","9","NaN","<div style=""width:500px;"">
                            <p style=""font-size:50px; font-weight:bold;""
                            >disgust</p>
                            <div style=""width:240px; margin: auto;"">
                                <img src=""images/map05_plasma_scaleDef_orientDef_270.png"" style= ""width:200px""alt=""img"">
                            </div>
                        </div>","-158","","0","","","","images/map05_plasma_scaleDef_orientDef_270.png","disgust","1","05","05","plasma","orientDef","scaleDef","270","",""
"","","","","","html-slider-response","52","105760","0.0-48.0","a6uby74yjn","9","NaN","<div style=""width:500px;"">
                            <p style=""font-size:50px; font-weight:bold;""
                            >disgust</p>
                            <div style=""width:240px; margin: auto;"">
                                <img src=""images/map05_plasma_scaleRev_orientMir_000.png"" style= ""width:200px""alt=""img"">
                            </div>
                        </div>","-167","","0","","","","images/map05_plasma_scaleRev_orientMir_000.png","disgust","1","05","05","plasma","orientMir","scaleRev","000","",""
"","","","","","html-slider-response","53","107596","0.0-49.0","a6uby74yjn","9","NaN","<div style=""width:500px;"">
                            <p style=""font-size:50px; font-weight:bold;""
                            >disgust</p>
                            <div style=""width:240px; margin: auto;"">
                                <img src=""images/map10_Oranges_scaleRev_orientMir_000.png"" style= ""width:200px""alt=""img"">
                            </div>
                        </div>","-139","","0","","","","images/map10_Oranges_scaleRev_orientMir_000.png","disgust","1","10","10","Oranges","orientMir","scaleRev","000","",""
"","","","","","html-slider-response","54","109333","0.0-50.0","a6uby74yjn","9","NaN","<div style=""width:500px;"">
                            <p style=""font-size:50px; font-weight:bold;""
                            >disgust</p>
                            <div style=""width:240px; margin: auto;"">
                                <img src=""images/map02_berlin_scaleRev_orientDef_000.png"" style= ""width:200px""alt=""img"">
                            </div>
                        </div>","-140","","0","","","","images/map02_berlin_scaleRev_orientDef_000.png","disgust","1","02","02","berlin","orientDef","scaleRev","000","",""
"","","","","","html-slider-response","55","110801","0.0-51.0","a6uby74yjn","9","NaN","<div style=""width:500px;"">
                            <p style=""font-size:50px; font-weight:bold;""
                            >disgust</p>
                            <div style=""width:240px; margin: auto;"">
                                <img src=""images/map07_Greys_scaleRev_orientMir_000.png"" style= ""width:200px""alt=""img"">
                            </div>
                        </div>","-70","","0","","","","images/map07_Greys_scaleRev_orientMir_000.png","disgust","1","07","07","Greys","orientMir","scaleRev","000","",""
"","","","","","html-slider-response","56","112253","0.0-52.0","a6uby74yjn","9","NaN","<div style=""width:500px;"">
                            <p style=""font-size:50px; font-weight:bold;""
                            >disgust</p>
                            <div style=""width:240px; margin: auto;"">
                                <img src=""images/map13_BuPu_scaleRev_orientDef_180.png"" style= ""width:200px""alt=""img"">
                            </div>
                        </div>","-113","","0","","","","images/map13_BuPu_scaleRev_orientDef_180.png","disgust","1","13","13","BuPu","orientDef","scaleRev","180","",""
"","","","","","html-slider-response","57","113742","0.0-53.0","a6uby74yjn","9","NaN","<div style=""width:500px;"">
                            <p style=""font-size:50px; font-weight:bold;""
                            >disgust</p>
                            <div style=""width:240px; margin: auto;"">
                                <img src=""images/map12_RdPu_scaleDef_orientMir_270.png"" style= ""width:200px""alt=""img"">
                            </div>
                        </div>","-130","","0","","","","images/map12_RdPu_scaleDef_orientMir_270.png","disgust","1","12","12","RdPu","orientMir","scaleDef","270","",""
"","","","","","html-button-response","58","115475","0.0-54.0","a6uby74yjn","9","1231","<p>You are doing great!<br></br> You are halway done with the current block. When you are ready to continue, click the 'Continue' button.</p>","0","","","","","","","","","","","","","","","",""
"","","","","","html-slider-response","59","117211","0.0-55.0","a6uby74yjn","9","NaN","<div style=""width:500px;"">
                            <p style=""font-size:50px; font-weight:bold;""
                            >disgust</p>
                            <div style=""width:240px; margin: auto;"">
                                <img src=""images/map13_YlGnBu_scaleDef_orientMir_270.png"" style= ""width:200px""alt=""img"">
                            </div>
                        </div>","-119","","0","","","","images/map13_YlGnBu_scaleDef_orientMir_270.png","disgust","1","13","13","YlGnBu","orientMir","scaleDef","270","",""
"","","","","","html-slider-response","60","118980","0.0-56.0","a6uby74yjn","9","NaN","<div style=""width:500px;"">
                            <p style=""font-size:50px; font-weight:bold;""
                            >disgust</p>
                            <div style=""width:240px; margin: auto;"">
                                <img src=""images/map15_BuGn_scaleRev_orientMir_000.png"" style= ""width:200px""alt=""img"">
                            </div>
                        </div>","200","","0","","","","images/map15_BuGn_scaleRev_orientMir_000.png","disgust","1","15","15","BuGn","orientMir","scaleRev","000","",""
"","","","","","html-slider-response","61","120697","0.0-57.0","a6uby74yjn","9","NaN","<div style=""width:500px;"">
                            <p style=""font-size:50px; font-weight:bold;""
                            >disgust</p>
                            <div style=""width:240px; margin: auto;"">
                                <img src=""images/map26_RdYlBu_scaleRev_orientMir_000.png"" style= ""width:200px""alt=""img"">
                            </div>
                        </div>","-117","","0","","","","images/map26_RdYlBu_scaleRev_orientMir_000.png","disgust","1","26","26","RdYlBu","orientMir","scaleRev","000","",""
"","","","","","html-slider-response","62","122445","0.0-58.0","a6uby74yjn","9","NaN","<div style=""width:500px;"">
                            <p style=""font-size:50px; font-weight:bold;""
                            >disgust</p>
                            <div style=""width:240px; margin: auto;"">
                                <img src=""images/map27_Spectral_scaleRev_orientDef_000.png"" style= ""width:200px""alt=""img"">
                            </div>
                        </div>","-153","","0","","","","images/map27_Spectral_scaleRev_orientDef_000.png","disgust","1","27","27","Spectral","orientDef","scaleRev","000","",""
"","","","","","html-slider-response","63","123945","0.0-59.0","a6uby74yjn","9","NaN","<div style=""width:500px;"">
                            <p style=""font-size:50px; font-weight:bold;""
                            >disgust</p>
                            <div style=""width:240px; margin: auto;"">
                                <img src=""images/map10_Reds_scaleRev_orientMir_180.png"" style= ""width:200px""alt=""img"">
                            </div>
                        </div>","-71","","0","","","","images/map10_Reds_scaleRev_orientMir_180.png","disgust","1","10","10","Reds","orientMir","scaleRev","180","",""
"","","","","","html-slider-response","64","125500","0.0-60.0","a6uby74yjn","9","NaN","<div style=""width:500px;"">
                            <p style=""font-size:50px; font-weight:bold;""
                            >disgust</p>
                            <div style=""width:240px; margin: auto;"">
                                <img src=""images/map05_viridis_scaleDef_orientDef_090.png"" style= ""width:200px""alt=""img"">
                            </div>
                        </div>","200","","0","","","","images/map05_viridis_scaleDef_orientDef_090.png","disgust","1","05","05","viridis","orientDef","scaleDef","090","",""
"","","","","","html-slider-response","65","127091","0.0-61.0","a6uby74yjn","9","NaN","<div style=""width:500px;"">
                            <p style=""font-size:50px; font-weight:bold;""
                            >disgust</p>
                            <div style=""width:240px; margin: auto;"">
                                <img src=""images/map07_cividis_scaleDef_orientDef_090.png"" style= ""width:200px""alt=""img"">
                            </div>
                        </div>","-68","","0","","","","images/map07_cividis_scaleDef_orientDef_090.png","disgust","1","07","07","cividis","orientDef","scaleDef","090","",""
"","","","","","html-slider-response","66","128781","0.0-62.0","a6uby74yjn","9","NaN","<div style=""width:500px;"">
                            <p style=""font-size:50px; font-weight:bold;""
                            >disgust</p>
                            <div style=""width:240px; margin: auto;"">
                                <img src=""images/map15_BuGn_scaleDef_orientDef_270.png"" style= ""width:200px""alt=""img"">
                            </div>
                        </div>","200","","0","","","","images/map15_BuGn_scaleDef_orientDef_270.png","disgust","1","15","15","BuGn","orientDef","scaleDef","270","",""
"","","","","","html-slider-response","67","130267","0.0-63.0","a6uby74yjn","9","NaN","<div style=""width:500px;"">
                            <p style=""font-size:50px; font-weight:bold;""
                            >disgust</p>
                            <div style=""width:240px; margin: auto;"">
                                <img src=""images/map07_cividis_scaleRev_orientDef_180.png"" style= ""width:200px""alt=""img"">
                            </div>
                        </div>","-23","","0","","","","images/map07_cividis_scaleRev_orientDef_180.png","disgust","1","07","07","cividis","orientDef","scaleRev","180","",""
"","","","","","html-slider-response","68","132188","0.0-64.0","a6uby74yjn","9","NaN","<div style=""width:500px;"">
                            <p style=""font-size:50px; font-weight:bold;""
                            >disgust</p>
                            <div style=""width:240px; margin: auto;"">
                                <img src=""images/map15_YlGnBu_scaleRev_orientDef_000.png"" style= ""width:200px""alt=""img"">
                            </div>
                        </div>","-34","","0","","","","images/map15_YlGnBu_scaleRev_orientDef_000.png","disgust","1","15","15","YlGnBu","orientDef","scaleRev","000","",""
"","","","","","html-slider-response","69","133680","0.0-65.0","a6uby74yjn","9","NaN","<div style=""width:500px;"">
                            <p style=""font-size:50px; font-weight:bold;""
                            >disgust</p>
                            <div style=""width:240px; margin: auto;"">
                                <img src=""images/map13_GnBu_scaleRev_orientMir_000.png"" style= ""width:200px""alt=""img"">
                            </div>
                        </div>","-86","","0","","","","images/map13_GnBu_scaleRev_orientMir_000.png","disgust","1","13","13","GnBu","orientMir","scaleRev","000","",""
"","","","","","html-slider-response","70","135221","0.0-66.0","a6uby74yjn","9","NaN","<div style=""width:500px;"">
                            <p style=""font-size:50px; font-weight:bold;""
                            >disgust</p>
                            <div style=""width:240px; margin: auto;"">
                                <img src=""images/map23_PuOr_scaleRev_orientMir_180.png"" style= ""width:200px""alt=""img"">
                            </div>
                        </div>","-60","","0","","","","images/map23_PuOr_scaleRev_orientMir_180.png","disgust","1","23","23","PuOr","orientMir","scaleRev","180","",""
"","","","","","html-slider-response","71","136677","0.0-67.0","a6uby74yjn","9","NaN","<div style=""width:500px;"">
                            <p style=""font-size:50px; font-weight:bold;""
                            >disgust</p>
                            <div style=""width:240px; margin: auto;"">
                                <img src=""images/map12_PuRd_scaleRev_orientMir_180.png"" style= ""width:200px""alt=""img"">
                            </div>
                        </div>","-73","","0","","","","images/map12_PuRd_scaleRev_orientMir_180.png","disgust","1","12","12","PuRd","orientMir","scaleRev","180","",""
"","","","","","html-slider-response","72","138317","0.0-68.0","a6uby74yjn","9","NaN","<div style=""width:500px;"">
                            <p style=""font-size:50px; font-weight:bold;""
                            >disgust</p>
                            <div style=""width:240px; margin: auto;"">
                                <img src=""images/map02_vanimo_scaleRev_orientMir_000.png"" style= ""width:200px""alt=""img"">
                            </div>
                        </div>","109","","0","","","","images/map02_vanimo_scaleRev_orientMir_000.png","disgust","1","02","02","vanimo","orientMir","scaleRev","000","",""
"","","","","","html-slider-response","73","139994","0.0-69.0","a6uby74yjn","9","NaN","<div style=""width:500px;"">
                            <p style=""font-size:50px; font-weight:bold;""
                            >disgust</p>
                            <div style=""width:240px; margin: auto;"">
                                <img src=""images/map23_PRGn_scaleRev_orientDef_180.png"" style= ""width:200px""alt=""img"">
                            </div>
                        </div>","66","","0","","","","images/map23_PRGn_scaleRev_orientDef_180.png","disgust","1","23","23","PRGn","orientDef","scaleRev","180","",""
"","","","","","html-slider-response","74","141541","0.0-70.0","a6uby74yjn","9","NaN","<div style=""width:500px;"">
                            <p style=""font-size:50px; font-weight:bold;""
                            >disgust</p>
                            <div style=""width:240px; margin: auto;"">
                                <img src=""images/map13_PuBu_scaleRev_orientMir_180.png"" style= ""width:200px""alt=""img"">
                            </div>
                        </div>","-114","","0","","","","images/map13_PuBu_scaleRev_orientMir_180.png","disgust","1","13","13","PuBu","orientMir","scaleRev","180","",""
"","","","","","html-slider-response","75","143375","0.0-71.0","a6uby74yjn","9","NaN","<div style=""width:500px;"">
                            <p style=""font-size:50px; font-weight:bold;""
                            >disgust</p>
                            <div style=""width:240px; margin: auto;"">
                                <img src=""images/map02_gist_earth_scaleDef_orientMir_090.png"" style= ""width:200px""alt=""img"">
                            </div>
                        </div>","167","","0","","","","images/map02_gist_earth_scaleDef_orientMir_090.png","disgust","1","02","02","gist","scaleDef","earth","orientMir","",""
"","","","","","html-slider-response","76","145451","0.0-72.0","a6uby74yjn","9","NaN","<div style=""width:500px;"">
                            <p style=""font-size:50px; font-weight:bold;""
                            >disgust</p>
                            <div style=""width:240px; margin: auto;"">
                                <img src=""images/map23_RdGy_scaleDef_orientMir_270.png"" style= ""width:200px""alt=""img"">
                            </div>
                        </div>","-135","","0","","","","images/map23_RdGy_scaleDef_orientMir_270.png","disgust","1","23","23","RdGy","orientMir","scaleDef","270","",""
"","","","","","html-slider-response","77","147726","0.0-73.0","a6uby74yjn","9","NaN","<div style=""width:500px;"">
                            <p style=""font-size:50px; font-weight:bold;""
                            >disgust</p>
                            <div style=""width:240px; margin: auto;"">
                                <img src=""images/map10_Greens_scaleRev_orientDef_180.png"" style= ""width:200px""alt=""img"">
                            </div>
                        </div>","200","","0","","","","images/map10_Greens_scaleRev_orientDef_180.png","disgust","1","10","10","Greens","orientDef","scaleRev","180","",""
"","","","","","html-slider-response","78","149472","0.0-74.0","a6uby74yjn","9","NaN","<div style=""width:500px;"">
                            <p style=""font-size:50px; font-weight:bold;""
                            >disgust</p>
                            <div style=""width:240px; margin: auto;"">
                                <img src=""images/map26_RdBu_scaleRev_orientDef_180.png"" style= ""width:200px""alt=""img"">
                            </div>
                        </div>","-134","","0","","","","images/map26_RdBu_scaleRev_orientDef_180.png","disgust","1","26","26","RdBu","orientDef","scaleRev","180","",""
"","","","","","html-slider-response","79","151093","0.0-75.0","a6uby74yjn","9","NaN","<div style=""width:500px;"">
                            <p style=""font-size:50px; font-weight:bold;""
                            >disgust</p>
                            <div style=""width:240px; margin: auto;"">
                                <img src=""images/map12_YlOrBr_scaleRev_orientDef_000.png"" style= ""width:200px""alt=""img"">
                            </div>
                        </div>","-143","","0","","","","images/map12_YlOrBr_scaleRev_orientDef_000.png","disgust","1","12","12","YlOrBr","orientDef","scaleRev","000","",""
"","","","","","html-slider-response","80","152825","0.0-76.0","a6uby74yjn","9","NaN","<div style=""width:500px;"">
                            <p style=""font-size:50px; font-weight:bold;""
                            >disgust</p>
                            <div style=""width:240px; margin: auto;"">
                                <img src=""images/map05_turbo_scaleRev_orientDef_000.png"" style= ""width:200px""alt=""img"">
                            </div>
                        </div>","66","","0","","","","images/map05_turbo_scaleRev_orientDef_000.png","disgust","1","05","05","turbo","orientDef","scaleRev","000","",""
"","","","","","html-slider-response","81","154549","0.0-77.0","a6uby74yjn","9","NaN","<div style=""width:500px;"">
                            <p style=""font-size:50px; font-weight:bold;""
                            >disgust</p>
                            <div style=""width:240px; margin: auto;"">
                                <img src=""images/map15_PuBuGn_scaleRev_orientDef_180.png"" style= ""width:200px""alt=""img"">
                            </div>
                        </div>","101","","0","","","","images/map15_PuBuGn_scaleRev_orientDef_180.png","disgust","1","15","15","PuBuGn","orientDef","scaleRev","180","",""
"","","","","","html-slider-response","82","156083","0.0-78.0","a6uby74yjn","9","NaN","<div style=""width:500px;"">
                            <p style=""font-size:50px; font-weight:bold;""
                            >disgust</p>
                            <div style=""width:240px; margin: auto;"">
                                <img src=""images/map26_RdYlBu_scaleDef_orientDef_270.png"" style= ""width:200px""alt=""img"">
                            </div>
                        </div>","-128","","0","","","","images/map26_RdYlBu_scaleDef_orientDef_270.png","disgust","1","26","26","RdYlBu","orientDef","scaleDef","270","",""
"","","","","","html-slider-response","83","157732","0.0-79.0","a6uby74yjn","9","NaN","<div style=""width:500px;"">
                            <p style=""font-size:50px; font-weight:bold;""
                            >disgust</p>
                            <div style=""width:240px; margin: auto;"">
                                <img src=""images/map15_PuBuGn_scaleDef_orientDef_090.png"" style= ""width:200px""alt=""img"">
                            </div>
                        </div>","93","","0","","","","images/map15_PuBuGn_scaleDef_orientDef_090.png","disgust","1","15","15","PuBuGn","orientDef","scaleDef","090","",""
"","","","","","html-slider-response","84","159376","0.0-80.0","a6uby74yjn","9","NaN","<div style=""width:500px;"">
                            <p style=""font-size:50px; font-weight:bold;""
                            >disgust</p>
                            <div style=""width:240px; margin: auto;"">
                                <img src=""images/map07_Purples_scaleRev_orientMir_180.png"" style= ""width:200px""alt=""img"">
                            </div>
                        </div>","-127","","0","","","","images/map07_Purples_scaleRev_orientMir_180.png","disgust","1","07","07","Purples","orientMir","scaleRev","180","",""
"","","","","","html-slider-response","85","160996","0.0-81.0","a6uby74yjn","9","NaN","<div style=""width:500px;"">
                            <p style=""font-size:50px; font-weight:bold;""
                            >disgust</p>
                            <div style=""width:240px; margin: auto;"">
                                <img src=""images/map13_RdPu_scaleRev_orientDef_000.png"" style= ""width:200px""alt=""img"">
                            </div>
                        </div>","-150","","0","","","","images/map13_RdPu_scaleRev_orientDef_000.png","disgust","1","13","13","RdPu","orientDef","scaleRev","000","",""
"","","","","","html-slider-response","86","162529","0.0-82.0","a6uby74yjn","9","NaN","<div style=""width:500px;"">
                            <p style=""font-size:50px; font-weight:bold;""
                            >disgust</p>
                            <div style=""width:240px; margin: auto;"">
                                <img src=""images/map07_Blues_scaleDef_orientMir_270.png"" style= ""width:200px""alt=""img"">
                            </div>
                        </div>","-104","","0","","","","images/map07_Blues_scaleDef_orientMir_270.png","disgust","1","07","07","Blues","orientMir","scaleDef","270","",""
"","","","","","html-slider-response","87","164109","0.0-83.0","a6uby74yjn","9","NaN","<div style=""width:500px;"">
                            <p style=""font-size:50px; font-weight:bold;""
                            >disgust</p>
                            <div style=""width:240px; margin: auto;"">
                                <img src=""images/map02_vanimo_scaleDef_orientDef_270.png"" style= ""width:200px""alt=""img"">
                            </div>
                        </div>","81","","0","","","","images/map02_vanimo_scaleDef_orientDef_270.png","disgust","1","02","02","vanimo","orientDef","scaleDef","270","",""
"","","","","","html-slider-response","88","165545","0.0-84.0","a6uby74yjn","9","NaN","<div style=""width:500px;"">
                            <p style=""font-size:50px; font-weight:bold;""
                            >disgust</p>
                            <div style=""width:240px; margin: auto;"">
                                <img src=""images/map07_Greys_scaleDef_orientDef_270.png"" style= ""width:200px""alt=""img"">
                            </div>
                        </div>","-68","","0","","","","images/map07_Greys_scaleDef_orientDef_270.png","disgust","1","07","07","Greys","orientDef","scaleDef","270","",""
"","","","","","html-slider-response","89","167116","0.0-85.0","a6uby74yjn","9","NaN","<div style=""width:500px;"">
                            <p style=""font-size:50px; font-weight:bold;""
                            >disgust</p>
                            <div style=""width:240px; margin: auto;"">
                                <img src=""images/map12_YlOrRd_scaleDef_orientDef_090.png"" style= ""width:200px""alt=""img"">
                            </div>
                        </div>","-89","","0","","","","images/map12_YlOrRd_scaleDef_orientDef_090.png","disgust","1","12","12","YlOrRd","orientDef","scaleDef","090","",""
"","","","","","html-slider-response","90","168708","0.0-86.0","a6uby74yjn","9","NaN","<div style=""width:500px;"">
                            <p style=""font-size:50px; font-weight:bold;""
                            >disgust</p>
                            <div style=""width:240px; margin: auto;"">
                                <img src=""images/map02_managua_scaleRev_orientDef_180.png"" style= ""width:200px""alt=""img"">
                            </div>
                        </div>","-155","","0","","","","images/map02_managua_scaleRev_orientDef_180.png","disgust","1","02","02","managua","orientDef","scaleRev","180","",""
"","","","","","html-slider-response","91","170293","0.0-87.0","a6uby74yjn","9","NaN","<div style=""width:500px;"">
                            <p style=""font-size:50px; font-weight:bold;""
                            >disgust</p>
                            <div style=""width:240px; margin: auto;"">
                                <img src=""images/map10_Oranges_scaleDef_orientDef_270.png"" style= ""width:200px""alt=""img"">
                            </div>
                        </div>","-72","","0","","","","images/map10_Oranges_scaleDef_orientDef_270.png","disgust","1","10","10","Oranges","orientDef","scaleDef","270","",""
"","","","","","html-slider-response","92","171666","0.0-88.0","a6uby74yjn","9","NaN","<div style=""width:500px;"">
                            <p style=""font-size:50px; font-weight:bold;""
                            >disgust</p>
                            <div style=""width:240px; margin: auto;"">
                                <img src=""images/map12_PuRd_scaleDef_orientMir_090.png"" style= ""width:200px""alt=""img"">
                            </div>
                        </div>","-150","","0","","","","images/map12_PuRd_scaleDef_orientMir_090.png","disgust","1","12","12","PuRd","orientMir","scaleDef","090","",""
"","","","","","html-slider-response","93","173299","0.0-89.0","a6uby74yjn","9","NaN","<div style=""width:500px;"">
                            <p style=""font-size:50px; font-weight:bold;""
                            >disgust</p>
                            <div style=""width:240px; margin: auto;"">
                                <img src=""images/map12_YlOrRd_scaleRev_orientDef_180.png"" style= ""width:200px""alt=""img"">
                            </div>
                        </div>","-130","","0","","","","images/map12_YlOrRd_scaleRev_orientDef_180.png","disgust","1","12","12","YlOrRd","orientDef","scaleRev","180","",""
"","","","","","html-slider-response","94","174908","0.0-90.0","a6uby74yjn","9","NaN","<div style=""width:500px;"">
                            <p style=""font-size:50px; font-weight:bold;""
                            >disgust</p>
                            <div style=""width:240px; margin: auto;"">
                                <img src=""images/map10_Greens_scaleDef_orientDef_090.png"" style= ""width:200px""alt=""img"">
                            </div>
                        </div>","200","","0","","","","images/map10_Greens_scaleDef_orientDef_090.png","disgust","1","10","10","Greens","orientDef","scaleDef","090","",""
"","","","","","html-slider-response","95","176818","0.0-91.0","a6uby74yjn","9","NaN","<div style=""width:500px;"">
                            <p style=""font-size:50px; font-weight:bold;""
                            >disgust</p>
                            <div style=""width:240px; margin: auto;"">
                                <img src=""images/map26_RdYlGn_scaleDef_orientMir_090.png"" style= ""width:200px""alt=""img"">
                            </div>
                        </div>","200","","0","","","","images/map26_RdYlGn_scaleDef_orientMir_090.png","disgust","1","26","26","RdYlGn","orientMir","scaleDef","090","",""
"","","","","","html-slider-response","96","178616","0.0-92.0","a6uby74yjn","9","NaN","<div style=""width:500px;"">
                            <p style=""font-size:50px; font-weight:bold;""
                            >disgust</p>
                            <div style=""width:240px; margin: auto;"">
                                <img src=""images/map23_BrBG_scaleDef_orientDef_270.png"" style= ""width:200px""alt=""img"">
                            </div>
                        </div>","94","","0","","","","images/map23_BrBG_scaleDef_orientDef_270.png","disgust","1","23","23","BrBG","orientDef","scaleDef","270","",""
"","","","","","html-slider-response","97","180115","0.0-93.0","a6uby74yjn","9","NaN","<div style=""width:500px;"">
                            <p style=""font-size:50px; font-weight:bold;""
                            >disgust</p>
                            <div style=""width:240px; margin: auto;"">
                                <img src=""images/map10_YlOrBr_scaleDef_orientMir_270.png"" style= ""width:200px""alt=""img"">
                            </div>
                        </div>","-174","","0","","","","images/map10_YlOrBr_scaleDef_orientMir_270.png","disgust","1","10","10","YlOrBr","orientMir","scaleDef","270","",""
"","","","","","html-slider-response","98","181751","0.0-94.0","a6uby74yjn","9","NaN","<div style=""width:500px;"">
                            <p style=""font-size:50px; font-weight:bold;""
                            >disgust</p>
                            <div style=""width:240px; margin: auto;"">
                                <img src=""images/map15_YlGn_scaleRev_orientMir_180.png"" style= ""width:200px""alt=""img"">
                            </div>
                        </div>","200","","0","","","","images/map15_YlGn_scaleRev_orientMir_180.png","disgust","1","15","15","YlGn","orientMir","scaleRev","180","",""
"","","","","","html-button-response","99","184582","0.0-95.0","a6uby74yjn","9","2329","<p>Great Job! You've finished block 1.<br></br> You have 4 block(s) left to go.<br></br></p>","0","","","","","","","","","","","","","","","",""
"","","","","","html-button-response","100","185818","0.0-96.0","a6uby74yjn","9","1234","<p>In this block of trials, you will be asked to rate how much you associate each map with:</p > <p style = 'font-size:150%; font-weight: bold'>happy</p><br></br>","0","","","","","","","","","","","","","","","",""
"","","","","","html-slider-response","101","187282","0.0-97.0","a6uby74yjn","9","NaN","<div style=""width:500px;"">
                            <p style=""font-size:50px; font-weight:bold;""
                            >happy</p>
                            <div style=""width:240px; margin: auto;"">
                                <img src=""images/map23_PiYG_scaleRev_orientDef_000.png"" style= ""width:200px""alt=""img"">
                            </div>
                        </div>","41","","0","","","","images/map23_PiYG_scaleRev_orientDef_000.png","happy","1","23","23","PiYG","orientDef","scaleRev","000","",""
"","","","","","html-slider-response","102","188766","0.0-98.0","a6uby74yjn","9","NaN","<div style=""width:500px;"">
                            <p style=""font-size:50px; font-weight:bold;""
                            >happy</p>
                            <div style=""width:240px; margin: auto;"">
                                <img src=""images/map05_magma_scaleDef_orientMir_270.png"" style= ""width:200px""alt=""img"">
                            </div>
                        </div>","-106","","0","","","","images/map05_magma_scaleDef_orientMir_270.png","happy","1","05","05","magma","orientMir","scaleDef","270","",""
"","","","","","html-slider-response","103","190338","0.0-99.0","a6uby74yjn","9","NaN","<div style=""width:500px;"">
                            <p style=""font-size:50px; font-weight:bold;""
                            >happy</p>
                            <div style=""width:240px; margin: auto;"">
                                <img src=""images/map27_bwr_scaleRev_orientMir_000.png"" style= ""width:200px""alt=""img"">
                            </div>
                        </div>","110","","0","","","","images/map27_bwr_scaleRev_orientMir_000.png","happy","1","27","27","bwr","orientMir","scaleRev","000","",""
"","","","","","html-slider-response","104","191830","0.0-100.0","a6uby74yjn","9","NaN","<div style=""width:500px;"">
                            <p style=""font-size:50px; font-weight:bold;""
                            >happy</p>
                            <div style=""width:240px; margin: auto;"">
                                <img src=""images/map07_Greys_scaleRev_orientMir_000.png"" style= ""width:200px""alt=""img"">
                            </div>
                        </div>","-185","","0","","","","images/map07_Greys_scaleRev_orientMir_000.png","happy","1","07","07","Greys","orientMir","scaleRev","000","",""
"","","","","","html-slider-response","105","193842","0.0-101.0","a6uby74yjn","9","NaN","<div style=""width:500px;"">
                            <p style=""font-size:50px; font-weight:bold;""
                            >happy</p>
                            <div style=""width:240px; margin: auto;"">
                                <img src=""images/map27_Spectral_scaleRev_orientDef_000.png"" style= ""width:200px""alt=""img"">
                            </div>
                        </div>","31","","0","","","","images/map27_Spectral_scaleRev_orientDef_000.png","happy","1","27","27","Spectral","orientDef","scaleRev","000","",""
"","","","","","html-slider-response","106","195500","0.0-102.0","a6uby74yjn","9","NaN","<div style=""width:500px;"">
                            <p style=""font-size:50px; font-weight:bold;""
                            >happy</p>
                            <div style=""width:240px; margin: auto;"">
                                <img src=""images/map27_seismic_scaleDef_orientMir_090.png"" style= ""width:200px""alt=""img"">
                            </div>
                        </div>","142","","0","","","","images/map27_seismic_scaleDef_orientMir_090.png","happy","1","27","27","seismic","orientMir","scaleDef","090","",""
"","","","","","html-slider-response","107","197227","0.0-103.0","a6uby74yjn","9","NaN","<div style=""width:500px;"">
                            <p style=""font-size:50px; font-weight:bold;""
                            >happy</p>
                            <div style=""width:240px; margin: auto;"">
                                <img src=""images/map10_Reds_scaleDef_orientMir_090.png"" style= ""width:200px""alt=""img"">
                            </div>
                        </div>","176","","0","","","","images/map10_Reds_scaleDef_orientMir_090.png","happy","1","10","10","Reds","orientMir","scaleDef","090","",""
"","","","","","html-slider-response","108","199233","0.0-104.0","a6uby74yjn","9","NaN","<div style=""width:500px;"">
                            <p style=""font-size:50px; font-weight:bold;""
                            >happy</p>
                            <div style=""width:240px; margin: auto;"">
                                <img src=""images/map27_bwr_scaleDef_orientDef_270.png"" style= ""width:200px""alt=""img"">
                            </div>
                        </div>","122","","0","","","","images/map27_bwr_scaleDef_orientDef_270.png","happy","1","27","27","bwr","orientDef","scaleDef","270","",""
"","","","","","html-slider-response","109","200912","0.0-105.0","a6uby74yjn","9","NaN","<div style=""width:500px;"">
                            <p style=""font-size:50px; font-weight:bold;""
                            >happy</p>
                            <div style=""width:240px; margin: auto;"">
                                <img src=""images/map13_YlGnBu_scaleDef_orientMir_270.png"" style= ""width:200px""alt=""img"">
                            </div>
                        </div>","65","","0","","","","images/map13_YlGnBu_scaleDef_orientMir_270.png","happy","1","13","13","YlGnBu","orientMir","scaleDef","270","",""
"","","","","","html-slider-response","110","202556","0.0-106.0","a6uby74yjn","9","NaN","<div style=""width:500px;"">
                            <p style=""font-size:50px; font-weight:bold;""
                            >happy</p>
                            <div style=""width:240px; margin: auto;"">
                                <img src=""images/map13_PuBu_scaleRev_orientMir_180.png"" style= ""width:200px""alt=""img"">
                            </div>
                        </div>","-54","","0","","","","images/map13_PuBu_scaleRev_orientMir_180.png","happy","1","13","13","PuBu","orientMir","scaleRev","180","",""
"","","","","","html-slider-response","111","204301","0.0-107.0","a6uby74yjn","9","NaN","<div style=""width:500px;"">
                            <p style=""font-size:50px; font-weight:bold;""
                            >happy</p>
                            <div style=""width:240px; margin: auto;"">
                                <img src=""images/map02_vanimo_scaleDef_orientDef_270.png"" style= ""width:200px""alt=""img"">
                            </div>
                        </div>","-118","","0","","","","images/map02_vanimo_scaleDef_orientDef_270.png","happy","1","02","02","vanimo","orientDef","scaleDef","270","",""
"","","","","","html-slider-response","112","205947","0.0-108.0","a6uby74yjn","9","NaN","<div style=""width:500px;"">
                            <p style=""font-size:50px; font-weight:bold;""
                            >happy</p>
                            <div style=""width:240px; margin: auto;"">
                                <img src=""images/map15_PuBuGn_scaleDef_orientDef_090.png"" style= ""width:200px""alt=""img"">
                            </div>
                        </div>","124","","0","","","","images/map15_PuBuGn_scaleDef_orientDef_090.png","happy","1","15","15","PuBuGn","orientDef","scaleDef","090","",""
"","","","","","html-slider-response","113","207796","0.0-109.0","a6uby74yjn","9","NaN","<div style=""width:500px;"">
                            <p style=""font-size:50px; font-weight:bold;""
                            >happy</p>
                            <div style=""width:240px; margin: auto;"">
                                <img src=""images/map15_BuGn_scaleRev_orientMir_000.png"" style= ""width:200px""alt=""img"">
                            </div>
                        </div>","118","","0","","","","images/map15_BuGn_scaleRev_orientMir_000.png","happy","1","15","15","BuGn","orientMir","scaleRev","000","",""
"","","","","","html-slider-response","114","209508","0.0-110.0","a6uby74yjn","9","NaN","<div style=""width:500px;"">
                            <p style=""font-size:50px; font-weight:bold;""
                            >happy</p>
                            <div style=""width:240px; margin: auto;"">
                                <img src=""images/map13_PuBu_scaleDef_orientMir_090.png"" style= ""width:200px""alt=""img"">
                            </div>
                        </div>","80","","0","","","","images/map13_PuBu_scaleDef_orientMir_090.png","happy","1","13","13","PuBu","orientMir","scaleDef","090","",""
"","","","","","html-slider-response","115","211054","0.0-111.0","a6uby74yjn","9","NaN","<div style=""width:500px;"">
                            <p style=""font-size:50px; font-weight:bold;""
                            >happy</p>
                            <div style=""width:240px; margin: auto;"">
                                <img src=""images/map15_PiYG_scaleDef_orientMir_270.png"" style= ""width:200px""alt=""img"">
                            </div>
                        </div>","83","","0","","","","images/map15_PiYG_scaleDef_orientMir_270.png","happy","1","15","15","PiYG","orientMir","scaleDef","270","",""
"","","","","","html-slider-response","116","212513","0.0-112.0","a6uby74yjn","9","NaN","<div style=""width:500px;"">
                            <p style=""font-size:50px; font-weight:bold;""
                            >happy</p>
                            <div style=""width:240px; margin: auto;"">
                                <img src=""images/map13_GnBu_scaleRev_orientMir_000.png"" style= ""width:200px""alt=""img"">
                            </div>
                        </div>","78","","0","","","","images/map13_GnBu_scaleRev_orientMir_000.png","happy","1","13","13","GnBu","orientMir","scaleRev","000","",""
"","","","","","html-slider-response","117","214265","0.0-113.0","a6uby74yjn","9","NaN","<div style=""width:500px;"">
                            <p style=""font-size:50px; font-weight:bold;""
                            >happy</p>
                            <div style=""width:240px; margin: auto;"">
                                <img src=""images/map07_Purples_scaleDef_orientMir_090.png"" style= ""width:200px""alt=""img"">
                            </div>
                        </div>","66","","0","","","","images/map07_Purples_scaleDef_orientMir_090.png","happy","1","07","07","Purples","orientMir","scaleDef","090","",""
"","","","","","html-slider-response","118","216073","0.0-114.0","a6uby74yjn","9","NaN","<div style=""width:500px;"">
                            <p style=""font-size:50px; font-weight:bold;""
                            >happy</p>
                            <div style=""width:240px; margin: auto;"">
                                <img src=""images/map05_inferno_scaleDef_orientMir_090.png"" style= ""width:200px""alt=""img"">
                            </div>
                        </div>","-107","","0","","","","images/map05_inferno_scaleDef_orientMir_090.png","happy","1","05","05","inferno","orientMir","scaleDef","090","",""
"","","","","","html-slider-response","119","217659","0.0-115.0","a6uby74yjn","9","NaN","<div style=""width:500px;"">
                            <p style=""font-size:50px; font-weight:bold;""
                            >happy</p>
                            <div style=""width:240px; margin: auto;"">
                                <img src=""images/map05_plasma_scaleDef_orientDef_270.png"" style= ""width:200px""alt=""img"">
                            </div>
                        </div>","-138","","0","","","","images/map05_plasma_scaleDef_orientDef_270.png","happy","1","05","05","plasma","orientDef","scaleDef","270","",""
"","","","","","html-slider-response","120","219432","0.0-116.0","a6uby74yjn","9","NaN","<div style=""width:500px;"">
                            <p style=""font-size:50px; font-weight:bold;""
                            >happy</p>
                            <div style=""width:240px; margin: auto;"">
                                <img src=""images/map23_PuOr_scaleRev_orientMir_180.png"" style= ""width:200px""alt=""img"">
                            </div>
                        </div>","68","","0","","","","images/map23_PuOr_scaleRev_orientMir_180.png","happy","1","23","23","PuOr","orientMir","scaleRev","180","",""
"","","","","","html-slider-response","121","221348","0.0-117.0","a6uby74yjn","9","NaN","<div style=""width:500px;"">
                            <p style=""font-size:50px; font-weight:bold;""
                            >happy</p>
                            <div style=""width:240px; margin: auto;"">
                                <img src=""images/map10_Greens_scaleDef_orientDef_090.png"" style= ""width:200px""alt=""img"">
                            </div>
                        </div>","85","","0","","","","images/map10_Greens_scaleDef_orientDef_090.png","happy","1","10","10","Greens","orientDef","scaleDef","090","",""
"","","","","","html-slider-response","122","223008","0.0-118.0","a6uby74yjn","9","NaN","<div style=""width:500px;"">
                            <p style=""font-size:50px; font-weight:bold;""
                            >happy</p>
                            <div style=""width:240px; margin: auto;"">
                                <img src=""images/map15_YlGnBu_scaleRev_orientDef_000.png"" style= ""width:200px""alt=""img"">
                            </div>
                        </div>","158","","0","","","","images/map15_YlGnBu_scaleRev_orientDef_000.png","happy","1","15","15","YlGnBu","orientDef","scaleRev","000","",""
"","","","","","html-slider-response","123","224873","0.0-119.0","a6uby74yjn","9","NaN","<div style=""width:500px;"">
                            <p style=""font-size:50px; font-weight:bold;""
                            >happy</p>
                            <div style=""width:240px; margin: auto;"">
                                <img src=""images/map23_RdGy_scaleDef_orientMir_270.png"" style= ""width:200px""alt=""img"">
                            </div>
                        </div>","-174","","0","","","","images/map23_RdGy_scaleDef_orientMir_270.png","happy","1","23","23","RdGy","orientMir","scaleDef","270","",""
"","","","","","html-slider-response","124","226558","0.0-120.0","a6uby74yjn","9","NaN","<div style=""width:500px;"">
                            <p style=""font-size:50px; font-weight:bold;""
                            >happy</p>
                            <div style=""width:240px; margin: auto;"">
                                <img src=""images/map12_YlOrRd_scaleRev_orientDef_180.png"" style= ""width:200px""alt=""img"">
                            </div>
                        </div>","200","","0","","","","images/map12_YlOrRd_scaleRev_orientDef_180.png","happy","1","12","12","YlOrRd","orientDef","scaleRev","180","",""
"","","","","","html-slider-response","125","228121","0.0-121.0","a6uby74yjn","9","NaN","<div style=""width:500px;"">
                            <p style=""font-size:50px; font-weight:bold;""
                            >happy</p>
                            <div style=""width:240px; margin: auto;"">
                                <img src=""images/map12_OrRd_scaleDef_orientDef_270.png"" style= ""width:200px""alt=""img"">
                            </div>
                        </div>","200","","0","","","","images/map12_OrRd_scaleDef_orientDef_270.png","happy","1","12","12","OrRd","orientDef","scaleDef","270","",""
"","","","","","html-slider-response","126","230040","0.0-122.0","a6uby74yjn","9","NaN","<div style=""width:500px;"">
                            <p style=""font-size:50px; font-weight:bold;""
                            >happy</p>
                            <div style=""width:240px; margin: auto;"">
                                <img src=""images/map05_viridis_scaleRev_orientDef_180.png"" style= ""width:200px""alt=""img"">
                            </div>
                        </div>","61","","0","","","","images/map05_viridis_scaleRev_orientDef_180.png","happy","1","05","05","viridis","orientDef","scaleRev","180","",""
"","","","","","html-slider-response","127","231714","0.0-123.0","a6uby74yjn","9","NaN","<div style=""width:500px;"">
                            <p style=""font-size:50px; font-weight:bold;""
                            >happy</p>
                            <div style=""width:240px; margin: auto;"">
                                <img src=""images/map12_YlOrRd_scaleDef_orientDef_090.png"" style= ""width:200px""alt=""img"">
                            </div>
                        </div>","200","","0","","","","images/map12_YlOrRd_scaleDef_orientDef_090.png","happy","1","12","12","YlOrRd","orientDef","scaleDef","090","",""
"","","","","","html-slider-response","128","233914","0.0-124.0","a6uby74yjn","9","NaN","<div style=""width:500px;"">
                            <p style=""font-size:50px; font-weight:bold;""
                            >happy</p>
                            <div style=""width:240px; margin: auto;"">
                                <img src=""images/map02_managua_scaleDef_orientDef_090.png"" style= ""width:200px""alt=""img"">
                            </div>
                        </div>","-200","","0","","","","images/map02_managua_scaleDef_orientDef_090.png","happy","1","02","02","managua","orientDef","scaleDef","090","",""
"","","","","","html-slider-response","129","236015","0.0-125.0","a6uby74yjn","9","NaN","<div style=""width:500px;"">
                            <p style=""font-size:50px; font-weight:bold;""
                            >happy</p>
                            <div style=""width:240px; margin: auto;"">
                                <img src=""images/map12_PuRd_scaleRev_orientMir_180.png"" style= ""width:200px""alt=""img"">
                            </div>
                        </div>","200","","0","","","","images/map12_PuRd_scaleRev_orientMir_180.png","happy","1","12","12","PuRd","orientMir","scaleRev","180","",""
"","","","","","html-slider-response","130","237588","0.0-126.0","a6uby74yjn","9","NaN","<div style=""width:500px;"">
                            <p style=""font-size:50px; font-weight:bold;""
                            >happy</p>
                            <div style=""width:240px; margin: auto;"">
                                <img src=""images/map12_PuRd_scaleDef_orientMir_090.png"" style= ""width:200px""alt=""img"">
                            </div>
                        </div>","200","","0","","","","images/map12_PuRd_scaleDef_orientMir_090.png","happy","1","12","12","PuRd","orientMir","scaleDef","090","",""
"","","","","","html-slider-response","131","239358","0.0-127.0","a6uby74yjn","9","NaN","<div style=""width:500px;"">
                            <p style=""font-size:50px; font-weight:bold;""
                            >happy</p>
                            <div style=""width:240px; margin: auto;"">
                                <img src=""images/map26_RdYlGn_scaleRev_orientMir_180.png"" style= ""width:200px""alt=""img"">
                            </div>
                        </div>","94","","0","","","","images/map26_RdYlGn_scaleRev_orientMir_180.png","happy","1","26","26","RdYlGn","orientMir","scaleRev","180","",""
"","","","","","html-slider-response","132","241155","0.0-128.0","a6uby74yjn","9","NaN","<div style=""width:500px;"">
                            <p style=""font-size:50px; font-weight:bold;""
                            >happy</p>
                            <div style=""width:240px; margin: auto;"">
                                <img src=""images/map07_Greys_scaleDef_orientDef_270.png"" style= ""width:200px""alt=""img"">
                            </div>
                        </div>","-200","","0","","","","images/map07_Greys_scaleDef_orientDef_270.png","happy","1","07","07","Greys","orientDef","scaleDef","270","",""
"","","","","","html-slider-response","133","242869","0.0-129.0","a6uby74yjn","9","NaN","<div style=""width:500px;"">
                            <p style=""font-size:50px; font-weight:bold;""
                            >happy</p>
                            <div style=""width:240px; margin: auto;"">
                                <img src=""images/map07_cividis_scaleRev_orientDef_180.png"" style= ""width:200px""alt=""img"">
                            </div>
                        </div>","-98","","0","","","","images/map07_cividis_scaleRev_orientDef_180.png","happy","1","07","07","cividis","orientDef","scaleRev","180","",""
"","","","","","html-slider-response","134","244416","0.0-130.0","a6uby74yjn","9","NaN","<div style=""width:500px;"">
                            <p style=""font-size:50px; font-weight:bold;""
                            >happy</p>
                            <div style=""width:240px; margin: auto;"">
                                <img src=""images/map26_RdYlBu_scaleRev_orientMir_000.png"" style= ""width:200px""alt=""img"">
                            </div>
                        </div>","124","","0","","","","images/map26_RdYlBu_scaleRev_orientMir_000.png","happy","1","26","26","RdYlBu","orientMir","scaleRev","000","",""
"","","","","","html-slider-response","135","246214","0.0-131.0","a6uby74yjn","9","NaN","<div style=""width:500px;"">
                            <p style=""font-size:50px; font-weight:bold;""
                            >happy</p>
                            <div style=""width:240px; margin: auto;"">
                                <img src=""images/map13_GnBu_scaleDef_orientDef_270.png"" style= ""width:200px""alt=""img"">
                            </div>
                        </div>","138","","0","","","","images/map13_GnBu_scaleDef_orientDef_270.png","happy","1","13","13","GnBu","orientDef","scaleDef","270","",""
"","","","","","html-slider-response","136","247984","0.0-132.0","a6uby74yjn","9","NaN","<div style=""width:500px;"">
                            <p style=""font-size:50px; font-weight:bold;""
                            >happy</p>
                            <div style=""width:240px; margin: auto;"">
                                <img src=""images/map26_RdBu_scaleDef_orientDef_090.png"" style= ""width:200px""alt=""img"">
                            </div>
                        </div>","69","","0","","","","images/map26_RdBu_scaleDef_orientDef_090.png","happy","1","26","26","RdBu","orientDef","scaleDef","090","",""
"","","","","","html-slider-response","137","249382","0.0-133.0","a6uby74yjn","9","NaN","<div style=""width:500px;"">
                            <p style=""font-size:50px; font-weight:bold;""
                            >happy</p>
                            <div style=""width:240px; margin: auto;"">
                                <img src=""images/map05_plasma_scaleRev_orientMir_000.png"" style= ""width:200px""alt=""img"">
                            </div>
                        </div>","115","","0","","","","images/map05_plasma_scaleRev_orientMir_000.png","happy","1","05","05","plasma","orientMir","scaleRev","000","",""
"","","","","","html-slider-response","138","250881","0.0-134.0","a6uby74yjn","9","NaN","<div style=""width:500px;"">
                            <p style=""font-size:50px; font-weight:bold;""
                            >happy</p>
                            <div style=""width:240px; margin: auto;"">
                                <img src=""images/map07_Purples_scaleRev_orientMir_180.png"" style= ""width:200px""alt=""img"">
                            </div>
                        </div>","117","","0","","","","images/map07_Purples_scaleRev_orientMir_180.png","happy","1","07","07","Purples","orientMir","scaleRev","180","",""
"","","","","","html-slider-response","139","252548","0.0-135.0","a6uby74yjn","9","NaN","<div style=""width:500px;"">
                            <p style=""font-size:50px; font-weight:bold;""
                            >happy</p>
                            <div style=""width:240px; margin: auto;"">
                                <img src=""images/map23_PRGn_scaleRev_orientDef_180.png"" style= ""width:200px""alt=""img"">
                            </div>
                        </div>","101","","0","","","","images/map23_PRGn_scaleRev_orientDef_180.png","happy","1","23","23","PRGn","orientDef","scaleRev","180","",""
"","","","","","html-slider-response","140","254720","0.0-136.0","a6uby74yjn","9","NaN","<div style=""width:500px;"">
                            <p style=""font-size:50px; font-weight:bold;""
                            >happy</p>
                            <div style=""width:240px; margin: auto;"">
                                <img src=""images/map05_turbo_scaleRev_orientDef_000.png"" style= ""width:200px""alt=""img"">
                            </div>
                        </div>","200","","0","","","","images/map05_turbo_scaleRev_orientDef_000.png","happy","1","05","05","turbo","orientDef","scaleRev","000","",""
"","","","","","html-button-response","141","256161","0.0-137.0","a6uby74yjn","9","939","<p>You are doing great!<br></br> You are halway done with the current block. When you are ready to continue, click the 'Continue' button.</p>","0","","","","","","","","","","","","","","","",""
"","","","","","html-slider-response","142","257593","0.0-138.0","a6uby74yjn","9","NaN","<div style=""width:500px;"">
                            <p style=""font-size:50px; font-weight:bold;""
                            >happy</p>
                            <div style=""width:240px; margin: auto;"">
                                <img src=""images/map27_berlin_scaleDef_orientMir_270.png"" style= ""width:200px""alt=""img"">
                            </div>
                        </div>","-200","","0","","","","images/map27_berlin_scaleDef_orientMir_270.png","happy","1","27","27","berlin","orientMir","scaleDef","270","",""
"","","","","","html-slider-response","143","259391","0.0-139.0","a6uby74yjn","9","NaN","<div style=""width:500px;"">
                            <p style=""font-size:50px; font-weight:bold;""
                            >happy</p>
                            <div style=""width:240px; margin: auto;"">
                                <img src=""images/map02_gist_earth_scaleRev_orientMir_180.png"" style= ""width:200px""alt=""img"">
                            </div>
                        </div>","38","","0","","","","images/map02_gist_earth_scaleRev_orientMir_180.png","happy","1","02","02","gist","scaleRev","earth","orientMir","",""
"","","","","","html-slider-response","144","260899","0.0-140.0","a6uby74yjn","9","NaN","<div style=""width:500px;"">
                            <p style=""font-size:50px; font-weight:bold;""
                            >happy</p>
                            <div style=""width:240px; margin: auto;"">
                                <img src=""images/map27_seismic_scaleRev_orientMir_180.png"" style= ""width:200px""alt=""img"">
                            </div>
                        </div>","90","","0","","","","images/map27_seismic_scaleRev_orientMir_180.png","happy","1","27","27","seismic","orientMir","scaleRev","180","",""
"","","","","","html-slider-response","145","262699","0.0-141.0","a6uby74yjn","9","NaN","<div style=""width:500px;"">
                            <p style=""font-size:50px; font-weight:bold;""
                            >happy</p>
                            <div style=""width:240px; margin: auto;"">
                                <img src=""images/map23_PuOr_scaleDef_orientMir_090.png"" style= ""width:200px""alt=""img"">
                            </div>
                        </div>","172","","0","","","","images/map23_PuOr_scaleDef_orientMir_090.png","happy","1","23","23","PuOr","orientMir","scaleDef","090","",""
"","","","","","html-slider-response","146","264366","0.0-142.0","a6uby74yjn","9","NaN","<div style=""width:500px;"">
                            <p style=""font-size:50px; font-weight:bold;""
                            >happy</p>
                            <div style=""width:240px; margin: auto;"">
                                <img src=""images/map02_gist_earth_scaleDef_orientMir_090.png"" style= ""width:200px""alt=""img"">
                            </div>
                        </div>","28","","0","","","","images/map02_gist_earth_scaleDef_orientMir_090.png","happy","1","02","02","gist","scaleDef","earth","orientMir","",""
"","","","","","html-slider-response","147","266233","0.0-143.0","a6uby74yjn","9","NaN","<div style=""width:500px;"">
                            <p style=""font-size:50px; font-weight:bold;""
                            >happy</p>
                            <div style=""width:240px; margin: auto;"">
                                <img src=""images/map13_RdPu_scaleRev_orientDef_000.png"" style= ""width:200px""alt=""img"">
                            </div>
                        </div>","166","","0","","","","images/map13_RdPu_scaleRev_orientDef_000.png","happy","1","13","13","RdPu","orientDef","scaleRev","000","",""
"","","","","","html-slider-response","148","267882","0.0-144.0","a6uby74yjn","9","NaN","<div style=""width:500px;"">
                            <p style=""font-size:50px; font-weight:bold;""
                            >happy</p>
                            <div style=""width:240px; margin: auto;"">
                                <img src=""images/map13_BuPu_scaleRev_orientDef_180.png"" style= ""width:200px""alt=""img"">
                            </div>
                        </div>","154","","0","","","","images/map13_BuPu_scaleRev_orientDef_180.png","happy","1","13","13","BuPu","orientDef","scaleRev","180","",""
"","","","","","html-slider-response","149","269657","0.0-145.0","a6uby74yjn","9","NaN","<div style=""width:500px;"">
                            <p style=""font-size:50px; font-weight:bold;""
                            >happy</p>
                            <div style=""width:240px; margin: auto;"">
                                <img src=""images/map23_PRGn_scaleDef_orientDef_090.png"" style= ""width:200px""alt=""img"">
                            </div>
                        </div>","58","","0","","","","images/map23_PRGn_scaleDef_orientDef_090.png","happy","1","23","23","PRGn","orientDef","scaleDef","090","",""
"","","","","","html-slider-response","150","271572","0.0-146.0","a6uby74yjn","9","NaN","<div style=""width:500px;"">
                            <p style=""font-size:50px; font-weight:bold;""
                            >happy</p>
                            <div style=""width:240px; margin: auto;"">
                                <img src=""images/map26_RdBu_scaleRev_orientDef_180.png"" style= ""width:200px""alt=""img"">
                            </div>
                        </div>","50","","0","","","","images/map26_RdBu_scaleRev_orientDef_180.png","happy","1","26","26","RdBu","orientDef","scaleRev","180","",""
"","","","","","html-slider-response","151","273192","0.0-147.0","a6uby74yjn","9","NaN","<div style=""width:500px;"">
                            <p style=""font-size:50px; font-weight:bold;""
                            >happy</p>
                            <div style=""width:240px; margin: auto;"">
                                <img src=""images/map10_Blues_scaleRev_orientDef_000.png"" style= ""width:200px""alt=""img"">
                            </div>
                        </div>","50","","0","","","","images/map10_Blues_scaleRev_orientDef_000.png","happy","1","10","10","Blues","orientDef","scaleRev","000","",""
"","","","","","html-slider-response","152","275139","0.0-148.0","a6uby74yjn","9","NaN","<div style=""width:500px;"">
                            <p style=""font-size:50px; font-weight:bold;""
                            >happy</p>
                            <div style=""width:240px; margin: auto;"">
                                <img src=""images/map15_YlGn_scaleDef_orientMir_090.png"" style= ""width:200px""alt=""img"">
                            </div>
                        </div>","64","","0","","","","images/map15_YlGn_scaleDef_orientMir_090.png","happy","1","15","15","YlGn","orientMir","scaleDef","090","",""
"","","","","","html-slider-response","153","277525","0.0-149.0","a6uby74yjn","9","NaN","<div style=""width:500px;"">
                            <p style=""font-size:50px; font-weight:bold;""
                            >happy</p>
                            <div style=""width:240px; margin: auto;"">
                                <img src=""images/map10_YlOrBr_scaleDef_orientMir_270.png"" style= ""width:200px""alt=""img"">
                            </div>
                        </div>","200","","0","","","","images/map10_YlOrBr_scaleDef_orientMir_270.png","happy","1","10","10","YlOrBr","orientMir","scaleDef","270","",""
"","","","","","html-slider-response","154","279148","0.0-150.0","a6uby74yjn","9","NaN","<div style=""width:500px;"">
                            <p style=""font-size:50px; font-weight:bold;""
                            >happy</p>
                            <div style=""width:240px; margin: auto;"">
                                <img src=""images/map07_Blues_scaleDef_orientMir_270.png"" style= ""width:200px""alt=""img"">
                            </div>
                        </div>","66","","0","","","","images/map07_Blues_scaleDef_orientMir_270.png","happy","1","07","07","Blues","orientMir","scaleDef","270","",""
"","","","","","html-slider-response","155","280790","0.0-151.0","a6uby74yjn","9","NaN","<div style=""width:500px;"">
                            <p style=""font-size:50px; font-weight:bold;""
                            >happy</p>
                            <div style=""width:240px; margin: auto;"">
                                <img src=""images/map27_coolwarm_scaleRev_orientDef_180.png"" style= ""width:200px""alt=""img"">
                            </div>
                        </div>","62","","0","","","","images/map27_coolwarm_scaleRev_orientDef_180.png","happy","1","27","27","coolwarm","orientDef","scaleRev","180","",""
"","","","","","html-slider-response","156","282577","0.0-152.0","a6uby74yjn","9","NaN","<div style=""width:500px;"">
                            <p style=""font-size:50px; font-weight:bold;""
                            >happy</p>
                            <div style=""width:240px; margin: auto;"">
                                <img src=""images/map02_berlin_scaleRev_orientDef_000.png"" style= ""width:200px""alt=""img"">
                            </div>
                        </div>","-200","","0","","","","images/map02_berlin_scaleRev_orientDef_000.png","happy","1","02","02","berlin","orientDef","scaleRev","000","",""
"","","","","","html-slider-response","157","284148","0.0-153.0","a6uby74yjn","9","NaN","<div style=""width:500px;"">
                            <p style=""font-size:50px; font-weight:bold;""
                            >happy</p>
                            <div style=""width:240px; margin: auto;"">
                                <img src=""images/map02_vanimo_scaleRev_orientMir_000.png"" style= ""width:200px""alt=""img"">
                            </div>
                        </div>","-200","","0","","","","images/map02_vanimo_scaleRev_orientMir_000.png","happy","1","02","02","vanimo","orientMir","scaleRev","000","",""
