"success","timeout","failed_images","failed_audio","failed_video","trial_type","trial_index","time_elapsed","internal_node_id","subject_id","condition_num","rt","stimulus","response","question_order","slider_start","practiceTrial","practiceTrialNum","correct","image_path","concept","repetition","map_id","map_num","scale_name","orientation_code","mapping_code","rotation_code","ishihara_plate","correct_response"
"true","false","[]","[]","[]","preload","0","341","0.0-0.0","aknq9uord7","66","","","","","","","","","","","","","","","","","","",""
"","","","","","html-button-response","1","1122","0.0-1.0","aknq9uord7","66","779","Welcome to our experiment!<p>At the bottom of this screen, you will see a button that says ""Begin Experiment"".<br>Please only click that button when you are ready to complete the 30 minute experiment in one sitting.</p><p> Once you click that button, it will not be possible to restart the experiment.","0","","","","","","","","","","","","","","","",""
"true","","","","","fullscreen","2","3007","0.0-2.0","aknq9uord7","66","882","","","","","","","","","","","","","","","","","",""
"","","","","","survey-multi-select","3","8223","0.0-3.0","aknq9uord7","66","5211","","{""Consent"":[""<strong>I consent</strong>""]}","[0]","","","","","","","","","","","","","","",""
"","","","","","html-button-response","4","13455","0.0-4.0","aknq9uord7","66","5231","Welcome! <p> This experiment involves two parts: demographic information, followed by the experimental task.<p> It will take about 30 minutes to complete both parts.","0","","","","","","","","","","","","","","","",""
"","","","","","survey-text","5","40089","0.0-5.0","aknq9uord7","66","26627","","{""Age"":""19"",""Gender"":""Male"",""Race/ethnicity"":""White"",""Languages"":""English""}","","","","","","","","","","","","","","","",""
"","","","","","html-slider-response","6","106504","0.0-6.0","aknq9uord7","66","66412","<div style='text-align:left; font-size:20px; line-height:25px; width: 1000px;'>
                                During this experiment you will be asked to rate how much you associate maps with                    different concepts.<br> Below, you can see some examples of the maps you will be asked to rate. Above the maps
                    is the list of concepts.<br>You will be asked                    to rate how much you associate each map with each concept on a scale from 'not at all' to 'very much' like the
                    one below. <br><br>
                    Now, please look at the list of concepts and maps. For each concept, think about the map you associate 'very
                    much' with the concept.<br>                     When you see that map during the experiment, please rate it near the 'very much' endpoint of the
                    scale.<br>Now, please think about which map you associate 'not at all'                     with each concept. When you see that map during the experiment, please rate it near the 'not at all' endpoint
                    of the scale.<br>
                    Please use the full range of the scale. That is, if a map is somewhat associated with the concept, you would
                    click partway between the middle point and right side of the scale.                    You will be asked to rate each map for a given concept before moving on to the next concept.<br>Press the
                    'Continue' button for instructions on how to use the slider.                    <br>
                </div>

                <div style=""width: 500px; margin: 0 auto;"">
                    <!-- Centered text paragraphs -->
                    <div style=""text-align: center; width: 500px;"">
                        <p style=""font-size:25px; line-height:15px;"">
                            angry&nbsp;&nbsp;&nbsp;&nbsp;
                            sad&nbsp;&nbsp;&nbsp;&nbsp;
                            fearful&nbsp;&nbsp;&nbsp;&nbsp;
                            disgust&nbsp;&nbsp;&nbsp;&nbsp;
                            happy
                        </p>
                        <!-- <p style=""font-size:20px; line-height:15px;"">sad</p>
                        <p style=""font-size:20px;line-height:15px;"">fearful</p>
                        <p style=""font-size:20px;line-height:15px;"">disgust</p>
                        <p style=""font-size:20px;line-height:15px;"">happy</p> -->
                    </div>
            

                    <!-- Grid section -->
                   <div style=""display: flex; justify-content: center; padding-top: 15px;"">
                    <div style=""display: grid; grid-template-columns: repeat(10, 55px); grid-gap: 5px; width: auto;"">
                        <img src=""images/map02_Greens_scaleDef_orientDef_180.png"" alt=""map"" style=""width: 100%;""><img src=""images/map15_coolwarm_scaleDef_orientDef_180.png"" alt=""map"" style=""width: 100%;""><img src=""images/map27_Greys_scaleDef_orientMir_000.png"" alt=""map"" style=""width: 100%;""><img src=""images/map05_PuRd_scaleRev_orientMir_270.png"" alt=""map"" style=""width: 100%;""><img src=""images/map02_Blues_scaleDef_orientDef_000.png"" alt=""map"" style=""width: 100%;""><img src=""images/map13_RdYlGn_scaleDef_orientMir_180.png"" alt=""map"" style=""width: 100%;""><img src=""images/map02_Oranges_scaleDef_orientMir_000.png"" alt=""map"" style=""width: 100%;""><img src=""images/map12_PRGn_scaleRev_orientDef_270.png"" alt=""map"" style=""width: 100%;""><img src=""images/map12_PuOr_scaleDef_orientMir_180.png"" alt=""map"" style=""width: 100%;""><img src=""images/map07_BuPu_scaleDef_orientDef_180.png"" alt=""map"" style=""width: 100%;""><img src=""images/map23_gist_earth_scaleRev_orientMir_270.png"" alt=""map"" style=""width: 100%;""><img src=""images/map15_bwr_scaleDef_orientMir_000.png"" alt=""map"" style=""width: 100%;""><img src=""images/map05_YlOrBr_scaleDef_orientDef_000.png"" alt=""map"" style=""width: 100%;""><img src=""images/map26_plasma_scaleDef_orientMir_000.png"" alt=""map"" style=""width: 100%;""><img src=""images/map13_RdBu_scaleDef_orientDef_180.png"" alt=""map"" style=""width: 100%;""><img src=""images/map26_inferno_scaleDef_orientMir_180.png"" alt=""map"" style=""width: 100%;""><img src=""images/map15_seismic_scaleDef_orientMir_180.png"" alt=""map"" style=""width: 100%;""><img src=""images/map07_PuBu_scaleRev_orientMir_270.png"" alt=""map"" style=""width: 100%;""><img src=""images/map05_OrRd_scaleRev_orientMir_090.png"" alt=""map"" style=""width: 100%;""><img src=""images/map23_managua_scaleDef_orientDef_180.png"" alt=""map"" style=""width: 100%;""><img src=""images/map13_RdYlBu_scaleRev_orientMir_090.png"" alt=""map"" style=""width: 100%;""><img src=""images/map12_PiYG_scaleRev_orientDef_090.png"" alt=""map"" style=""width: 100%;""><img src=""images/map27_magma_scaleDef_orientDef_000.png"" alt=""map"" style=""width: 100%;""><img src=""images/map10_PuBuGn_scaleDef_orientDef_180.png"" alt=""map"" style=""width: 100%;""><img src=""images/map10_YlGnBu_scaleRev_orientDef_090.png"" alt=""map"" style=""width: 100%;""><img src=""images/map07_GnBu_scaleRev_orientMir_090.png"" alt=""map"" style=""width: 100%;""><img src=""images/map02_Reds_scaleDef_orientMir_180.png"" alt=""map"" style=""width: 100%;""><img src=""images/map05_YlOrRd_scaleRev_orientDef_270.png"" alt=""map"" style=""width: 100%;""><img src=""images/map26_turbo_scaleDef_orientDef_000.png"" alt=""map"" style=""width: 100%;""><img src=""images/map23_vanimo_scaleRev_orientMir_090.png"" alt=""map"" style=""width: 100%;""><img src=""images/map10_BuGn_scaleDef_orientMir_000.png"" alt=""map"" style=""width: 100%;""><img src=""images/map27_cividis_scaleRev_orientDef_270.png"" alt=""map"" style=""width: 100%;""><img src=""images/map23_berlin_scaleRev_orientDef_090.png"" alt=""map"" style=""width: 100%;""><img src=""images/map26_viridis_scaleDef_orientDef_180.png"" alt=""map"" style=""width: 100%;""><img src=""images/map12_BrBG_scaleDef_orientMir_000.png"" alt=""map"" style=""width: 100%;""><img src=""images/map15_Spectral_scaleRev_orientDef_090.png"" alt=""map"" style=""width: 100%;""><img src=""images/map27_Purples_scaleDef_orientMir_180.png"" alt=""map"" style=""width: 100%;""><img src=""images/map07_RdPu_scaleRev_orientDef_090.png"" alt=""map"" style=""width: 100%;""><img src=""images/map13_RdGy_scaleRev_orientDef_090.png"" alt=""map"" style=""width: 100%;""><img src=""images/map10_YlGn_scaleDef_orientMir_180.png"" alt=""map"" style=""width: 100%;"">
                    </div>
                </div>

                    <!-- Clear floats -->
                    <div style=""clear: both;""></div>
                </div>
                            ","1","","0","true","","","","","","","","","","","","",""
"","","","","","html-button-response","7","108370","0.0-7.0","aknq9uord7","66","1865","<div style=""width:800px;""><p style=""text-align:left"">To move the slider, click and drag your cursor to the location of the scale where you would like to make your rating and then let go. When you let go of the slider, your response will be recorded and the next trial will begin. <br>
                    We are interested in your initial impressions of each map for the given concept, so please go with your first intuition. <br>
                    Before you begin the experiment, there will be four training trials for you to practice using the scale. <br>
                     When you are ready to start the training trials, please click ""Continue"".</p><br></div>","0","","","","","","","","","","","","","","","",""
"","","","","","html-slider-response","8","111815","0.0-8.0-0.0","aknq9uord7","66","NaN","<div style=""width:500px;"">
                                    <p style=""font-size:25px;"">Please move the slider all the way to the <br> right endpoint of the scale</p>

                                    </div>
                                </div>","200","","0","true","0","true","","","","","","","","","","",""
"","","","","","html-button-response","9","113387","0.0-8.0-1.0","aknq9uord7","66","1069","<p align='center'><b>Good job!</b> Click on 'Continue' to proceed.</p>","0","","","","","","","","","","","","","","","",""
"","","","","","html-slider-response","10","115216","0.0-9.0-0.0","aknq9uord7","66","NaN","<div style=""width:500px;"">
                                    <p style=""font-size:25px;"">Please move the slider all the way to the <br> left endpoint of the scale</p>

                                    </div>
                                </div>","-200","","0","true","1","true","","","","","","","","","","",""
"","","","","","html-button-response","11","116687","0.0-9.0-1.0","aknq9uord7","66","969","<p align='center'><b>Good job!</b> Click on 'Continue' to proceed.</p>","0","","","","","","","","","","","","","","","",""
"","","","","","html-slider-response","12","122064","0.0-10.0-0.0","aknq9uord7","66","NaN","<div style=""width:500px;"">
                                    <p style=""font-size:25px;"">Please move the slider halfway between the center and right endpoint of the scale</p>

                                    </div>
                                </div>","101","","0","true","2","true","","","","","","","","","","",""
"","","","","","html-button-response","13","123570","0.0-10.0-1.0","aknq9uord7","66","1004","<p align='center'><b>Good job!</b> Click on 'Continue' to proceed.</p>","0","","","","","","","","","","","","","","","",""
"","","","","","html-slider-response","14","126598","0.0-11.0-0.0","aknq9uord7","66","NaN","<div style=""width:500px;"">
                                    <p style=""font-size:25px;"">Please move the slider halfway between the center and left endpoint of the scale</p>

                                    </div>
                                </div>","-116","","0","true","3","false","","","","","","","","","","",""
"","","","","","html-button-response","15","128920","0.0-11.0-1.0","aknq9uord7","66","1820","<p align='center'><b>Not quite!</b> The slider was not placed near the instructed located. Click on 'Continue' to try again. </p>","0","","","","","","","","","","","","","","","",""
"","","","","","html-slider-response","16","134431","0.0-11.1-0.1","aknq9uord7","66","NaN","<div style=""width:500px;"">
                                    <p style=""font-size:25px;"">Please move the slider halfway between the center and left endpoint of the scale</p>

                                    </div>
                                </div>","-110","","0","true","3","true","","","","","","","","","","",""
"","","","","","html-button-response","17","135903","0.0-11.1-1.1","aknq9uord7","66","969","<p align='center'><b>Good job!</b> Click on 'Continue' to proceed.</p>","0","","","","","","","","","","","","","","","",""
"","","","","","html-button-response","18","138286","0.0-12.0","aknq9uord7","66","2382","<p>Great job! You've completed the practice trials. Now you will begin the main task.</p>","0","","","","","","","","","","","","","","","",""
"","","","","","html-button-response","19","143536","0.0-13.0","aknq9uord7","66","5249","<p>In this block of trials, you will be asked to rate how much you associate each map with:</p > <p style = 'font-size:150%; font-weight: bold'>angry</p><br></br>","0","","","","","","","","","","","","","","","",""
"","","","","","html-slider-response","20","151198","0.0-14.0","aknq9uord7","66","NaN","<div style=""width:500px;"">
                            <p style=""font-size:50px; font-weight:bold;""
                            >angry</p>
                            <div style=""width:240px; margin: auto;"">
                                <img src=""images/map23_gist_earth_scaleDef_orientMir_180.png"" style= ""width:200px""alt=""img"">
                            </div>
                        </div>","-200","","0","","","","images/map23_gist_earth_scaleDef_orientMir_180.png","angry","1","23","23","gist","scaleDef","earth","orientMir","",""
"","","","","","html-slider-response","21","156598","0.0-15.0","aknq9uord7","66","NaN","<div style=""width:500px;"">
                            <p style=""font-size:50px; font-weight:bold;""
                            >angry</p>
                            <div style=""width:240px; margin: auto;"">
                                <img src=""images/map10_YlGn_scaleDef_orientMir_180.png"" style= ""width:200px""alt=""img"">
                            </div>
                        </div>","-200","","0","","","","images/map10_YlGn_scaleDef_orientMir_180.png","angry","1","10","10","YlGn","orientMir","scaleDef","180","",""
"","","","","","html-slider-response","22","162281","0.0-16.0","aknq9uord7","66","NaN","<div style=""width:500px;"">
                            <p style=""font-size:50px; font-weight:bold;""
                            >angry</p>
                            <div style=""width:240px; margin: auto;"">
                                <img src=""images/map02_Oranges_scaleDef_orientMir_000.png"" style= ""width:200px""alt=""img"">
                            </div>
                        </div>","114","","0","","","","images/map02_Oranges_scaleDef_orientMir_000.png","angry","1","02","02","Oranges","orientMir","scaleDef","000","",""
"","","","","","html-slider-response","23","167814","0.0-17.0","aknq9uord7","66","NaN","<div style=""width:500px;"">
                            <p style=""font-size:50px; font-weight:bold;""
                            >angry</p>
                            <div style=""width:240px; margin: auto;"">
                                <img src=""images/map02_Blues_scaleRev_orientDef_090.png"" style= ""width:200px""alt=""img"">
                            </div>
                        </div>","-162","","0","","","","images/map02_Blues_scaleRev_orientDef_090.png","angry","1","02","02","Blues","orientDef","scaleRev","090","",""
"","","","","","html-slider-response","24","172447","0.0-18.0","aknq9uord7","66","NaN","<div style=""width:500px;"">
                            <p style=""font-size:50px; font-weight:bold;""
                            >angry</p>
                            <div style=""width:240px; margin: auto;"">
                                <img src=""images/map26_plasma_scaleDef_orientMir_000.png"" style= ""width:200px""alt=""img"">
                            </div>
                        </div>","46","","0","","","","images/map26_plasma_scaleDef_orientMir_000.png","angry","1","26","26","plasma","orientMir","scaleDef","000","",""
"","","","","","html-slider-response","25","176031","0.0-19.0","aknq9uord7","66","NaN","<div style=""width:500px;"">
                            <p style=""font-size:50px; font-weight:bold;""
                            >angry</p>
                            <div style=""width:240px; margin: auto;"">
                                <img src=""images/map02_Greens_scaleRev_orientDef_270.png"" style= ""width:200px""alt=""img"">
                            </div>
                        </div>","-200","","0","","","","images/map02_Greens_scaleRev_orientDef_270.png","angry","1","02","02","Greens","orientDef","scaleRev","270","",""
"","","","","","html-slider-response","26","183247","0.0-20.0","aknq9uord7","66","NaN","<div style=""width:500px;"">
                            <p style=""font-size:50px; font-weight:bold;""
                            >angry</p>
                            <div style=""width:240px; margin: auto;"">
                                <img src=""images/map27_Greys_scaleRev_orientMir_090.png"" style= ""width:200px""alt=""img"">
                            </div>
                        </div>","-1","","0","","","","images/map27_Greys_scaleRev_orientMir_090.png","angry","1","27","27","Greys","orientMir","scaleRev","090","",""
"","","","","","html-slider-response","27","205365","0.0-21.0","aknq9uord7","66","NaN","<div style=""width:500px;"">
                            <p style=""font-size:50px; font-weight:bold;""
                            >angry</p>
                            <div style=""width:240px; margin: auto;"">
                                <img src=""images/map10_PuBuGn_scaleDef_orientDef_180.png"" style= ""width:200px""alt=""img"">
                            </div>
                        </div>","-136","","0","","","","images/map10_PuBuGn_scaleDef_orientDef_180.png","angry","1","10","10","PuBuGn","orientDef","scaleDef","180","",""
"","","","","","html-slider-response","28","210614","0.0-22.0","aknq9uord7","66","NaN","<div style=""width:500px;"">
                            <p style=""font-size:50px; font-weight:bold;""
                            >angry</p>
                            <div style=""width:240px; margin: auto;"">
                                <img src=""images/map27_magma_scaleRev_orientDef_090.png"" style= ""width:200px""alt=""img"">
                            </div>
                        </div>","148","","0","","","","images/map27_magma_scaleRev_orientDef_090.png","angry","1","27","27","magma","orientDef","scaleRev","090","",""
"","","","","","html-slider-response","29","214247","0.0-23.0","aknq9uord7","66","NaN","<div style=""width:500px;"">
                            <p style=""font-size:50px; font-weight:bold;""
                            >angry</p>
                            <div style=""width:240px; margin: auto;"">
                                <img src=""images/map15_seismic_scaleRev_orientMir_270.png"" style= ""width:200px""alt=""img"">
                            </div>
                        </div>","47","","0","","","","images/map15_seismic_scaleRev_orientMir_270.png","angry","1","15","15","seismic","orientMir","scaleRev","270","",""
"","","","","","html-slider-response","30","216964","0.0-24.0","aknq9uord7","66","NaN","<div style=""width:500px;"">
                            <p style=""font-size:50px; font-weight:bold;""
                            >angry</p>
                            <div style=""width:240px; margin: auto;"">
                                <img src=""images/map15_seismic_scaleDef_orientMir_180.png"" style= ""width:200px""alt=""img"">
                            </div>
                        </div>","60","","0","","","","images/map15_seismic_scaleDef_orientMir_180.png","angry","1","15","15","seismic","orientMir","scaleDef","180","",""
"","","","","","html-slider-response","31","222247","0.0-25.0","aknq9uord7","66","NaN","<div style=""width:500px;"">
                            <p style=""font-size:50px; font-weight:bold;""
                            >angry</p>
                            <div style=""width:240px; margin: auto;"">
                                <img src=""images/map07_BuPu_scaleRev_orientDef_270.png"" style= ""width:200px""alt=""img"">
                            </div>
                        </div>","-69","","0","","","","images/map07_BuPu_scaleRev_orientDef_270.png","angry","1","07","07","BuPu","orientDef","scaleRev","270","",""
"","","","","","html-slider-response","32","224247","0.0-26.0","aknq9uord7","66","NaN","<div style=""width:500px;"">
                            <p style=""font-size:50px; font-weight:bold;""
                            >angry</p>
                            <div style=""width:240px; margin: auto;"">
                                <img src=""images/map05_OrRd_scaleDef_orientMir_000.png"" style= ""width:200px""alt=""img"">
                            </div>
                        </div>","9","","0","","","","images/map05_OrRd_scaleDef_orientMir_000.png","angry","1","05","05","OrRd","orientMir","scaleDef","000","",""
"","","","","","html-slider-response","33","229413","0.0-27.0","aknq9uord7","66","NaN","<div style=""width:500px;"">
                            <p style=""font-size:50px; font-weight:bold;""
                            >angry</p>
                            <div style=""width:240px; margin: auto;"">
                                <img src=""images/map15_coolwarm_scaleRev_orientDef_270.png"" style= ""width:200px""alt=""img"">
                            </div>
                        </div>","50","","0","","","","images/map15_coolwarm_scaleRev_orientDef_270.png","angry","1","15","15","coolwarm","orientDef","scaleRev","270","",""
"","","","","","html-slider-response","34","239629","0.0-28.0","aknq9uord7","66","NaN","<div style=""width:500px;"">
                            <p style=""font-size:50px; font-weight:bold;""
                            >angry</p>
                            <div style=""width:240px; margin: auto;"">
                                <img src=""images/map23_berlin_scaleRev_orientDef_090.png"" style= ""width:200px""alt=""img"">
                            </div>
                        </div>","78","","0","","","","images/map23_berlin_scaleRev_orientDef_090.png","angry","1","23","23","berlin","orientDef","scaleRev","090","",""
"","","","","","html-slider-response","35","243480","0.0-29.0","aknq9uord7","66","NaN","<div style=""width:500px;"">
                            <p style=""font-size:50px; font-weight:bold;""
                            >angry</p>
                            <div style=""width:240px; margin: auto;"">
                                <img src=""images/map27_Greys_scaleDef_orientMir_000.png"" style= ""width:200px""alt=""img"">
                            </div>
                        </div>","-117","","0","","","","images/map27_Greys_scaleDef_orientMir_000.png","angry","1","27","27","Greys","orientMir","scaleDef","000","",""
"","","","","","html-slider-response","36","247447","0.0-30.0","aknq9uord7","66","NaN","<div style=""width:500px;"">
                            <p style=""font-size:50px; font-weight:bold;""
                            >angry</p>
                            <div style=""width:240px; margin: auto;"">
                                <img src=""images/map07_RdPu_scaleRev_orientDef_090.png"" style= ""width:200px""alt=""img"">
                            </div>
                        </div>","78","","0","","","","images/map07_RdPu_scaleRev_orientDef_090.png","angry","1","07","07","RdPu","orientDef","scaleRev","090","",""
"","","","","","html-slider-response","37","251280","0.0-31.0","aknq9uord7","66","NaN","<div style=""width:500px;"">
                            <p style=""font-size:50px; font-weight:bold;""
                            >angry</p>
                            <div style=""width:240px; margin: auto;"">
                                <img src=""images/map07_GnBu_scaleRev_orientMir_090.png"" style= ""width:200px""alt=""img"">
                            </div>
                        </div>","-200","","0","","","","images/map07_GnBu_scaleRev_orientMir_090.png","angry","1","07","07","GnBu","orientMir","scaleRev","090","",""
"","","","","","html-slider-response","38","256347","0.0-32.0","aknq9uord7","66","NaN","<div style=""width:500px;"">
                            <p style=""font-size:50px; font-weight:bold;""
                            >angry</p>
                            <div style=""width:240px; margin: auto;"">
                                <img src=""images/map02_Reds_scaleRev_orientMir_270.png"" style= ""width:200px""alt=""img"">
                            </div>
                        </div>","135","","0","","","","images/map02_Reds_scaleRev_orientMir_270.png","angry","1","02","02","Reds","orientMir","scaleRev","270","",""
"","","","","","html-slider-response","39","258614","0.0-33.0","aknq9uord7","66","NaN","<div style=""width:500px;"">
                            <p style=""font-size:50px; font-weight:bold;""
                            >angry</p>
                            <div style=""width:240px; margin: auto;"">
                                <img src=""images/map26_viridis_scaleDef_orientDef_180.png"" style= ""width:200px""alt=""img"">
                            </div>
                        </div>","-200","","0","","","","images/map26_viridis_scaleDef_orientDef_180.png","angry","1","26","26","viridis","orientDef","scaleDef","180","",""
"","","","","","html-slider-response","40","261963","0.0-34.0","aknq9uord7","66","NaN","<div style=""width:500px;"">
                            <p style=""font-size:50px; font-weight:bold;""
                            >angry</p>
                            <div style=""width:240px; margin: auto;"">
                                <img src=""images/map15_bwr_scaleRev_orientMir_090.png"" style= ""width:200px""alt=""img"">
                            </div>
                        </div>","76","","0","","","","images/map15_bwr_scaleRev_orientMir_090.png","angry","1","15","15","bwr","orientMir","scaleRev","090","",""
"","","","","","html-slider-response","41","264613","0.0-35.0","aknq9uord7","66","NaN","<div style=""width:500px;"">
                            <p style=""font-size:50px; font-weight:bold;""
                            >angry</p>
                            <div style=""width:240px; margin: auto;"">
                                <img src=""images/map15_Spectral_scaleRev_orientDef_090.png"" style= ""width:200px""alt=""img"">
                            </div>
                        </div>","-200","","0","","","","images/map15_Spectral_scaleRev_orientDef_090.png","angry","1","15","15","Spectral","orientDef","scaleRev","090","",""
"","","","","","html-slider-response","42","269263","0.0-36.0","aknq9uord7","66","NaN","<div style=""width:500px;"">
                            <p style=""font-size:50px; font-weight:bold;""
                            >angry</p>
                            <div style=""width:240px; margin: auto;"">
                                <img src=""images/map05_YlOrBr_scaleDef_orientDef_000.png"" style= ""width:200px""alt=""img"">
                            </div>
                        </div>","-137","","0","","","","images/map05_YlOrBr_scaleDef_orientDef_000.png","angry","1","05","05","YlOrBr","orientDef","scaleDef","000","",""
"","","","","","html-slider-response","43","271297","0.0-37.0","aknq9uord7","66","NaN","<div style=""width:500px;"">
                            <p style=""font-size:50px; font-weight:bold;""
                            >angry</p>
                            <div style=""width:240px; margin: auto;"">
                                <img src=""images/map12_PiYG_scaleRev_orientDef_090.png"" style= ""width:200px""alt=""img"">
                            </div>
                        </div>","-6","","0","","","","images/map12_PiYG_scaleRev_orientDef_090.png","angry","1","12","12","PiYG","orientDef","scaleRev","090","",""
"","","","","","html-slider-response","44","273980","0.0-38.0","aknq9uord7","66","NaN","<div style=""width:500px;"">
                            <p style=""font-size:50px; font-weight:bold;""
                            >angry</p>
                            <div style=""width:240px; margin: auto;"">
                                <img src=""images/map10_BuGn_scaleRev_orientMir_090.png"" style= ""width:200px""alt=""img"">
                            </div>
                        </div>","-200","","0","","","","images/map10_BuGn_scaleRev_orientMir_090.png","angry","1","10","10","BuGn","orientMir","scaleRev","090","",""
"","","","","","html-slider-response","45","279313","0.0-39.0","aknq9uord7","66","NaN","<div style=""width:500px;"">
                            <p style=""font-size:50px; font-weight:bold;""
                            >angry</p>
                            <div style=""width:240px; margin: auto;"">
                                <img src=""images/map10_PuBuGn_scaleRev_orientDef_270.png"" style= ""width:200px""alt=""img"">
                            </div>
                        </div>","-136","","0","","","","images/map10_PuBuGn_scaleRev_orientDef_270.png","angry","1","10","10","PuBuGn","orientDef","scaleRev","270","",""
"","","","","","html-slider-response","46","281696","0.0-40.0","aknq9uord7","66","NaN","<div style=""width:500px;"">
                            <p style=""font-size:50px; font-weight:bold;""
                            >angry</p>
                            <div style=""width:240px; margin: auto;"">
                                <img src=""images/map12_PRGn_scaleDef_orientDef_180.png"" style= ""width:200px""alt=""img"">
                            </div>
                        </div>","-200","","0","","","","images/map12_PRGn_scaleDef_orientDef_180.png","angry","1","12","12","PRGn","orientDef","scaleDef","180","",""
"","","","","","html-slider-response","47","283779","0.0-41.0","aknq9uord7","66","NaN","<div style=""width:500px;"">
                            <p style=""font-size:50px; font-weight:bold;""
                            >angry</p>
                            <div style=""width:240px; margin: auto;"">
                                <img src=""images/map12_BrBG_scaleRev_orientMir_090.png"" style= ""width:200px""alt=""img"">
                            </div>
                        </div>","-200","","0","","","","images/map12_BrBG_scaleRev_orientMir_090.png","angry","1","12","12","BrBG","orientMir","scaleRev","090","",""
"","","","","","html-slider-response","48","286312","0.0-42.0","aknq9uord7","66","NaN","<div style=""width:500px;"">
                            <p style=""font-size:50px; font-weight:bold;""
                            >angry</p>
                            <div style=""width:240px; margin: auto;"">
                                <img src=""images/map23_gist_earth_scaleRev_orientMir_270.png"" style= ""width:200px""alt=""img"">
                            </div>
                        </div>","-200","","0","","","","images/map23_gist_earth_scaleRev_orientMir_270.png","angry","1","23","23","gist","scaleRev","earth","orientMir","",""
"","","","","","html-slider-response","49","293479","0.0-43.0","aknq9uord7","66","NaN","<div style=""width:500px;"">
                            <p style=""font-size:50px; font-weight:bold;""
                            >angry</p>
                            <div style=""width:240px; margin: auto;"">
                                <img src=""images/map27_Purples_scaleDef_orientMir_180.png"" style= ""width:200px""alt=""img"">
                            </div>
                        </div>","-163","","0","","","","images/map27_Purples_scaleDef_orientMir_180.png","angry","1","27","27","Purples","orientMir","scaleDef","180","",""
"","","","","","html-slider-response","50","297313","0.0-44.0","aknq9uord7","66","NaN","<div style=""width:500px;"">
                            <p style=""font-size:50px; font-weight:bold;""
                            >angry</p>
                            <div style=""width:240px; margin: auto;"">
                                <img src=""images/map27_cividis_scaleRev_orientDef_270.png"" style= ""width:200px""alt=""img"">
                            </div>
                        </div>","-200","","0","","","","images/map27_cividis_scaleRev_orientDef_270.png","angry","1","27","27","cividis","orientDef","scaleRev","270","",""
"","","","","","html-slider-response","51","301146","0.0-45.0","aknq9uord7","66","NaN","<div style=""width:500px;"">
                            <p style=""font-size:50px; font-weight:bold;""
                            >angry</p>
                            <div style=""width:240px; margin: auto;"">
                                <img src=""images/map12_PuOr_scaleDef_orientMir_180.png"" style= ""width:200px""alt=""img"">
                            </div>
                        </div>","69","","0","","","","images/map12_PuOr_scaleDef_orientMir_180.png","angry","1","12","12","PuOr","orientMir","scaleDef","180","",""
"","","","","","html-slider-response","52","305696","0.0-46.0","aknq9uord7","66","NaN","<div style=""width:500px;"">
                            <p style=""font-size:50px; font-weight:bold;""
                            >angry</p>
                            <div style=""width:240px; margin: auto;"">
                                <img src=""images/map12_PuOr_scaleRev_orientMir_270.png"" style= ""width:200px""alt=""img"">
                            </div>
                        </div>","64","","0","","","","images/map12_PuOr_scaleRev_orientMir_270.png","angry","1","12","12","PuOr","orientMir","scaleRev","270","",""
"","","","","","html-slider-response","53","314662","0.0-47.0","aknq9uord7","66","NaN","<div style=""width:500px;"">
                            <p style=""font-size:50px; font-weight:bold;""
                            >angry</p>
                            <div style=""width:240px; margin: auto;"">
                                <img src=""images/map13_RdGy_scaleDef_orientDef_000.png"" style= ""width:200px""alt=""img"">
                            </div>
                        </div>","61","","0","","","","images/map13_RdGy_scaleDef_orientDef_000.png","angry","1","13","13","RdGy","orientDef","scaleDef","000","",""
"","","","","","html-slider-response","54","320462","0.0-48.0","aknq9uord7","66","NaN","<div style=""width:500px;"">
                            <p style=""font-size:50px; font-weight:bold;""
                            >angry</p>
                            <div style=""width:240px; margin: auto;"">
                                <img src=""images/map15_Spectral_scaleDef_orientDef_000.png"" style= ""width:200px""alt=""img"">
                            </div>
                        </div>","1","","0","","","","images/map15_Spectral_scaleDef_orientDef_000.png","angry","1","15","15","Spectral","orientDef","scaleDef","000","",""
"","","","","","html-slider-response","55","325263","0.0-49.0","aknq9uord7","66","NaN","<div style=""width:500px;"">
                            <p style=""font-size:50px; font-weight:bold;""
                            >angry</p>
                            <div style=""width:240px; margin: auto;"">
                                <img src=""images/map13_RdGy_scaleRev_orientDef_090.png"" style= ""width:200px""alt=""img"">
                            </div>
                        </div>","42","","0","","","","images/map13_RdGy_scaleRev_orientDef_090.png","angry","1","13","13","RdGy","orientDef","scaleRev","090","",""
"","","","","","html-slider-response","56","329596","0.0-50.0","aknq9uord7","66","NaN","<div style=""width:500px;"">
                            <p style=""font-size:50px; font-weight:bold;""
                            >angry</p>
                            <div style=""width:240px; margin: auto;"">
                                <img src=""images/map05_OrRd_scaleRev_orientMir_090.png"" style= ""width:200px""alt=""img"">
                            </div>
                        </div>","110","","0","","","","images/map05_OrRd_scaleRev_orientMir_090.png","angry","1","05","05","OrRd","orientMir","scaleRev","090","",""
"","","","","","html-slider-response","57","334028","0.0-51.0","aknq9uord7","66","NaN","<div style=""width:500px;"">
                            <p style=""font-size:50px; font-weight:bold;""
                            >angry</p>
                            <div style=""width:240px; margin: auto;"">
                                <img src=""images/map13_RdBu_scaleRev_orientDef_270.png"" style= ""width:200px""alt=""img"">
                            </div>
                        </div>","32","","0","","","","images/map13_RdBu_scaleRev_orientDef_270.png","angry","1","13","13","RdBu","orientDef","scaleRev","270","",""
"","","","","","html-slider-response","58","337463","0.0-52.0","aknq9uord7","66","NaN","<div style=""width:500px;"">
                            <p style=""font-size:50px; font-weight:bold;""
                            >angry</p>
                            <div style=""width:240px; margin: auto;"">
                                <img src=""images/map07_PuBu_scaleRev_orientMir_270.png"" style= ""width:200px""alt=""img"">
                            </div>
                        </div>","-200","","0","","","","images/map07_PuBu_scaleRev_orientMir_270.png","angry","1","07","07","PuBu","orientMir","scaleRev","270","",""
"","","","","","html-slider-response","59","342912","0.0-53.0","aknq9uord7","66","NaN","<div style=""width:500px;"">
                            <p style=""font-size:50px; font-weight:bold;""
                            >angry</p>
                            <div style=""width:240px; margin: auto;"">
                                <img src=""images/map05_YlOrRd_scaleDef_orientDef_180.png"" style= ""width:200px""alt=""img"">
                            </div>
                        </div>","65","","0","","","","images/map05_YlOrRd_scaleDef_orientDef_180.png","angry","1","05","05","YlOrRd","orientDef","scaleDef","180","",""
"","","","","","html-button-response","60","345801","0.0-54.0","aknq9uord7","66","2386","<p>You are doing great!<br></br> You are halway done with the current block. When you are ready to continue, click the 'Continue' button.</p>","0","","","","","","","","","","","","","","","",""
"","","","","","html-slider-response","61","349329","0.0-55.0","aknq9uord7","66","NaN","<div style=""width:500px;"">
                            <p style=""font-size:50px; font-weight:bold;""
                            >angry</p>
                            <div style=""width:240px; margin: auto;"">
                                <img src=""images/map10_YlGnBu_scaleRev_orientDef_090.png"" style= ""width:200px""alt=""img"">
                            </div>
                        </div>","-200","","0","","","","images/map10_YlGnBu_scaleRev_orientDef_090.png","angry","1","10","10","YlGnBu","orientDef","scaleRev","090","",""
"","","","","","html-slider-response","62","351646","0.0-56.0","aknq9uord7","66","NaN","<div style=""width:500px;"">
                            <p style=""font-size:50px; font-weight:bold;""
                            >angry</p>
                            <div style=""width:240px; margin: auto;"">
                                <img src=""images/map12_BrBG_scaleDef_orientMir_000.png"" style= ""width:200px""alt=""img"">
                            </div>
                        </div>","-200","","0","","","","images/map12_BrBG_scaleDef_orientMir_000.png","angry","1","12","12","BrBG","orientMir","scaleDef","000","",""
"","","","","","html-slider-response","63","356147","0.0-57.0","aknq9uord7","66","NaN","<div style=""width:500px;"">
                            <p style=""font-size:50px; font-weight:bold;""
                            >angry</p>
                            <div style=""width:240px; margin: auto;"">
                                <img src=""images/map13_RdBu_scaleDef_orientDef_180.png"" style= ""width:200px""alt=""img"">
                            </div>
                        </div>","50","","0","","","","images/map13_RdBu_scaleDef_orientDef_180.png","angry","1","13","13","RdBu","orientDef","scaleDef","180","",""
"","","","","","html-slider-response","64","358462","0.0-58.0","aknq9uord7","66","NaN","<div style=""width:500px;"">
                            <p style=""font-size:50px; font-weight:bold;""
                            >angry</p>
                            <div style=""width:240px; margin: auto;"">
                                <img src=""images/map27_Purples_scaleRev_orientMir_270.png"" style= ""width:200px""alt=""img"">
                            </div>
                        </div>","-200","","0","","","","images/map27_Purples_scaleRev_orientMir_270.png","angry","1","27","27","Purples","orientMir","scaleRev","270","",""
"","","","","","html-slider-response","65","365078","0.0-59.0","aknq9uord7","66","NaN","<div style=""width:500px;"">
                            <p style=""font-size:50px; font-weight:bold;""
                            >angry</p>
                            <div style=""width:240px; margin: auto;"">
                                <img src=""images/map27_magma_scaleDef_orientDef_000.png"" style= ""width:200px""alt=""img"">
                            </div>
                        </div>","162","","0","","","","images/map27_magma_scaleDef_orientDef_000.png","angry","1","27","27","magma","orientDef","scaleDef","000","",""
"","","","","","html-slider-response","66","369912","0.0-60.0","aknq9uord7","66","NaN","<div style=""width:500px;"">
                            <p style=""font-size:50px; font-weight:bold;""
                            >angry</p>
                            <div style=""width:240px; margin: auto;"">
                                <img src=""images/map26_plasma_scaleRev_orientMir_090.png"" style= ""width:200px""alt=""img"">
                            </div>
                        </div>","-114","","0","","","","images/map26_plasma_scaleRev_orientMir_090.png","angry","1","26","26","plasma","orientMir","scaleRev","090","",""
"","","","","","html-slider-response","67","381045","0.0-61.0","aknq9uord7","66","NaN","<div style=""width:500px;"">
                            <p style=""font-size:50px; font-weight:bold;""
                            >angry</p>
                            <div style=""width:240px; margin: auto;"">
                                <img src=""images/map26_turbo_scaleDef_orientDef_000.png"" style= ""width:200px""alt=""img"">
                            </div>
                        </div>","40","","0","","","","images/map26_turbo_scaleDef_orientDef_000.png","angry","1","26","26","turbo","orientDef","scaleDef","000","",""
"","","","","","html-slider-response","68","387311","0.0-62.0","aknq9uord7","66","NaN","<div style=""width:500px;"">
                            <p style=""font-size:50px; font-weight:bold;""
                            >angry</p>
                            <div style=""width:240px; margin: auto;"">
                                <img src=""images/map13_RdYlBu_scaleDef_orientMir_000.png"" style= ""width:200px""alt=""img"">
                            </div>
                        </div>","82","","0","","","","images/map13_RdYlBu_scaleDef_orientMir_000.png","angry","1","13","13","RdYlBu","orientMir","scaleDef","000","",""
"","","","","","html-slider-response","69","389778","0.0-63.0","aknq9uord7","66","NaN","<div style=""width:500px;"">
                            <p style=""font-size:50px; font-weight:bold;""
                            >angry</p>
                            <div style=""width:240px; margin: auto;"">
                                <img src=""images/map27_cividis_scaleDef_orientDef_180.png"" style= ""width:200px""alt=""img"">
                            </div>
                        </div>","-200","","0","","","","images/map27_cividis_scaleDef_orientDef_180.png","angry","1","27","27","cividis","orientDef","scaleDef","180","",""
"","","","","","html-slider-response","70","393179","0.0-64.0","aknq9uord7","66","NaN","<div style=""width:500px;"">
                            <p style=""font-size:50px; font-weight:bold;""
                            >angry</p>
                            <div style=""width:240px; margin: auto;"">
                                <img src=""images/map13_RdYlBu_scaleRev_orientMir_090.png"" style= ""width:200px""alt=""img"">
                            </div>
                        </div>","51","","0","","","","images/map13_RdYlBu_scaleRev_orientMir_090.png","angry","1","13","13","RdYlBu","orientMir","scaleRev","090","",""
"","","","","","html-slider-response","71","395162","0.0-65.0","aknq9uord7","66","NaN","<div style=""width:500px;"">
                            <p style=""font-size:50px; font-weight:bold;""
                            >angry</p>
                            <div style=""width:240px; margin: auto;"">
                                <img src=""images/map10_YlGnBu_scaleDef_orientDef_000.png"" style= ""width:200px""alt=""img"">
                            </div>
                        </div>","-200","","0","","","","images/map10_YlGnBu_scaleDef_orientDef_000.png","angry","1","10","10","YlGnBu","orientDef","scaleDef","000","",""
"","","","","","html-slider-response","72","397745","0.0-66.0","aknq9uord7","66","NaN","<div style=""width:500px;"">
                            <p style=""font-size:50px; font-weight:bold;""
                            >angry</p>
                            <div style=""width:240px; margin: auto;"">
                                <img src=""images/map12_PiYG_scaleDef_orientDef_000.png"" style= ""width:200px""alt=""img"">
                            </div>
                        </div>","-200","","0","","","","images/map12_PiYG_scaleDef_orientDef_000.png","angry","1","12","12","PiYG","orientDef","scaleDef","000","",""
"","","","","","html-slider-response","73","401628","0.0-67.0","aknq9uord7","66","NaN","<div style=""width:500px;"">
                            <p style=""font-size:50px; font-weight:bold;""
                            >angry</p>
                            <div style=""width:240px; margin: auto;"">
                                <img src=""images/map07_BuPu_scaleDef_orientDef_180.png"" style= ""width:200px""alt=""img"">
                            </div>
                        </div>","-166","","0","","","","images/map07_BuPu_scaleDef_orientDef_180.png","angry","1","07","07","BuPu","orientDef","scaleDef","180","",""
"","","","","","html-slider-response","74","404429","0.0-68.0","aknq9uord7","66","NaN","<div style=""width:500px;"">
                            <p style=""font-size:50px; font-weight:bold;""
                            >angry</p>
                            <div style=""width:240px; margin: auto;"">
                                <img src=""images/map07_PuBu_scaleDef_orientMir_180.png"" style= ""width:200px""alt=""img"">
                            </div>
                        </div>","-200","","0","","","","images/map07_PuBu_scaleDef_orientMir_180.png","angry","1","07","07","PuBu","orientMir","scaleDef","180","",""
"","","","","","html-slider-response","75","407545","0.0-69.0","aknq9uord7","66","NaN","<div style=""width:500px;"">
                            <p style=""font-size:50px; font-weight:bold;""
                            >angry</p>
                            <div style=""width:240px; margin: auto;"">
                                <img src=""images/map15_coolwarm_scaleDef_orientDef_180.png"" style= ""width:200px""alt=""img"">
                            </div>
                        </div>","86","","0","","","","images/map15_coolwarm_scaleDef_orientDef_180.png","angry","1","15","15","coolwarm","orientDef","scaleDef","180","",""
"","","","","","html-slider-response","76","409995","0.0-70.0","aknq9uord7","66","NaN","<div style=""width:500px;"">
                            <p style=""font-size:50px; font-weight:bold;""
                            >angry</p>
                            <div style=""width:240px; margin: auto;"">
                                <img src=""images/map02_Greens_scaleDef_orientDef_180.png"" style= ""width:200px""alt=""img"">
                            </div>
                        </div>","-200","","0","","","","images/map02_Greens_scaleDef_orientDef_180.png","angry","1","02","02","Greens","orientDef","scaleDef","180","",""
"","","","","","html-slider-response","77","415212","0.0-71.0","aknq9uord7","66","NaN","<div style=""width:500px;"">
                            <p style=""font-size:50px; font-weight:bold;""
                            >angry</p>
                            <div style=""width:240px; margin: auto;"">
                                <img src=""images/map26_inferno_scaleDef_orientMir_180.png"" style= ""width:200px""alt=""img"">
                            </div>
                        </div>","94","","0","","","","images/map26_inferno_scaleDef_orientMir_180.png","angry","1","26","26","inferno","orientMir","scaleDef","180","",""
"","","","","","html-slider-response","78","418795","0.0-72.0","aknq9uord7","66","NaN","<div style=""width:500px;"">
                            <p style=""font-size:50px; font-weight:bold;""
                            >angry</p>
                            <div style=""width:240px; margin: auto;"">
                                <img src=""images/map05_PuRd_scaleDef_orientMir_180.png"" style= ""width:200px""alt=""img"">
                            </div>
                        </div>","-200","","0","","","","images/map05_PuRd_scaleDef_orientMir_180.png","angry","1","05","05","PuRd","orientMir","scaleDef","180","",""
"","","","","","html-slider-response","79","427378","0.0-73.0","aknq9uord7","66","NaN","<div style=""width:500px;"">
                            <p style=""font-size:50px; font-weight:bold;""
                            >angry</p>
                            <div style=""width:240px; margin: auto;"">
                                <img src=""images/map02_Reds_scaleDef_orientMir_180.png"" style= ""width:200px""alt=""img"">
                            </div>
                        </div>","121","","0","","","","images/map02_Reds_scaleDef_orientMir_180.png","angry","1","02","02","Reds","orientMir","scaleDef","180","",""
"","","","","","html-slider-response","80","429981","0.0-74.0","aknq9uord7","66","NaN","<div style=""width:500px;"">
                            <p style=""font-size:50px; font-weight:bold;""
                            >angry</p>
                            <div style=""width:240px; margin: auto;"">
                                <img src=""images/map05_YlOrBr_scaleRev_orientDef_090.png"" style= ""width:200px""alt=""img"">
                            </div>
                        </div>","-200","","0","","","","images/map05_YlOrBr_scaleRev_orientDef_090.png","angry","1","05","05","YlOrBr","orientDef","scaleRev","090","",""
"","","","","","html-slider-response","81","435228","0.0-75.0","aknq9uord7","66","NaN","<div style=""width:500px;"">
                            <p style=""font-size:50px; font-weight:bold;""
                            >angry</p>
                            <div style=""width:240px; margin: auto;"">
                                <img src=""images/map13_RdYlGn_scaleDef_orientMir_180.png"" style= ""width:200px""alt=""img"">
                            </div>
                        </div>","59","","0","","","","images/map13_RdYlGn_scaleDef_orientMir_180.png","angry","1","13","13","RdYlGn","orientMir","scaleDef","180","",""
"","","","","","html-slider-response","82","437645","0.0-76.0","aknq9uord7","66","NaN","<div style=""width:500px;"">
                            <p style=""font-size:50px; font-weight:bold;""
                            >angry</p>
                            <div style=""width:240px; margin: auto;"">
                                <img src=""images/map10_BuGn_scaleDef_orientMir_000.png"" style= ""width:200px""alt=""img"">
                            </div>
                        </div>","-200","","0","","","","images/map10_BuGn_scaleDef_orientMir_000.png","angry","1","10","10","BuGn","orientMir","scaleDef","000","",""
"","","","","","html-slider-response","83","440445","0.0-77.0","aknq9uord7","66","NaN","<div style=""width:500px;"">
                            <p style=""font-size:50px; font-weight:bold;""
                            >angry</p>
                            <div style=""width:240px; margin: auto;"">
                                <img src=""images/map15_bwr_scaleDef_orientMir_000.png"" style= ""width:200px""alt=""img"">
                            </div>
                        </div>","28","","0","","","","images/map15_bwr_scaleDef_orientMir_000.png","angry","1","15","15","bwr","orientMir","scaleDef","000","",""
"","","","","","html-slider-response","84","446646","0.0-78.0","aknq9uord7","66","NaN","<div style=""width:500px;"">
                            <p style=""font-size:50px; font-weight:bold;""
                            >angry</p>
                            <div style=""width:240px; margin: auto;"">
                                <img src=""images/map23_vanimo_scaleDef_orientMir_000.png"" style= ""width:200px""alt=""img"">
                            </div>
                        </div>","-200","","0","","","","images/map23_vanimo_scaleDef_orientMir_000.png","angry","1","23","23","vanimo","orientMir","scaleDef","000","",""
"","","","","","html-slider-response","85","449327","0.0-79.0","aknq9uord7","66","NaN","<div style=""width:500px;"">
                            <p style=""font-size:50px; font-weight:bold;""
                            >angry</p>
                            <div style=""width:240px; margin: auto;"">
                                <img src=""images/map05_PuRd_scaleRev_orientMir_270.png"" style= ""width:200px""alt=""img"">
                            </div>
                        </div>","-200","","0","","","","images/map05_PuRd_scaleRev_orientMir_270.png","angry","1","05","05","PuRd","orientMir","scaleRev","270","",""
"","","","","","html-slider-response","86","454094","0.0-80.0","aknq9uord7","66","NaN","<div style=""width:500px;"">
                            <p style=""font-size:50px; font-weight:bold;""
                            >angry</p>
                            <div style=""width:240px; margin: auto;"">
                                <img src=""images/map05_YlOrRd_scaleRev_orientDef_270.png"" style= ""width:200px""alt=""img"">
                            </div>
                        </div>","21","","0","","","","images/map05_YlOrRd_scaleRev_orientDef_270.png","angry","1","05","05","YlOrRd","orientDef","scaleRev","270","",""
"","","","","","html-slider-response","87","462628","0.0-81.0","aknq9uord7","66","NaN","<div style=""width:500px;"">
                            <p style=""font-size:50px; font-weight:bold;""
                            >angry</p>
                            <div style=""width:240px; margin: auto;"">
                                <img src=""images/map23_managua_scaleDef_orientDef_180.png"" style= ""width:200px""alt=""img"">
                            </div>
                        </div>","107","","0","","","","images/map23_managua_scaleDef_orientDef_180.png","angry","1","23","23","managua","orientDef","scaleDef","180","",""
"","","","","","html-slider-response","88","466245","0.0-82.0","aknq9uord7","66","NaN","<div style=""width:500px;"">
                            <p style=""font-size:50px; font-weight:bold;""
                            >angry</p>
                            <div style=""width:240px; margin: auto;"">
                                <img src=""images/map13_RdYlGn_scaleRev_orientMir_270.png"" style= ""width:200px""alt=""img"">
                            </div>
                        </div>","17","","0","","","","images/map13_RdYlGn_scaleRev_orientMir_270.png","angry","1","13","13","RdYlGn","orientMir","scaleRev","270","",""
"","","","","","html-slider-response","89","471944","0.0-83.0","aknq9uord7","66","NaN","<div style=""width:500px;"">
                            <p style=""font-size:50px; font-weight:bold;""
                            >angry</p>
                            <div style=""width:240px; margin: auto;"">
                                <img src=""images/map26_turbo_scaleRev_orientDef_090.png"" style= ""width:200px""alt=""img"">
                            </div>
                        </div>","49","","0","","","","images/map26_turbo_scaleRev_orientDef_090.png","angry","1","26","26","turbo","orientDef","scaleRev","090","",""
"","","","","","html-slider-response","90","477327","0.0-84.0","aknq9uord7","66","NaN","<div style=""width:500px;"">
                            <p style=""font-size:50px; font-weight:bold;""
                            >angry</p>
                            <div style=""width:240px; margin: auto;"">
                                <img src=""images/map23_berlin_scaleDef_orientDef_000.png"" style= ""width:200px""alt=""img"">
                            </div>
                        </div>","147","","0","","","","images/map23_berlin_scaleDef_orientDef_000.png","angry","1","23","23","berlin","orientDef","scaleDef","000","",""
"","","","","","html-slider-response","91","479544","0.0-85.0","aknq9uord7","66","NaN","<div style=""width:500px;"">
                            <p style=""font-size:50px; font-weight:bold;""
                            >angry</p>
                            <div style=""width:240px; margin: auto;"">
                                <img src=""images/map02_Blues_scaleDef_orientDef_000.png"" style= ""width:200px""alt=""img"">
                            </div>
                        </div>","-200","","0","","","","images/map02_Blues_scaleDef_orientDef_000.png","angry","1","02","02","Blues","orientDef","scaleDef","000","",""
"","","","","","html-slider-response","92","482044","0.0-86.0","aknq9uord7","66","NaN","<div style=""width:500px;"">
                            <p style=""font-size:50px; font-weight:bold;""
                            >angry</p>
                            <div style=""width:240px; margin: auto;"">
                                <img src=""images/map10_YlGn_scaleRev_orientMir_270.png"" style= ""width:200px""alt=""img"">
                            </div>
                        </div>","-200","","0","","","","images/map10_YlGn_scaleRev_orientMir_270.png","angry","1","10","10","YlGn","orientMir","scaleRev","270","",""
"","","","","","html-slider-response","93","485611","0.0-87.0","aknq9uord7","66","NaN","<div style=""width:500px;"">
                            <p style=""font-size:50px; font-weight:bold;""
                            >angry</p>
                            <div style=""width:240px; margin: auto;"">
                                <img src=""images/map23_managua_scaleRev_orientDef_270.png"" style= ""width:200px""alt=""img"">
                            </div>
                        </div>","114","","0","","","","images/map23_managua_scaleRev_orientDef_270.png","angry","1","23","23","managua","orientDef","scaleRev","270","",""
"","","","","","html-slider-response","94","487811","0.0-88.0","aknq9uord7","66","NaN","<div style=""width:500px;"">
                            <p style=""font-size:50px; font-weight:bold;""
                            >angry</p>
                            <div style=""width:240px; margin: auto;"">
                                <img src=""images/map23_vanimo_scaleRev_orientMir_090.png"" style= ""width:200px""alt=""img"">
                            </div>
                        </div>","-200","","0","","","","images/map23_vanimo_scaleRev_orientMir_090.png","angry","1","23","23","vanimo","orientMir","scaleRev","090","",""
"","","","","","html-slider-response","95","490130","0.0-89.0","aknq9uord7","66","NaN","<div style=""width:500px;"">
                            <p style=""font-size:50px; font-weight:bold;""
                            >angry</p>
                            <div style=""width:240px; margin: auto;"">
                                <img src=""images/map26_viridis_scaleRev_orientDef_270.png"" style= ""width:200px""alt=""img"">
                            </div>
                        </div>","-200","","0","","","","images/map26_viridis_scaleRev_orientDef_270.png","angry","1","26","26","viridis","orientDef","scaleRev","270","",""
"","","","","","html-slider-response","96","492361","0.0-90.0","aknq9uord7","66","NaN","<div style=""width:500px;"">
                            <p style=""font-size:50px; font-weight:bold;""
                            >angry</p>
                            <div style=""width:240px; margin: auto;"">
                                <img src=""images/map07_RdPu_scaleDef_orientDef_000.png"" style= ""width:200px""alt=""img"">
                            </div>
                        </div>","-200","","0","","","","images/map07_RdPu_scaleDef_orientDef_000.png","angry","1","07","07","RdPu","orientDef","scaleDef","000","",""
"","","","","","html-slider-response","97","494927","0.0-91.0","aknq9uord7","66","NaN","<div style=""width:500px;"">
                            <p style=""font-size:50px; font-weight:bold;""
                            >angry</p>
                            <div style=""width:240px; margin: auto;"">
                                <img src=""images/map12_PRGn_scaleRev_orientDef_270.png"" style= ""width:200px""alt=""img"">
                            </div>
                        </div>","-200","","0","","","","images/map12_PRGn_scaleRev_orientDef_270.png","angry","1","12","12","PRGn","orientDef","scaleRev","270","",""
"","","","","","html-slider-response","98","500277","0.0-92.0","aknq9uord7","66","NaN","<div style=""width:500px;"">
                            <p style=""font-size:50px; font-weight:bold;""
                            >angry</p>
                            <div style=""width:240px; margin: auto;"">
                                <img src=""images/map26_inferno_scaleRev_orientMir_270.png"" style= ""width:200px""alt=""img"">
                            </div>
                        </div>","113","","0","","","","images/map26_inferno_scaleRev_orientMir_270.png","angry","1","26","26","inferno","orientMir","scaleRev","270","",""
"","","","","","html-slider-response","99","503444","0.0-93.0","aknq9uord7","66","NaN","<div style=""width:500px;"">
                            <p style=""font-size:50px; font-weight:bold;""
                            >angry</p>
                            <div style=""width:240px; margin: auto;"">
                                <img src=""images/map02_Oranges_scaleRev_orientMir_090.png"" style= ""width:200px""alt=""img"">
                            </div>
                        </div>","17","","0","","","","images/map02_Oranges_scaleRev_orientMir_090.png","angry","1","02","02","Oranges","orientMir","scaleRev","090","",""
"","","","","","html-slider-response","100","505511","0.0-94.0","aknq9uord7","66","NaN","<div style=""width:500px;"">
                            <p style=""font-size:50px; font-weight:bold;""
                            >angry</p>
                            <div style=""width:240px; margin: auto;"">
                                <img src=""images/map07_GnBu_scaleDef_orientMir_000.png"" style= ""width:200px""alt=""img"">
                            </div>
                        </div>","-200","","0","","","","images/map07_GnBu_scaleDef_orientMir_000.png","angry","1","07","07","GnBu","orientMir","scaleDef","000","",""
"","","","","","html-button-response","101","507100","0.0-95.0","aknq9uord7","66","1085","<p>Great Job! You've finished block 1.<br></br> You have 4 block(s) left to go.<br></br></p>","0","","","","","","","","","","","","","","","",""
"","","","","","html-button-response","102","510499","0.0-96.0","aknq9uord7","66","3399","<p>In this block of trials, you will be asked to rate how much you associate each map with:</p > <p style = 'font-size:150%; font-weight: bold'>sad</p><br></br>","0","","","","","","","","","","","","","","","",""
"","","","","","html-slider-response","103","519361","0.0-97.0","aknq9uord7","66","NaN","<div style=""width:500px;"">
                            <p style=""font-size:50px; font-weight:bold;""
                            >sad</p>
                            <div style=""width:240px; margin: auto;"">
                                <img src=""images/map07_RdPu_scaleRev_orientDef_090.png"" style= ""width:200px""alt=""img"">
                            </div>
                        </div>","-78","","0","","","","images/map07_RdPu_scaleRev_orientDef_090.png","sad","1","07","07","RdPu","orientDef","scaleRev","090","",""
"","","","","","html-slider-response","104","528027","0.0-98.0","aknq9uord7","66","NaN","<div style=""width:500px;"">
                            <p style=""font-size:50px; font-weight:bold;""
                            >sad</p>
                            <div style=""width:240px; margin: auto;"">
                                <img src=""images/map02_Blues_scaleDef_orientDef_000.png"" style= ""width:200px""alt=""img"">
                            </div>
                        </div>","200","","0","","","","images/map02_Blues_scaleDef_orientDef_000.png","sad","1","02","02","Blues","orientDef","scaleDef","000","",""
"","","","","","html-slider-response","105","532827","0.0-99.0","aknq9uord7","66","NaN","<div style=""width:500px;"">
                            <p style=""font-size:50px; font-weight:bold;""
                            >sad</p>
                            <div style=""width:240px; margin: auto;"">
                                <img src=""images/map12_PRGn_scaleDef_orientDef_180.png"" style= ""width:200px""alt=""img"">
                            </div>
                        </div>","77","","0","","","","images/map12_PRGn_scaleDef_orientDef_180.png","sad","1","12","12","PRGn","orientDef","scaleDef","180","",""
"","","","","","html-slider-response","106","535144","0.0-100.0","aknq9uord7","66","NaN","<div style=""width:500px;"">
                            <p style=""font-size:50px; font-weight:bold;""
                            >sad</p>
                            <div style=""width:240px; margin: auto;"">
                                <img src=""images/map27_magma_scaleRev_orientDef_090.png"" style= ""width:200px""alt=""img"">
                            </div>
                        </div>","-200","","0","","","","images/map27_magma_scaleRev_orientDef_090.png","sad","1","27","27","magma","orientDef","scaleRev","090","",""
"","","","","","html-slider-response","107","539877","0.0-101.0","aknq9uord7","66","NaN","<div style=""width:500px;"">
                            <p style=""font-size:50px; font-weight:bold;""
                            >sad</p>
                            <div style=""width:240px; margin: auto;"">
                                <img src=""images/map12_PiYG_scaleRev_orientDef_090.png"" style= ""width:200px""alt=""img"">
                            </div>
                        </div>","79","","0","","","","images/map12_PiYG_scaleRev_orientDef_090.png","sad","1","12","12","PiYG","orientDef","scaleRev","090","",""
"","","","","","html-slider-response","108","544346","0.0-102.0","aknq9uord7","66","NaN","<div style=""width:500px;"">
                            <p style=""font-size:50px; font-weight:bold;""
                            >sad</p>
                            <div style=""width:240px; margin: auto;"">
                                <img src=""images/map05_PuRd_scaleDef_orientMir_180.png"" style= ""width:200px""alt=""img"">
                            </div>
                        </div>","-200","","0","","","","images/map05_PuRd_scaleDef_orientMir_180.png","sad","1","05","05","PuRd","orientMir","scaleDef","180","",""
"","","","","","html-slider-response","109","549511","0.0-103.0","aknq9uord7","66","NaN","<div style=""width:500px;"">
                            <p style=""font-size:50px; font-weight:bold;""
                            >sad</p>
                            <div style=""width:240px; margin: auto;"">
                                <img src=""images/map10_YlGnBu_scaleDef_orientDef_000.png"" style= ""width:200px""alt=""img"">
                            </div>
                        </div>","171","","0","","","","images/map10_YlGnBu_scaleDef_orientDef_000.png","sad","1","10","10","YlGnBu","orientDef","scaleDef","000","",""
"","","","","","html-slider-response","110","552161","0.0-104.0","aknq9uord7","66","NaN","<div style=""width:500px;"">
                            <p style=""font-size:50px; font-weight:bold;""
                            >sad</p>
                            <div style=""width:240px; margin: auto;"">
                                <img src=""images/map15_seismic_scaleRev_orientMir_270.png"" style= ""width:200px""alt=""img"">
                            </div>
                        </div>","-200","","0","","","","images/map15_seismic_scaleRev_orientMir_270.png","sad","1","15","15","seismic","orientMir","scaleRev","270","",""
"","","","","","html-slider-response","111","554376","0.0-105.0","aknq9uord7","66","NaN","<div style=""width:500px;"">
                            <p style=""font-size:50px; font-weight:bold;""
                            >sad</p>
                            <div style=""width:240px; margin: auto;"">
                                <img src=""images/map15_Spectral_scaleRev_orientDef_090.png"" style= ""width:200px""alt=""img"">
                            </div>
                        </div>","-200","","0","","","","images/map15_Spectral_scaleRev_orientDef_090.png","sad","1","15","15","Spectral","orientDef","scaleRev","090","",""
"","","","","","html-slider-response","112","557143","0.0-106.0","aknq9uord7","66","NaN","<div style=""width:500px;"">
                            <p style=""font-size:50px; font-weight:bold;""
                            >sad</p>
                            <div style=""width:240px; margin: auto;"">
                                <img src=""images/map15_bwr_scaleRev_orientMir_090.png"" style= ""width:200px""alt=""img"">
                            </div>
                        </div>","-200","","0","","","","images/map15_bwr_scaleRev_orientMir_090.png","sad","1","15","15","bwr","orientMir","scaleRev","090","",""
"","","","","","html-slider-response","113","560896","0.0-107.0","aknq9uord7","66","NaN","<div style=""width:500px;"">
                            <p style=""font-size:50px; font-weight:bold;""
                            >sad</p>
                            <div style=""width:240px; margin: auto;"">
                                <img src=""images/map26_viridis_scaleDef_orientDef_180.png"" style= ""width:200px""alt=""img"">
                            </div>
                        </div>","-200","","0","","","","images/map26_viridis_scaleDef_orientDef_180.png","sad","1","26","26","viridis","orientDef","scaleDef","180","",""
"","","","","","html-slider-response","114","563794","0.0-108.0","aknq9uord7","66","NaN","<div style=""width:500px;"">
                            <p style=""font-size:50px; font-weight:bold;""
                            >sad</p>
                            <div style=""width:240px; margin: auto;"">
                                <img src=""images/map05_YlOrRd_scaleDef_orientDef_180.png"" style= ""width:200px""alt=""img"">
                            </div>
                        </div>","-200","","0","","","","images/map05_YlOrRd_scaleDef_orientDef_180.png","sad","1","05","05","YlOrRd","orientDef","scaleDef","180","",""
"","","","","","html-slider-response","115","567560","0.0-109.0","aknq9uord7","66","NaN","<div style=""width:500px;"">
                            <p style=""font-size:50px; font-weight:bold;""
                            >sad</p>
                            <div style=""width:240px; margin: auto;"">
                                <img src=""images/map13_RdYlBu_scaleRev_orientMir_090.png"" style= ""width:200px""alt=""img"">
                            </div>
                        </div>","88","","0","","","","images/map13_RdYlBu_scaleRev_orientMir_090.png","sad","1","13","13","RdYlBu","orientMir","scaleRev","090","",""
"","","","","","html-slider-response","116","570045","0.0-110.0","aknq9uord7","66","NaN","<div style=""width:500px;"">
                            <p style=""font-size:50px; font-weight:bold;""
                            >sad</p>
                            <div style=""width:240px; margin: auto;"">
                                <img src=""images/map13_RdGy_scaleDef_orientDef_000.png"" style= ""width:200px""alt=""img"">
                            </div>
                        </div>","-200","","0","","","","images/map13_RdGy_scaleDef_orientDef_000.png","sad","1","13","13","RdGy","orientDef","scaleDef","000","",""
"","","","","","html-slider-response","117","571927","0.0-111.0","aknq9uord7","66","NaN","<div style=""width:500px;"">
                            <p style=""font-size:50px; font-weight:bold;""
                            >sad</p>
                            <div style=""width:240px; margin: auto;"">
                                <img src=""images/map23_gist_earth_scaleRev_orientMir_270.png"" style= ""width:200px""alt=""img"">
                            </div>
                        </div>","-200","","0","","","","images/map23_gist_earth_scaleRev_orientMir_270.png","sad","1","23","23","gist","scaleRev","earth","orientMir","",""
"","","","","","html-slider-response","118","575660","0.0-112.0","aknq9uord7","66","NaN","<div style=""width:500px;"">
                            <p style=""font-size:50px; font-weight:bold;""
                            >sad</p>
                            <div style=""width:240px; margin: auto;"">
                                <img src=""images/map07_GnBu_scaleRev_orientMir_090.png"" style= ""width:200px""alt=""img"">
                            </div>
                        </div>","156","","0","","","","images/map07_GnBu_scaleRev_orientMir_090.png","sad","1","07","07","GnBu","orientMir","scaleRev","090","",""
"","","","","","html-slider-response","119","579327","0.0-113.0","aknq9uord7","66","NaN","<div style=""width:500px;"">
                            <p style=""font-size:50px; font-weight:bold;""
                            >sad</p>
                            <div style=""width:240px; margin: auto;"">
                                <img src=""images/map13_RdBu_scaleDef_orientDef_180.png"" style= ""width:200px""alt=""img"">
                            </div>
                        </div>","58","","0","","","","images/map13_RdBu_scaleDef_orientDef_180.png","sad","1","13","13","RdBu","orientDef","scaleDef","180","",""
"","","","","","html-slider-response","120","581610","0.0-114.0","aknq9uord7","66","NaN","<div style=""width:500px;"">
                            <p style=""font-size:50px; font-weight:bold;""
                            >sad</p>
                            <div style=""width:240px; margin: auto;"">
                                <img src=""images/map05_PuRd_scaleRev_orientMir_270.png"" style= ""width:200px""alt=""img"">
                            </div>
                        </div>","-200","","0","","","","images/map05_PuRd_scaleRev_orientMir_270.png","sad","1","05","05","PuRd","orientMir","scaleRev","270","",""
"","","","","","html-slider-response","121","583760","0.0-115.0","aknq9uord7","66","NaN","<div style=""width:500px;"">
                            <p style=""font-size:50px; font-weight:bold;""
                            >sad</p>
                            <div style=""width:240px; margin: auto;"">
                                <img src=""images/map02_Oranges_scaleDef_orientMir_000.png"" style= ""width:200px""alt=""img"">
                            </div>
                        </div>","-200","","0","","","","images/map02_Oranges_scaleDef_orientMir_000.png","sad","1","02","02","Oranges","orientMir","scaleDef","000","",""
"","","","","","html-slider-response","122","586560","0.0-116.0","aknq9uord7","66","NaN","<div style=""width:500px;"">
                            <p style=""font-size:50px; font-weight:bold;""
                            >sad</p>
                            <div style=""width:240px; margin: auto;"">
                                <img src=""images/map27_Greys_scaleDef_orientMir_000.png"" style= ""width:200px""alt=""img"">
                            </div>
                        </div>","200","","0","","","","images/map27_Greys_scaleDef_orientMir_000.png","sad","1","27","27","Greys","orientMir","scaleDef","000","",""
"","","","","","html-slider-response","123","589376","0.0-117.0","aknq9uord7","66","NaN","<div style=""width:500px;"">
                            <p style=""font-size:50px; font-weight:bold;""
                            >sad</p>
                            <div style=""width:240px; margin: auto;"">
                                <img src=""images/map13_RdYlBu_scaleDef_orientMir_000.png"" style= ""width:200px""alt=""img"">
                            </div>
                        </div>","34","","0","","","","images/map13_RdYlBu_scaleDef_orientMir_000.png","sad","1","13","13","RdYlBu","orientMir","scaleDef","000","",""
"","","","","","html-slider-response","124","591360","0.0-118.0","aknq9uord7","66","NaN","<div style=""width:500px;"">
                            <p style=""font-size:50px; font-weight:bold;""
                            >sad</p>
                            <div style=""width:240px; margin: auto;"">
                                <img src=""images/map26_plasma_scaleDef_orientMir_000.png"" style= ""width:200px""alt=""img"">
                            </div>
                        </div>","-200","","0","","","","images/map26_plasma_scaleDef_orientMir_000.png","sad","1","26","26","plasma","orientMir","scaleDef","000","",""
"","","","","","html-slider-response","125","594010","0.0-119.0","aknq9uord7","66","NaN","<div style=""width:500px;"">
                            <p style=""font-size:50px; font-weight:bold;""
                            >sad</p>
                            <div style=""width:240px; margin: auto;"">
                                <img src=""images/map02_Reds_scaleDef_orientMir_180.png"" style= ""width:200px""alt=""img"">
                            </div>
                        </div>","-200","","0","","","","images/map02_Reds_scaleDef_orientMir_180.png","sad","1","02","02","Reds","orientMir","scaleDef","180","",""
"","","","","","html-slider-response","126","596010","0.0-120.0","aknq9uord7","66","NaN","<div style=""width:500px;"">
                            <p style=""font-size:50px; font-weight:bold;""
                            >sad</p>
                            <div style=""width:240px; margin: auto;"">
                                <img src=""images/map02_Oranges_scaleRev_orientMir_090.png"" style= ""width:200px""alt=""img"">
                            </div>
                        </div>","-200","","0","","","","images/map02_Oranges_scaleRev_orientMir_090.png","sad","1","02","02","Oranges","orientMir","scaleRev","090","",""
"","","","","","html-slider-response","127","598727","0.0-121.0","aknq9uord7","66","NaN","<div style=""width:500px;"">
                            <p style=""font-size:50px; font-weight:bold;""
                            >sad</p>
                            <div style=""width:240px; margin: auto;"">
                                <img src=""images/map15_coolwarm_scaleDef_orientDef_180.png"" style= ""width:200px""alt=""img"">
                            </div>
                        </div>","33","","0","","","","images/map15_coolwarm_scaleDef_orientDef_180.png","sad","1","15","15","coolwarm","orientDef","scaleDef","180","",""
"","","","","","html-slider-response","128","609510","0.0-122.0","aknq9uord7","66","NaN","<div style=""width:500px;"">
                            <p style=""font-size:50px; font-weight:bold;""
                            >sad</p>
                            <div style=""width:240px; margin: auto;"">
                                <img src=""images/map26_turbo_scaleRev_orientDef_090.png"" style= ""width:200px""alt=""img"">
                            </div>
                        </div>","102","","0","","","","images/map26_turbo_scaleRev_orientDef_090.png","sad","1","26","26","turbo","orientDef","scaleRev","090","",""
"","","","","","html-slider-response","129","615276","0.0-123.0","aknq9uord7","66","NaN","<div style=""width:500px;"">
                            <p style=""font-size:50px; font-weight:bold;""
                            >sad</p>
                            <div style=""width:240px; margin: auto;"">
                                <img src=""images/map23_vanimo_scaleRev_orientMir_090.png"" style= ""width:200px""alt=""img"">
                            </div>
                        </div>","-200","","0","","","","images/map23_vanimo_scaleRev_orientMir_090.png","sad","1","23","23","vanimo","orientMir","scaleRev","090","",""
"","","","","","html-slider-response","130","617559","0.0-124.0","aknq9uord7","66","NaN","<div style=""width:500px;"">
                            <p style=""font-size:50px; font-weight:bold;""
                            >sad</p>
                            <div style=""width:240px; margin: auto;"">
                                <img src=""images/map10_YlGnBu_scaleRev_orientDef_090.png"" style= ""width:200px""alt=""img"">
                            </div>
                        </div>","200","","0","","","","images/map10_YlGnBu_scaleRev_orientDef_090.png","sad","1","10","10","YlGnBu","orientDef","scaleRev","090","",""
"","","","","","html-slider-response","131","619942","0.0-125.0","aknq9uord7","66","NaN","<div style=""width:500px;"">
                            <p style=""font-size:50px; font-weight:bold;""
                            >sad</p>
                            <div style=""width:240px; margin: auto;"">
                                <img src=""images/map27_Purples_scaleRev_orientMir_270.png"" style= ""width:200px""alt=""img"">
                            </div>
                        </div>","200","","0","","","","images/map27_Purples_scaleRev_orientMir_270.png","sad","1","27","27","Purples","orientMir","scaleRev","270","",""
"","","","","","html-slider-response","132","622959","0.0-126.0","aknq9uord7","66","NaN","<div style=""width:500px;"">
                            <p style=""font-size:50px; font-weight:bold;""
                            >sad</p>
                            <div style=""width:240px; margin: auto;"">
                                <img src=""images/map23_managua_scaleRev_orientDef_270.png"" style= ""width:200px""alt=""img"">
                            </div>
                        </div>","-200","","0","","","","images/map23_managua_scaleRev_orientDef_270.png","sad","1","23","23","managua","orientDef","scaleRev","270","",""
"","","","","","html-slider-response","133","624944","0.0-127.0","aknq9uord7","66","NaN","<div style=""width:500px;"">
                            <p style=""font-size:50px; font-weight:bold;""
                            >sad</p>
                            <div style=""width:240px; margin: auto;"">
                                <img src=""images/map23_vanimo_scaleDef_orientMir_000.png"" style= ""width:200px""alt=""img"">
                            </div>
                        </div>","-200","","0","","","","images/map23_vanimo_scaleDef_orientMir_000.png","sad","1","23","23","vanimo","orientMir","scaleDef","000","",""
"","","","","","html-slider-response","134","627409","0.0-128.0","aknq9uord7","66","NaN","<div style=""width:500px;"">
                            <p style=""font-size:50px; font-weight:bold;""
                            >sad</p>
                            <div style=""width:240px; margin: auto;"">
                                <img src=""images/map05_YlOrBr_scaleRev_orientDef_090.png"" style= ""width:200px""alt=""img"">
                            </div>
                        </div>","-200","","0","","","","images/map05_YlOrBr_scaleRev_orientDef_090.png","sad","1","05","05","YlOrBr","orientDef","scaleRev","090","",""
"","","","","","html-slider-response","135","631009","0.0-129.0","aknq9uord7","66","NaN","<div style=""width:500px;"">
                            <p style=""font-size:50px; font-weight:bold;""
                            >sad</p>
                            <div style=""width:240px; margin: auto;"">
                                <img src=""images/map10_PuBuGn_scaleDef_orientDef_180.png"" style= ""width:200px""alt=""img"">
                            </div>
                        </div>","109","","0","","","","images/map10_PuBuGn_scaleDef_orientDef_180.png","sad","1","10","10","PuBuGn","orientDef","scaleDef","180","",""
"","","","","","html-slider-response","136","633576","0.0-130.0","aknq9uord7","66","NaN","<div style=""width:500px;"">
                            <p style=""font-size:50px; font-weight:bold;""
                            >sad</p>
                            <div style=""width:240px; margin: auto;"">
                                <img src=""images/map27_Purples_scaleDef_orientMir_180.png"" style= ""width:200px""alt=""img"">
                            </div>
                        </div>","200","","0","","","","images/map27_Purples_scaleDef_orientMir_180.png","sad","1","27","27","Purples","orientMir","scaleDef","180","",""
"","","","","","html-slider-response","137","635410","0.0-131.0","aknq9uord7","66","NaN","<div style=""width:500px;"">
                            <p style=""font-size:50px; font-weight:bold;""
                            >sad</p>
                            <div style=""width:240px; margin: auto;"">
                                <img src=""images/map05_YlOrRd_scaleRev_orientDef_270.png"" style= ""width:200px""alt=""img"">
                            </div>
                        </div>","-200","","0","","","","images/map05_YlOrRd_scaleRev_orientDef_270.png","sad","1","05","05","YlOrRd","orientDef","scaleRev","270","",""
"","","","","","html-slider-response","138","637360","0.0-132.0","aknq9uord7","66","NaN","<div style=""width:500px;"">
                            <p style=""font-size:50px; font-weight:bold;""
                            >sad</p>
                            <div style=""width:240px; margin: auto;"">
                                <img src=""images/map02_Greens_scaleDef_orientDef_180.png"" style= ""width:200px""alt=""img"">
                            </div>
                        </div>","-200","","0","","","","images/map02_Greens_scaleDef_orientDef_180.png","sad","1","02","02","Greens","orientDef","scaleDef","180","",""
"","","","","","html-slider-response","139","639327","0.0-133.0","aknq9uord7","66","NaN","<div style=""width:500px;"">
                            <p style=""font-size:50px; font-weight:bold;""
                            >sad</p>
                            <div style=""width:240px; margin: auto;"">
                                <img src=""images/map23_gist_earth_scaleDef_orientMir_180.png"" style= ""width:200px""alt=""img"">
                            </div>
                        </div>","-200","","0","","","","images/map23_gist_earth_scaleDef_orientMir_180.png","sad","1","23","23","gist","scaleDef","earth","orientMir","",""
"","","","","","html-slider-response","140","641742","0.0-134.0","aknq9uord7","66","NaN","<div style=""width:500px;"">
                            <p style=""font-size:50px; font-weight:bold;""
                            >sad</p>
                            <div style=""width:240px; margin: auto;"">
                                <img src=""images/map05_YlOrBr_scaleDef_orientDef_000.png"" style= ""width:200px""alt=""img"">
                            </div>
                        </div>","-200","","0","","","","images/map05_YlOrBr_scaleDef_orientDef_000.png","sad","1","05","05","YlOrBr","orientDef","scaleDef","000","",""
"","","","","","html-slider-response","141","644709","0.0-135.0","aknq9uord7","66","NaN","<div style=""width:500px;"">
                            <p style=""font-size:50px; font-weight:bold;""
                            >sad</p>
                            <div style=""width:240px; margin: auto;"">
                                <img src=""images/map15_Spectral_scaleDef_orientDef_000.png"" style= ""width:200px""alt=""img"">
                            </div>
                        </div>","51","","0","","","","images/map15_Spectral_scaleDef_orientDef_000.png","sad","1","15","15","Spectral","orientDef","scaleDef","000","",""
"","","","","","html-slider-response","142","647725","0.0-136.0","aknq9uord7","66","NaN","<div style=""width:500px;"">
                            <p style=""font-size:50px; font-weight:bold;""
                            >sad</p>
                            <div style=""width:240px; margin: auto;"">
                                <img src=""images/map27_cividis_scaleRev_orientDef_270.png"" style= ""width:200px""alt=""img"">
                            </div>
                        </div>","200","","0","","","","images/map27_cividis_scaleRev_orientDef_270.png","sad","1","27","27","cividis","orientDef","scaleRev","270","",""
"","","","","","html-button-response","143","650115","0.0-137.0","aknq9uord7","66","1887","<p>You are doing great!<br></br> You are halway done with the current block. When you are ready to continue, click the 'Continue' button.</p>","0","","","","","","","","","","","","","","","",""
"","","","","","html-slider-response","144","651559","0.0-138.0","aknq9uord7","66","NaN","<div style=""width:500px;"">
                            <p style=""font-size:50px; font-weight:bold;""
                            >sad</p>
                            <div style=""width:240px; margin: auto;"">
                                <img src=""images/map23_managua_scaleDef_orientDef_180.png"" style= ""width:200px""alt=""img"">
                            </div>
                        </div>","-200","","0","","","","images/map23_managua_scaleDef_orientDef_180.png","sad","1","23","23","managua","orientDef","scaleDef","180","",""
"","","","","","html-slider-response","145","655809","0.0-139.0","aknq9uord7","66","NaN","<div style=""width:500px;"">
                            <p style=""font-size:50px; font-weight:bold;""
                            >sad</p>
                            <div style=""width:240px; margin: auto;"">
                                <img src=""images/map27_cividis_scaleDef_orientDef_180.png"" style= ""width:200px""alt=""img"">
                            </div>
                        </div>","71","","0","","","","images/map27_cividis_scaleDef_orientDef_180.png","sad","1","27","27","cividis","orientDef","scaleDef","180","",""
"","","","","","html-slider-response","146","657826","0.0-140.0","aknq9uord7","66","NaN","<div style=""width:500px;"">
                            <p style=""font-size:50px; font-weight:bold;""
                            >sad</p>
                            <div style=""width:240px; margin: auto;"">
                                <img src=""images/map26_plasma_scaleRev_orientMir_090.png"" style= ""width:200px""alt=""img"">
                            </div>
                        </div>","-200","","0","","","","images/map26_plasma_scaleRev_orientMir_090.png","sad","1","26","26","plasma","orientMir","scaleRev","090","",""
"","","","","","html-slider-response","147","659909","0.0-141.0","aknq9uord7","66","NaN","<div style=""width:500px;"">
                            <p style=""font-size:50px; font-weight:bold;""
                            >sad</p>
                            <div style=""width:240px; margin: auto;"">
                                <img src=""images/map15_seismic_scaleDef_orientMir_180.png"" style= ""width:200px""alt=""img"">
                            </div>
                        </div>","-200","","0","","","","images/map15_seismic_scaleDef_orientMir_180.png","sad","1","15","15","seismic","orientMir","scaleDef","180","",""
"","","","","","html-slider-response","148","662510","0.0-142.0","aknq9uord7","66","NaN","<div style=""width:500px;"">
                            <p style=""font-size:50px; font-weight:bold;""
                            >sad</p>
                            <div style=""width:240px; margin: auto;"">
                                <img src=""images/map12_BrBG_scaleDef_orientMir_000.png"" style= ""width:200px""alt=""img"">
                            </div>
                        </div>","-200","","0","","","","images/map12_BrBG_scaleDef_orientMir_000.png","sad","1","12","12","BrBG","orientMir","scaleDef","000","",""
"","","","","","html-slider-response","149","664459","0.0-143.0","aknq9uord7","66","NaN","<div style=""width:500px;"">
                            <p style=""font-size:50px; font-weight:bold;""
                            >sad</p>
                            <div style=""width:240px; margin: auto;"">
                                <img src=""images/map10_YlGn_scaleRev_orientMir_270.png"" style= ""width:200px""alt=""img"">
                            </div>
                        </div>","-200","","0","","","","images/map10_YlGn_scaleRev_orientMir_270.png","sad","1","10","10","YlGn","orientMir","scaleRev","270","",""
"","","","","","html-slider-response","150","666459","0.0-144.0","aknq9uord7","66","NaN","<div style=""width:500px;"">
                            <p style=""font-size:50px; font-weight:bold;""
                            >sad</p>
                            <div style=""width:240px; margin: auto;"">
                                <img src=""images/map13_RdYlGn_scaleRev_orientMir_270.png"" style= ""width:200px""alt=""img"">
                            </div>
                        </div>","-200","","0","","","","images/map13_RdYlGn_scaleRev_orientMir_270.png","sad","1","13","13","RdYlGn","orientMir","scaleRev","270","",""
"","","","","","html-slider-response","151","670726","0.0-145.0","aknq9uord7","66","NaN","<div style=""width:500px;"">
                            <p style=""font-size:50px; font-weight:bold;""
                            >sad</p>
                            <div style=""width:240px; margin: auto;"">
                                <img src=""images/map27_magma_scaleDef_orientDef_000.png"" style= ""width:200px""alt=""img"">
                            </div>
                        </div>","30","","0","","","","images/map27_magma_scaleDef_orientDef_000.png","sad","1","27","27","magma","orientDef","scaleDef","000","",""
"","","","","","html-slider-response","152","672526","0.0-146.0","aknq9uord7","66","NaN","<div style=""width:500px;"">
                            <p style=""font-size:50px; font-weight:bold;""
                            >sad</p>
                            <div style=""width:240px; margin: auto;"">
                                <img src=""images/map02_Greens_scaleRev_orientDef_270.png"" style= ""width:200px""alt=""img"">
                            </div>
                        </div>","-200","","0","","","","images/map02_Greens_scaleRev_orientDef_270.png","sad","1","02","02","Greens","orientDef","scaleRev","270","",""
"","","","","","html-slider-response","153","674526","0.0-147.0","aknq9uord7","66","NaN","<div style=""width:500px;"">
                            <p style=""font-size:50px; font-weight:bold;""
                            >sad</p>
                            <div style=""width:240px; margin: auto;"">
                                <img src=""images/map12_BrBG_scaleRev_orientMir_090.png"" style= ""width:200px""alt=""img"">
                            </div>
                        </div>","-200","","0","","","","images/map12_BrBG_scaleRev_orientMir_090.png","sad","1","12","12","BrBG","orientMir","scaleRev","090","",""
"","","","","","html-slider-response","154","677558","0.0-148.0","aknq9uord7","66","NaN","<div style=""width:500px;"">
                            <p style=""font-size:50px; font-weight:bold;""
                            >sad</p>
                            <div style=""width:240px; margin: auto;"">
                                <img src=""images/map15_coolwarm_scaleRev_orientDef_270.png"" style= ""width:200px""alt=""img"">
                            </div>
                        </div>","41","","0","","","","images/map15_coolwarm_scaleRev_orientDef_270.png","sad","1","15","15","coolwarm","orientDef","scaleRev","270","",""
"","","","","","html-slider-response","155","682175","0.0-149.0","aknq9uord7","66","NaN","<div style=""width:500px;"">
                            <p style=""font-size:50px; font-weight:bold;""
                            >sad</p>
                            <div style=""width:240px; margin: auto;"">
                                <img src=""images/map07_PuBu_scaleRev_orientMir_270.png"" style= ""width:200px""alt=""img"">
                            </div>
                        </div>","200","","0","","","","images/map07_PuBu_scaleRev_orientMir_270.png","sad","1","07","07","PuBu","orientMir","scaleRev","270","",""
"","","","","","html-slider-response","156","684792","0.0-150.0","aknq9uord7","66","NaN","<div style=""width:500px;"">
                            <p style=""font-size:50px; font-weight:bold;""
                            >sad</p>
                            <div style=""width:240px; margin: auto;"">
                                <img src=""images/map10_PuBuGn_scaleRev_orientDef_270.png"" style= ""width:200px""alt=""img"">
                            </div>
                        </div>","1","","0","","","","images/map10_PuBuGn_scaleRev_orientDef_270.png","sad","1","10","10","PuBuGn","orientDef","scaleRev","270","",""
"","","","","","html-slider-response","157","688126","0.0-151.0","aknq9uord7","66","NaN","<div style=""width:500px;"">
                            <p style=""font-size:50px; font-weight:bold;""
                            >sad</p>
                            <div style=""width:240px; margin: auto;"">
                                <img src=""images/map10_YlGn_scaleDef_orientMir_180.png"" style= ""width:200px""alt=""img"">
                            </div>
                        </div>","-200","","0","","","","images/map10_YlGn_scaleDef_orientMir_180.png","sad","1","10","10","YlGn","orientMir","scaleDef","180","",""
"","","","","","html-slider-response","158","690625","0.0-152.0","aknq9uord7","66","NaN","<div style=""width:500px;"">
                            <p style=""font-size:50px; font-weight:bold;""
                            >sad</p>
                            <div style=""width:240px; margin: auto;"">
                                <img src=""images/map15_bwr_scaleDef_orientMir_000.png"" style= ""width:200px""alt=""img"">
                            </div>
                        </div>","27","","0","","","","images/map15_bwr_scaleDef_orientMir_000.png","sad","1","15","15","bwr","orientMir","scaleDef","000","",""
"","","","","","html-slider-response","159","694094","0.0-153.0","aknq9uord7","66","NaN","<div style=""width:500px;"">
                            <p style=""font-size:50px; font-weight:bold;""
