"success","timeout","failed_images","failed_audio","failed_video","trial_type","trial_index","time_elapsed","internal_node_id","subject_id","condition_num","rt","stimulus","response","question_order","slider_start","practiceTrial","practiceTrialNum","correct","image_path","concept","repetition","map_id","map_num","scale_name","orientation_code","mapping_code","rotation_code","ishihara_plate","correct_response"
"true","false","[]","[]","[]","preload","0","478","0.0-0.0","aquaj5848n","21","","","","","","","","","","","","","","","","","","",""
"","","","","","html-button-response","1","9465188","0.0-1.0","aquaj5848n","21","4388020","Welcome to our experiment!<p>At the bottom of this screen, you will see a button that says ""Begin Experiment"".<br>Please only click that button when you are ready to complete the 30 minute experiment in one sitting.</p><p> Once you click that button, it will not be possible to restart the experiment.","0","","","","","","","","","","","","","","","",""
"true","","","","","fullscreen","2","9471127","0.0-2.0","aquaj5848n","21","4932","","","","","","","","","","","","","","","","","",""
"","","","","","survey-multi-select","3","9510320","0.0-3.0","aquaj5848n","21","39181","","{""Consent"":[""<strong>I consent</strong>""]}","[0]","","","","","","","","","","","","","","",""
"","","","","","html-button-response","4","9517369","0.0-4.0","aquaj5848n","21","7048","Welcome! <p> This experiment involves two parts: demographic information, followed by the experimental task.<p> It will take about 30 minutes to complete both parts.","0","","","","","","","","","","","","","","","",""
"","","","","","survey-text","5","9556671","0.0-5.0","aquaj5848n","21","39297","","{""Age"":""18"",""Gender"":""Female"",""Race/ethnicity"":""White"",""Languages"":""English\nDecent amount of ASL (American Sign Language)""}","","","","","","","","","","","","","","","",""
"","","","","","html-slider-response","6","9591170","0.0-6.0","aquaj5848n","21","34498","<div style='text-align:left; font-size:20px; line-height:25px; width: 1000px;'>
                                During this experiment you will be asked to rate how much you associate maps with                    different concepts.<br> Below, you can see some examples of the maps you will be asked to rate. Above the maps
                    is the list of concepts.<br>You will be asked                    to rate how much you associate each map with each concept on a scale from 'not at all' to 'very much' like the
                    one below. <br><br>
                    Now, please look at the list of concepts and maps. For each concept, think about the map you associate 'very
                    much' with the concept.<br>                     When you see that map during the experiment, please rate it near the 'very much' endpoint of the
                    scale.<br>Now, please think about which map you associate 'not at all'                     with each concept. When you see that map during the experiment, please rate it near the 'not at all' endpoint
                    of the scale.<br>
                    Please use the full range of the scale. That is, if a map is somewhat associated with the concept, you would
                    click partway between the middle point and right side of the scale.                    You will be asked to rate each map for a given concept before moving on to the next concept.<br>Press the
                    'Continue' button for instructions on how to use the slider.                    <br>
                </div>

                <div style=""width: 500px; margin: 0 auto;"">
                    <!-- Centered text paragraphs -->
                    <div style=""text-align: center; width: 500px;"">
                        <p style=""font-size:25px; line-height:15px;"">
                            fearful&nbsp;&nbsp;&nbsp;&nbsp;
                            sad&nbsp;&nbsp;&nbsp;&nbsp;
                            happy&nbsp;&nbsp;&nbsp;&nbsp;
                            angry&nbsp;&nbsp;&nbsp;&nbsp;
                            disgust
                        </p>
                        <!-- <p style=""font-size:20px; line-height:15px;"">sad</p>
                        <p style=""font-size:20px;line-height:15px;"">happy</p>
                        <p style=""font-size:20px;line-height:15px;"">angry</p>
                        <p style=""font-size:20px;line-height:15px;"">disgust</p> -->
                    </div>
            

                    <!-- Grid section -->
                   <div style=""display: flex; justify-content: center; padding-top: 15px;"">
                    <div style=""display: grid; grid-template-columns: repeat(10, 55px); grid-gap: 5px; width: auto;"">
                        <img src=""images/map15_BuPu_scaleDef_orientMir_090.png"" alt=""map"" style=""width: 100%;""><img src=""images/map02_coolwarm_scaleDef_orientMir_090.png"" alt=""map"" style=""width: 100%;""><img src=""images/map12_Oranges_scaleDef_orientMir_270.png"" alt=""map"" style=""width: 100%;""><img src=""images/map26_PiYG_scaleRev_orientMir_000.png"" alt=""map"" style=""width: 100%;""><img src=""images/map13_Reds_scaleRev_orientDef_180.png"" alt=""map"" style=""width: 100%;""><img src=""images/map07_viridis_scaleDef_orientMir_090.png"" alt=""map"" style=""width: 100%;""><img src=""images/map02_bwr_scaleDef_orientMir_270.png"" alt=""map"" style=""width: 100%;""><img src=""images/map05_berlin_scaleRev_orientMir_000.png"" alt=""map"" style=""width: 100%;""><img src=""images/map15_OrRd_scaleRev_orientDef_000.png"" alt=""map"" style=""width: 100%;""><img src=""images/map26_YlGn_scaleRev_orientDef_180.png"" alt=""map"" style=""width: 100%;""><img src=""images/map13_YlOrRd_scaleDef_orientMir_090.png"" alt=""map"" style=""width: 100%;""><img src=""images/map10_inferno_scaleRev_orientDef_180.png"" alt=""map"" style=""width: 100%;""><img src=""images/map12_Blues_scaleDef_orientDef_270.png"" alt=""map"" style=""width: 100%;""><img src=""images/map02_RdYlBu_scaleRev_orientDef_000.png"" alt=""map"" style=""width: 100%;""><img src=""images/map27_BrBG_scaleRev_orientDef_000.png"" alt=""map"" style=""width: 100%;""><img src=""images/map23_PuBu_scaleRev_orientDef_180.png"" alt=""map"" style=""width: 100%;""><img src=""images/map13_YlOrBr_scaleDef_orientDef_270.png"" alt=""map"" style=""width: 100%;""><img src=""images/map07_plasma_scaleDef_orientMir_270.png"" alt=""map"" style=""width: 100%;""><img src=""images/map05_seismic_scaleDef_orientDef_090.png"" alt=""map"" style=""width: 100%;""><img src=""images/map10_Greys_scaleDef_orientMir_270.png"" alt=""map"" style=""width: 100%;""><img src=""images/map02_RdYlGn_scaleDef_orientDef_090.png"" alt=""map"" style=""width: 100%;""><img src=""images/map27_PuOr_scaleDef_orientDef_090.png"" alt=""map"" style=""width: 100%;""><img src=""images/map02_Spectral_scaleRev_orientMir_000.png"" alt=""map"" style=""width: 100%;""><img src=""images/map27_RdGy_scaleDef_orientDef_270.png"" alt=""map"" style=""width: 100%;""><img src=""images/map23_PuBuGn_scaleRev_orientMir_180.png"" alt=""map"" style=""width: 100%;""><img src=""images/map07_turbo_scaleDef_orientDef_270.png"" alt=""map"" style=""width: 100%;""><img src=""images/map23_YlGnBu_scaleRev_orientMir_000.png"" alt=""map"" style=""width: 100%;""><img src=""images/map05_managua_scaleDef_orientMir_090.png"" alt=""map"" style=""width: 100%;""><img src=""images/map26_PRGn_scaleDef_orientMir_090.png"" alt=""map"" style=""width: 100%;""><img src=""images/map27_RdBu_scaleDef_orientMir_090.png"" alt=""map"" style=""width: 100%;""><img src=""images/map15_PuRd_scaleDef_orientDef_090.png"" alt=""map"" style=""width: 100%;""><img src=""images/map23_GnBu_scaleRev_orientDef_000.png"" alt=""map"" style=""width: 100%;""><img src=""images/map12_Greens_scaleDef_orientMir_090.png"" alt=""map"" style=""width: 100%;""><img src=""images/map07_gist_earth_scaleRev_orientDef_180.png"" alt=""map"" style=""width: 100%;""><img src=""images/map23_BuGn_scaleDef_orientMir_270.png"" alt=""map"" style=""width: 100%;""><img src=""images/map05_vanimo_scaleDef_orientMir_270.png"" alt=""map"" style=""width: 100%;""><img src=""images/map10_cividis_scaleDef_orientMir_090.png"" alt=""map"" style=""width: 100%;""><img src=""images/map12_Purples_scaleRev_orientDef_180.png"" alt=""map"" style=""width: 100%;""><img src=""images/map10_magma_scaleDef_orientDef_270.png"" alt=""map"" style=""width: 100%;""><img src=""images/map15_RdPu_scaleDef_orientDef_270.png"" alt=""map"" style=""width: 100%;"">
                    </div>
                </div>

                    <!-- Clear floats -->
                    <div style=""clear: both;""></div>
                </div>
                            ","null","","0","true","","","","","","","","","","","","",""
"","","","","","html-button-response","7","9612304","0.0-7.0","aquaj5848n","21","21134","<div style=""width:800px;""><p style=""text-align:left"">To move the slider, click and drag your cursor to the location of the scale where you would like to make your rating and then let go. When you let go of the slider, your response will be recorded and the next trial will begin. <br>
                    We are interested in your initial impressions of each map for the given concept, so please go with your first intuition. <br>
                    Before you begin the experiment, there will be four training trials for you to practice using the scale. <br>
                     When you are ready to start the training trials, please click ""Continue"".</p><br></div>","0","","","","","","","","","","","","","","","",""
"","","","","","html-slider-response","8","9617848","0.0-8.0-0.0","aquaj5848n","21","NaN","<div style=""width:500px;"">
                                    <p style=""font-size:25px;"">Please move the slider all the way to the <br> right endpoint of the scale</p>

                                    </div>
                                </div>","200","","0","true","0","true","","","","","","","","","","",""
"","","","","","html-button-response","9","9619421","0.0-8.0-1.0","aquaj5848n","21","1072","<p align='center'><b>Good job!</b> Click on 'Continue' to proceed.</p>","0","","","","","","","","","","","","","","","",""
"","","","","","html-slider-response","10","9621115","0.0-9.0-0.0","aquaj5848n","21","NaN","<div style=""width:500px;"">
                                    <p style=""font-size:25px;"">Please move the slider all the way to the <br> left endpoint of the scale</p>

                                    </div>
                                </div>","-200","","0","true","1","true","","","","","","","","","","",""
"","","","","","html-button-response","11","9623104","0.0-9.0-1.0","aquaj5848n","21","1488","<p align='center'><b>Good job!</b> Click on 'Continue' to proceed.</p>","0","","","","","","","","","","","","","","","",""
"","","","","","html-slider-response","12","9627164","0.0-10.0-0.0","aquaj5848n","21","NaN","<div style=""width:500px;"">
                                    <p style=""font-size:25px;"">Please move the slider halfway between the center and right endpoint of the scale</p>

                                    </div>
                                </div>","94","","0","true","2","true","","","","","","","","","","",""
"","","","","","html-button-response","13","9628287","0.0-10.0-1.0","aquaj5848n","21","623","<p align='center'><b>Good job!</b> Click on 'Continue' to proceed.</p>","0","","","","","","","","","","","","","","","",""
"","","","","","html-slider-response","14","9630565","0.0-11.0-0.0","aquaj5848n","21","NaN","<div style=""width:500px;"">
                                    <p style=""font-size:25px;"">Please move the slider halfway between the center and left endpoint of the scale</p>

                                    </div>
                                </div>","-109","","0","true","3","true","","","","","","","","","","",""
"","","","","","html-button-response","15","9632104","0.0-11.0-1.0","aquaj5848n","21","1038","<p align='center'><b>Good job!</b> Click on 'Continue' to proceed.</p>","0","","","","","","","","","","","","","","","",""
"","","","","","html-button-response","16","9635354","0.0-12.0","aquaj5848n","21","3249","<p>Great job! You've completed the practice trials. Now you will begin the main task.</p>","0","","","","","","","","","","","","","","","",""
"","","","","","html-button-response","17","9640121","0.0-13.0","aquaj5848n","21","4766","<p>In this block of trials, you will be asked to rate how much you associate each map with:</p > <p style = 'font-size:150%; font-weight: bold'>fearful</p><br></br>","0","","","","","","","","","","","","","","","",""
"","","","","","html-slider-response","18","9644015","0.0-14.0","aquaj5848n","21","NaN","<div style=""width:500px;"">
                            <p style=""font-size:50px; font-weight:bold;""
                            >fearful</p>
                            <div style=""width:240px; margin: auto;"">
                                <img src=""images/map26_PRGn_scaleRev_orientMir_180.png"" style= ""width:200px""alt=""img"">
                            </div>
                        </div>","50","","0","","","","images/map26_PRGn_scaleRev_orientMir_180.png","fearful","1","26","26","PRGn","orientMir","scaleRev","180","",""
"","","","","","html-slider-response","19","9651832","0.0-15.0","aquaj5848n","21","NaN","<div style=""width:500px;"">
                            <p style=""font-size:50px; font-weight:bold;""
                            >fearful</p>
                            <div style=""width:240px; margin: auto;"">
                                <img src=""images/map13_YlOrBr_scaleRev_orientMir_000.png"" style= ""width:200px""alt=""img"">
                            </div>
                        </div>","-142","","0","","","","images/map13_YlOrBr_scaleRev_orientMir_000.png","fearful","1","13","13","YlOrBr","orientMir","scaleRev","000","",""
"","","","","","html-slider-response","20","9655316","0.0-16.0","aquaj5848n","21","NaN","<div style=""width:500px;"">
                            <p style=""font-size:50px; font-weight:bold;""
                            >fearful</p>
                            <div style=""width:240px; margin: auto;"">
                                <img src=""images/map05_berlin_scaleRev_orientMir_000.png"" style= ""width:200px""alt=""img"">
                            </div>
                        </div>","178","","0","","","","images/map05_berlin_scaleRev_orientMir_000.png","fearful","1","05","05","berlin","orientMir","scaleRev","000","",""
"","","","","","html-slider-response","21","9663649","0.0-17.0","aquaj5848n","21","NaN","<div style=""width:500px;"">
                            <p style=""font-size:50px; font-weight:bold;""
                            >fearful</p>
                            <div style=""width:240px; margin: auto;"">
                                <img src=""images/map26_YlGn_scaleDef_orientDef_090.png"" style= ""width:200px""alt=""img"">
                            </div>
                        </div>","-58","","0","","","","images/map26_YlGn_scaleDef_orientDef_090.png","fearful","1","26","26","YlGn","orientDef","scaleDef","090","",""
"","","","","","html-slider-response","22","9668449","0.0-18.0","aquaj5848n","21","NaN","<div style=""width:500px;"">
                            <p style=""font-size:50px; font-weight:bold;""
                            >fearful</p>
                            <div style=""width:240px; margin: auto;"">
                                <img src=""images/map23_PuBu_scaleRev_orientDef_180.png"" style= ""width:200px""alt=""img"">
                            </div>
                        </div>","102","","0","","","","images/map23_PuBu_scaleRev_orientDef_180.png","fearful","1","23","23","PuBu","orientDef","scaleRev","180","",""
"","","","","","html-slider-response","23","9672349","0.0-19.0","aquaj5848n","21","NaN","<div style=""width:500px;"">
                            <p style=""font-size:50px; font-weight:bold;""
                            >fearful</p>
                            <div style=""width:240px; margin: auto;"">
                                <img src=""images/map10_inferno_scaleDef_orientDef_090.png"" style= ""width:200px""alt=""img"">
                            </div>
                        </div>","200","","0","","","","images/map10_inferno_scaleDef_orientDef_090.png","fearful","1","10","10","inferno","orientDef","scaleDef","090","",""
"","","","","","html-slider-response","24","9675916","0.0-20.0","aquaj5848n","21","NaN","<div style=""width:500px;"">
                            <p style=""font-size:50px; font-weight:bold;""
                            >fearful</p>
                            <div style=""width:240px; margin: auto;"">
                                <img src=""images/map05_berlin_scaleDef_orientDef_270.png"" style= ""width:200px""alt=""img"">
                            </div>
                        </div>","30","","0","","","","images/map05_berlin_scaleDef_orientDef_270.png","fearful","1","05","05","berlin","orientDef","scaleDef","270","",""
"","","","","","html-slider-response","25","9677666","0.0-21.0","aquaj5848n","21","NaN","<div style=""width:500px;"">
                            <p style=""font-size:50px; font-weight:bold;""
                            >fearful</p>
                            <div style=""width:240px; margin: auto;"">
                                <img src=""images/map05_managua_scaleDef_orientMir_090.png"" style= ""width:200px""alt=""img"">
                            </div>
                        </div>","109","","0","","","","images/map05_managua_scaleDef_orientMir_090.png","fearful","1","05","05","managua","orientMir","scaleDef","090","",""
"","","","","","html-slider-response","26","9680166","0.0-22.0","aquaj5848n","21","NaN","<div style=""width:500px;"">
                            <p style=""font-size:50px; font-weight:bold;""
                            >fearful</p>
                            <div style=""width:240px; margin: auto;"">
                                <img src=""images/map13_Reds_scaleRev_orientDef_180.png"" style= ""width:200px""alt=""img"">
                            </div>
                        </div>","162","","0","","","","images/map13_Reds_scaleRev_orientDef_180.png","fearful","1","13","13","Reds","orientDef","scaleRev","180","",""
"","","","","","html-slider-response","27","9684899","0.0-23.0","aquaj5848n","21","NaN","<div style=""width:500px;"">
                            <p style=""font-size:50px; font-weight:bold;""
                            >fearful</p>
                            <div style=""width:240px; margin: auto;"">
                                <img src=""images/map23_PuBu_scaleDef_orientDef_090.png"" style= ""width:200px""alt=""img"">
                            </div>
                        </div>","-69","","0","","","","images/map23_PuBu_scaleDef_orientDef_090.png","fearful","1","23","23","PuBu","orientDef","scaleDef","090","",""
"","","","","","html-slider-response","28","9687515","0.0-24.0","aquaj5848n","21","NaN","<div style=""width:500px;"">
                            <p style=""font-size:50px; font-weight:bold;""
                            >fearful</p>
                            <div style=""width:240px; margin: auto;"">
                                <img src=""images/map13_Reds_scaleDef_orientDef_090.png"" style= ""width:200px""alt=""img"">
                            </div>
                        </div>","49","","0","","","","images/map13_Reds_scaleDef_orientDef_090.png","fearful","1","13","13","Reds","orientDef","scaleDef","090","",""
"","","","","","html-slider-response","29","9691182","0.0-25.0","aquaj5848n","21","NaN","<div style=""width:500px;"">
                            <p style=""font-size:50px; font-weight:bold;""
                            >fearful</p>
                            <div style=""width:240px; margin: auto;"">
                                <img src=""images/map26_PRGn_scaleDef_orientMir_090.png"" style= ""width:200px""alt=""img"">
                            </div>
                        </div>","-200","","0","","","","images/map26_PRGn_scaleDef_orientMir_090.png","fearful","1","26","26","PRGn","orientMir","scaleDef","090","",""
"","","","","","html-slider-response","30","9695016","0.0-26.0","aquaj5848n","21","NaN","<div style=""width:500px;"">
                            <p style=""font-size:50px; font-weight:bold;""
                            >fearful</p>
                            <div style=""width:240px; margin: auto;"">
                                <img src=""images/map02_coolwarm_scaleRev_orientMir_180.png"" style= ""width:200px""alt=""img"">
                            </div>
                        </div>","-105","","0","","","","images/map02_coolwarm_scaleRev_orientMir_180.png","fearful","1","02","02","coolwarm","orientMir","scaleRev","180","",""
"","","","","","html-slider-response","31","9699166","0.0-27.0","aquaj5848n","21","NaN","<div style=""width:500px;"">
                            <p style=""font-size:50px; font-weight:bold;""
                            >fearful</p>
                            <div style=""width:240px; margin: auto;"">
                                <img src=""images/map10_cividis_scaleDef_orientMir_090.png"" style= ""width:200px""alt=""img"">
                            </div>
                        </div>","112","","0","","","","images/map10_cividis_scaleDef_orientMir_090.png","fearful","1","10","10","cividis","orientMir","scaleDef","090","",""
"","","","","","html-slider-response","32","9701765","0.0-28.0","aquaj5848n","21","NaN","<div style=""width:500px;"">
                            <p style=""font-size:50px; font-weight:bold;""
                            >fearful</p>
                            <div style=""width:240px; margin: auto;"">
                                <img src=""images/map10_magma_scaleDef_orientDef_270.png"" style= ""width:200px""alt=""img"">
                            </div>
                        </div>","178","","0","","","","images/map10_magma_scaleDef_orientDef_270.png","fearful","1","10","10","magma","orientDef","scaleDef","270","",""
"","","","","","html-slider-response","33","9704216","0.0-29.0","aquaj5848n","21","NaN","<div style=""width:500px;"">
                            <p style=""font-size:50px; font-weight:bold;""
                            >fearful</p>
                            <div style=""width:240px; margin: auto;"">
                                <img src=""images/map12_Greens_scaleDef_orientMir_090.png"" style= ""width:200px""alt=""img"">
                            </div>
                        </div>","-80","","0","","","","images/map12_Greens_scaleDef_orientMir_090.png","fearful","1","12","12","Greens","orientMir","scaleDef","090","",""
"","","","","","html-slider-response","34","9706433","0.0-30.0","aquaj5848n","21","NaN","<div style=""width:500px;"">
                            <p style=""font-size:50px; font-weight:bold;""
                            >fearful</p>
                            <div style=""width:240px; margin: auto;"">
                                <img src=""images/map12_Greys_scaleRev_orientDef_000.png"" style= ""width:200px""alt=""img"">
                            </div>
                        </div>","-96","","0","","","","images/map12_Greys_scaleRev_orientDef_000.png","fearful","1","12","12","Greys","orientDef","scaleRev","000","",""
"","","","","","html-slider-response","35","9708050","0.0-31.0","aquaj5848n","21","NaN","<div style=""width:500px;"">
                            <p style=""font-size:50px; font-weight:bold;""
                            >fearful</p>
                            <div style=""width:240px; margin: auto;"">
                                <img src=""images/map10_plasma_scaleRev_orientDef_000.png"" style= ""width:200px""alt=""img"">
                            </div>
                        </div>","38","","0","","","","images/map10_plasma_scaleRev_orientDef_000.png","fearful","1","10","10","plasma","orientDef","scaleRev","000","",""
"","","","","","html-slider-response","36","9709817","0.0-32.0","aquaj5848n","21","NaN","<div style=""width:500px;"">
                            <p style=""font-size:50px; font-weight:bold;""
                            >fearful</p>
                            <div style=""width:240px; margin: auto;"">
                                <img src=""images/map27_RdYlBu_scaleDef_orientMir_270.png"" style= ""width:200px""alt=""img"">
                            </div>
                        </div>","132","","0","","","","images/map27_RdYlBu_scaleDef_orientMir_270.png","fearful","1","27","27","RdYlBu","orientMir","scaleDef","270","",""
"","","","","","html-slider-response","37","9712133","0.0-33.0","aquaj5848n","21","NaN","<div style=""width:500px;"">
                            <p style=""font-size:50px; font-weight:bold;""
                            >fearful</p>
                            <div style=""width:240px; margin: auto;"">
                                <img src=""images/map15_RdPu_scaleDef_orientDef_270.png"" style= ""width:200px""alt=""img"">
                            </div>
                        </div>","-116","","0","","","","images/map15_RdPu_scaleDef_orientDef_270.png","fearful","1","15","15","RdPu","orientDef","scaleDef","270","",""
"","","","","","html-slider-response","38","9715150","0.0-34.0","aquaj5848n","21","NaN","<div style=""width:500px;"">
                            <p style=""font-size:50px; font-weight:bold;""
                            >fearful</p>
                            <div style=""width:240px; margin: auto;"">
                                <img src=""images/map23_PuBuGn_scaleDef_orientMir_090.png"" style= ""width:200px""alt=""img"">
                            </div>
                        </div>","-40","","0","","","","images/map23_PuBuGn_scaleDef_orientMir_090.png","fearful","1","23","23","PuBuGn","orientMir","scaleDef","090","",""
"","","","","","html-slider-response","39","9718717","0.0-35.0","aquaj5848n","21","NaN","<div style=""width:500px;"">
                            <p style=""font-size:50px; font-weight:bold;""
                            >fearful</p>
                            <div style=""width:240px; margin: auto;"">
                                <img src=""images/map05_seismic_scaleRev_orientDef_180.png"" style= ""width:200px""alt=""img"">
                            </div>
                        </div>","14","","0","","","","images/map05_seismic_scaleRev_orientDef_180.png","fearful","1","05","05","seismic","orientDef","scaleRev","180","",""
"","","","","","html-slider-response","40","9722415","0.0-36.0","aquaj5848n","21","NaN","<div style=""width:500px;"">
                            <p style=""font-size:50px; font-weight:bold;""
                            >fearful</p>
                            <div style=""width:240px; margin: auto;"">
                                <img src=""images/map12_Blues_scaleDef_orientDef_270.png"" style= ""width:200px""alt=""img"">
                            </div>
                        </div>","-23","","0","","","","images/map12_Blues_scaleDef_orientDef_270.png","fearful","1","12","12","Blues","orientDef","scaleDef","270","",""
"","","","","","html-slider-response","41","9723866","0.0-37.0","aquaj5848n","21","NaN","<div style=""width:500px;"">
                            <p style=""font-size:50px; font-weight:bold;""
                            >fearful</p>
                            <div style=""width:240px; margin: auto;"">
                                <img src=""images/map12_Blues_scaleRev_orientMir_000.png"" style= ""width:200px""alt=""img"">
                            </div>
                        </div>","-21","","0","","","","images/map12_Blues_scaleRev_orientMir_000.png","fearful","1","12","12","Blues","orientMir","scaleRev","000","",""
"","","","","","html-slider-response","42","9725333","0.0-38.0","aquaj5848n","21","NaN","<div style=""width:500px;"">
                            <p style=""font-size:50px; font-weight:bold;""
                            >fearful</p>
                            <div style=""width:240px; margin: auto;"">
                                <img src=""images/map15_OrRd_scaleRev_orientDef_000.png"" style= ""width:200px""alt=""img"">
                            </div>
                        </div>","93","","0","","","","images/map15_OrRd_scaleRev_orientDef_000.png","fearful","1","15","15","OrRd","orientDef","scaleRev","000","",""
"","","","","","html-slider-response","43","9726900","0.0-39.0","aquaj5848n","21","NaN","<div style=""width:500px;"">
                            <p style=""font-size:50px; font-weight:bold;""
                            >fearful</p>
                            <div style=""width:240px; margin: auto;"">
                                <img src=""images/map13_Oranges_scaleRev_orientDef_000.png"" style= ""width:200px""alt=""img"">
                            </div>
                        </div>","200","","0","","","","images/map13_Oranges_scaleRev_orientDef_000.png","fearful","1","13","13","Oranges","orientDef","scaleRev","000","",""
"","","","","","html-slider-response","44","9731666","0.0-40.0","aquaj5848n","21","NaN","<div style=""width:500px;"">
                            <p style=""font-size:50px; font-weight:bold;""
                            >fearful</p>
                            <div style=""width:240px; margin: auto;"">
                                <img src=""images/map27_BrBG_scaleRev_orientDef_000.png"" style= ""width:200px""alt=""img"">
                            </div>
                        </div>","82","","0","","","","images/map27_BrBG_scaleRev_orientDef_000.png","fearful","1","27","27","BrBG","orientDef","scaleRev","000","",""
"","","","","","html-slider-response","45","9733983","0.0-41.0","aquaj5848n","21","NaN","<div style=""width:500px;"">
                            <p style=""font-size:50px; font-weight:bold;""
                            >fearful</p>
                            <div style=""width:240px; margin: auto;"">
                                <img src=""images/map27_RdGy_scaleRev_orientMir_000.png"" style= ""width:200px""alt=""img"">
                            </div>
                        </div>","200","","0","","","","images/map27_RdGy_scaleRev_orientMir_000.png","fearful","1","27","27","RdGy","orientMir","scaleRev","000","",""
"","","","","","html-slider-response","46","9736049","0.0-42.0","aquaj5848n","21","NaN","<div style=""width:500px;"">
                            <p style=""font-size:50px; font-weight:bold;""
                            >fearful</p>
                            <div style=""width:240px; margin: auto;"">
                                <img src=""images/map10_magma_scaleRev_orientMir_000.png"" style= ""width:200px""alt=""img"">
                            </div>
                        </div>","119","","0","","","","images/map10_magma_scaleRev_orientMir_000.png","fearful","1","10","10","magma","orientMir","scaleRev","000","",""
"","","","","","html-slider-response","47","9738334","0.0-43.0","aquaj5848n","21","NaN","<div style=""width:500px;"">
                            <p style=""font-size:50px; font-weight:bold;""
                            >fearful</p>
                            <div style=""width:240px; margin: auto;"">
                                <img src=""images/map02_Spectral_scaleRev_orientMir_000.png"" style= ""width:200px""alt=""img"">
                            </div>
                        </div>","82","","0","","","","images/map02_Spectral_scaleRev_orientMir_000.png","fearful","1","02","02","Spectral","orientMir","scaleRev","000","",""
"","","","","","html-slider-response","48","9740233","0.0-44.0","aquaj5848n","21","NaN","<div style=""width:500px;"">
                            <p style=""font-size:50px; font-weight:bold;""
                            >fearful</p>
                            <div style=""width:240px; margin: auto;"">
                                <img src=""images/map02_coolwarm_scaleDef_orientMir_090.png"" style= ""width:200px""alt=""img"">
                            </div>
                        </div>","133","","0","","","","images/map02_coolwarm_scaleDef_orientMir_090.png","fearful","1","02","02","coolwarm","orientMir","scaleDef","090","",""
"","","","","","html-slider-response","49","9742117","0.0-45.0","aquaj5848n","21","NaN","<div style=""width:500px;"">
                            <p style=""font-size:50px; font-weight:bold;""
                            >fearful</p>
                            <div style=""width:240px; margin: auto;"">
                                <img src=""images/map26_PiYG_scaleRev_orientMir_000.png"" style= ""width:200px""alt=""img"">
                            </div>
                        </div>","67","","0","","","","images/map26_PiYG_scaleRev_orientMir_000.png","fearful","1","26","26","PiYG","orientMir","scaleRev","000","",""
"","","","","","html-slider-response","50","9744150","0.0-46.0","aquaj5848n","21","NaN","<div style=""width:500px;"">
                            <p style=""font-size:50px; font-weight:bold;""
                            >fearful</p>
                            <div style=""width:240px; margin: auto;"">
                                <img src=""images/map23_GnBu_scaleRev_orientDef_000.png"" style= ""width:200px""alt=""img"">
                            </div>
                        </div>","-75","","0","","","","images/map23_GnBu_scaleRev_orientDef_000.png","fearful","1","23","23","GnBu","orientDef","scaleRev","000","",""
"","","","","","html-slider-response","51","9746600","0.0-47.0","aquaj5848n","21","NaN","<div style=""width:500px;"">
                            <p style=""font-size:50px; font-weight:bold;""
                            >fearful</p>
                            <div style=""width:240px; margin: auto;"">
                                <img src=""images/map26_PiYG_scaleDef_orientDef_270.png"" style= ""width:200px""alt=""img"">
                            </div>
                        </div>","62","","0","","","","images/map26_PiYG_scaleDef_orientDef_270.png","fearful","1","26","26","PiYG","orientDef","scaleDef","270","",""
"","","","","","html-slider-response","52","9749633","0.0-48.0","aquaj5848n","21","NaN","<div style=""width:500px;"">
                            <p style=""font-size:50px; font-weight:bold;""
                            >fearful</p>
                            <div style=""width:240px; margin: auto;"">
                                <img src=""images/map07_viridis_scaleRev_orientMir_180.png"" style= ""width:200px""alt=""img"">
                            </div>
                        </div>","137","","0","","","","images/map07_viridis_scaleRev_orientMir_180.png","fearful","1","07","07","viridis","orientMir","scaleRev","180","",""
"","","","","","html-slider-response","53","9755568","0.0-49.0","aquaj5848n","21","NaN","<div style=""width:500px;"">
                            <p style=""font-size:50px; font-weight:bold;""
                            >fearful</p>
                            <div style=""width:240px; margin: auto;"">
                                <img src=""images/map07_gist_earth_scaleDef_orientDef_090.png"" style= ""width:200px""alt=""img"">
                            </div>
                        </div>","78","","0","","","","images/map07_gist_earth_scaleDef_orientDef_090.png","fearful","1","07","07","gist","scaleDef","earth","orientDef","",""
"","","","","","html-slider-response","54","9758500","0.0-50.0","aquaj5848n","21","NaN","<div style=""width:500px;"">
                            <p style=""font-size:50px; font-weight:bold;""
                            >fearful</p>
                            <div style=""width:240px; margin: auto;"">
                                <img src=""images/map13_YlOrRd_scaleDef_orientMir_090.png"" style= ""width:200px""alt=""img"">
                            </div>
                        </div>","141","","0","","","","images/map13_YlOrRd_scaleDef_orientMir_090.png","fearful","1","13","13","YlOrRd","orientMir","scaleDef","090","",""
"","","","","","html-slider-response","55","9761050","0.0-51.0","aquaj5848n","21","NaN","<div style=""width:500px;"">
                            <p style=""font-size:50px; font-weight:bold;""
                            >fearful</p>
                            <div style=""width:240px; margin: auto;"">
                                <img src=""images/map10_cividis_scaleRev_orientMir_180.png"" style= ""width:200px""alt=""img"">
                            </div>
                        </div>","172","","0","","","","images/map10_cividis_scaleRev_orientMir_180.png","fearful","1","10","10","cividis","orientMir","scaleRev","180","",""
"","","","","","html-slider-response","56","9764617","0.0-52.0","aquaj5848n","21","NaN","<div style=""width:500px;"">
                            <p style=""font-size:50px; font-weight:bold;""
                            >fearful</p>
                            <div style=""width:240px; margin: auto;"">
                                <img src=""images/map26_BuGn_scaleRev_orientDef_000.png"" style= ""width:200px""alt=""img"">
                            </div>
                        </div>","-95","","0","","","","images/map26_BuGn_scaleRev_orientDef_000.png","fearful","1","26","26","BuGn","orientDef","scaleRev","000","",""
"","","","","","html-slider-response","57","9766401","0.0-53.0","aquaj5848n","21","NaN","<div style=""width:500px;"">
                            <p style=""font-size:50px; font-weight:bold;""
                            >fearful</p>
                            <div style=""width:240px; margin: auto;"">
                                <img src=""images/map07_viridis_scaleDef_orientMir_090.png"" style= ""width:200px""alt=""img"">
                            </div>
                        </div>","120","","0","","","","images/map07_viridis_scaleDef_orientMir_090.png","fearful","1","07","07","viridis","orientMir","scaleDef","090","",""
"","","","","","html-button-response","58","9770056","0.0-54.0","aquaj5848n","21","3154","<p>You are doing great!<br></br> You are halway done with the current block. When you are ready to continue, click the 'Continue' button.</p>","0","","","","","","","","","","","","","","","",""
"","","","","","html-slider-response","59","9773617","0.0-55.0","aquaj5848n","21","NaN","<div style=""width:500px;"">
                            <p style=""font-size:50px; font-weight:bold;""
                            >fearful</p>
                            <div style=""width:240px; margin: auto;"">
                                <img src=""images/map05_vanimo_scaleDef_orientMir_270.png"" style= ""width:200px""alt=""img"">
                            </div>
                        </div>","163","","0","","","","images/map05_vanimo_scaleDef_orientMir_270.png","fearful","1","05","05","vanimo","orientMir","scaleDef","270","",""
"","","","","","html-slider-response","60","9775734","0.0-56.0","aquaj5848n","21","NaN","<div style=""width:500px;"">
                            <p style=""font-size:50px; font-weight:bold;""
                            >fearful</p>
                            <div style=""width:240px; margin: auto;"">
                                <img src=""images/map27_RdGy_scaleDef_orientDef_270.png"" style= ""width:200px""alt=""img"">
                            </div>
                        </div>","68","","0","","","","images/map27_RdGy_scaleDef_orientDef_270.png","fearful","1","27","27","RdGy","orientDef","scaleDef","270","",""
"","","","","","html-slider-response","61","9777617","0.0-57.0","aquaj5848n","21","NaN","<div style=""width:500px;"">
                            <p style=""font-size:50px; font-weight:bold;""
                            >fearful</p>
                            <div style=""width:240px; margin: auto;"">
                                <img src=""images/map26_YlGn_scaleRev_orientDef_180.png"" style= ""width:200px""alt=""img"">
                            </div>
                        </div>","-84","","0","","","","images/map26_YlGn_scaleRev_orientDef_180.png","fearful","1","26","26","YlGn","orientDef","scaleRev","180","",""
"","","","","","html-slider-response","62","9779200","0.0-58.0","aquaj5848n","21","NaN","<div style=""width:500px;"">
                            <p style=""font-size:50px; font-weight:bold;""
                            >fearful</p>
                            <div style=""width:240px; margin: auto;"">
                                <img src=""images/map15_RdPu_scaleRev_orientMir_000.png"" style= ""width:200px""alt=""img"">
                            </div>
                        </div>","-51","","0","","","","images/map15_RdPu_scaleRev_orientMir_000.png","fearful","1","15","15","RdPu","orientMir","scaleRev","000","",""
"","","","","","html-slider-response","63","9781468","0.0-59.0","aquaj5848n","21","NaN","<div style=""width:500px;"">
                            <p style=""font-size:50px; font-weight:bold;""
                            >fearful</p>
                            <div style=""width:240px; margin: auto;"">
                                <img src=""images/map15_GnBu_scaleDef_orientMir_270.png"" style= ""width:200px""alt=""img"">
                            </div>
                        </div>","-16","","0","","","","images/map15_GnBu_scaleDef_orientMir_270.png","fearful","1","15","15","GnBu","orientMir","scaleDef","270","",""
"","","","","","html-slider-response","64","9784334","0.0-60.0","aquaj5848n","21","NaN","<div style=""width:500px;"">
                            <p style=""font-size:50px; font-weight:bold;""
                            >fearful</p>
                            <div style=""width:240px; margin: auto;"">
                                <img src=""images/map02_Spectral_scaleDef_orientDef_270.png"" style= ""width:200px""alt=""img"">
                            </div>
                        </div>","82","","0","","","","images/map02_Spectral_scaleDef_orientDef_270.png","fearful","1","02","02","Spectral","orientDef","scaleDef","270","",""
"","","","","","html-slider-response","65","9786234","0.0-61.0","aquaj5848n","21","NaN","<div style=""width:500px;"">
                            <p style=""font-size:50px; font-weight:bold;""
                            >fearful</p>
                            <div style=""width:240px; margin: auto;"">
                                <img src=""images/map02_RdYlGn_scaleDef_orientDef_090.png"" style= ""width:200px""alt=""img"">
                            </div>
                        </div>","70","","0","","","","images/map02_RdYlGn_scaleDef_orientDef_090.png","fearful","1","02","02","RdYlGn","orientDef","scaleDef","090","",""
"","","","","","html-slider-response","66","9789317","0.0-62.0","aquaj5848n","21","NaN","<div style=""width:500px;"">
                            <p style=""font-size:50px; font-weight:bold;""
                            >fearful</p>
                            <div style=""width:240px; margin: auto;"">
                                <img src=""images/map27_RdBu_scaleDef_orientMir_090.png"" style= ""width:200px""alt=""img"">
                            </div>
                        </div>","66","","0","","","","images/map27_RdBu_scaleDef_orientMir_090.png","fearful","1","27","27","RdBu","orientMir","scaleDef","090","",""
"","","","","","html-slider-response","67","9806617","0.0-63.0","aquaj5848n","21","NaN","<div style=""width:500px;"">
                            <p style=""font-size:50px; font-weight:bold;""
                            >fearful</p>
                            <div style=""width:240px; margin: auto;"">
                                <img src=""images/map23_YlGnBu_scaleDef_orientDef_270.png"" style= ""width:200px""alt=""img"">
                            </div>
                        </div>","-177","","0","","","","images/map23_YlGnBu_scaleDef_orientDef_270.png","fearful","1","23","23","YlGnBu","orientDef","scaleDef","270","",""
"","","","","","html-slider-response","68","9808950","0.0-64.0","aquaj5848n","21","NaN","<div style=""width:500px;"">
                            <p style=""font-size:50px; font-weight:bold;""
                            >fearful</p>
                            <div style=""width:240px; margin: auto;"">
                                <img src=""images/map12_Greens_scaleRev_orientMir_180.png"" style= ""width:200px""alt=""img"">
                            </div>
                        </div>","-200","","0","","","","images/map12_Greens_scaleRev_orientMir_180.png","fearful","1","12","12","Greens","orientMir","scaleRev","180","",""
"","","","","","html-slider-response","69","9811117","0.0-65.0","aquaj5848n","21","NaN","<div style=""width:500px;"">
                            <p style=""font-size:50px; font-weight:bold;""
                            >fearful</p>
                            <div style=""width:240px; margin: auto;"">
                                <img src=""images/map13_YlOrRd_scaleRev_orientMir_180.png"" style= ""width:200px""alt=""img"">
                            </div>
                        </div>","149","","0","","","","images/map13_YlOrRd_scaleRev_orientMir_180.png","fearful","1","13","13","YlOrRd","orientMir","scaleRev","180","",""
"","","","","","html-slider-response","70","9812934","0.0-66.0","aquaj5848n","21","NaN","<div style=""width:500px;"">
                            <p style=""font-size:50px; font-weight:bold;""
                            >fearful</p>
                            <div style=""width:240px; margin: auto;"">
                                <img src=""images/map15_BuPu_scaleDef_orientMir_090.png"" style= ""width:200px""alt=""img"">
                            </div>
                        </div>","70","","0","","","","images/map15_BuPu_scaleDef_orientMir_090.png","fearful","1","15","15","BuPu","orientMir","scaleDef","090","",""
"","","","","","html-slider-response","71","9814835","0.0-67.0","aquaj5848n","21","NaN","<div style=""width:500px;"">
                            <p style=""font-size:50px; font-weight:bold;""
                            >fearful</p>
                            <div style=""width:240px; margin: auto;"">
                                <img src=""images/map02_RdYlGn_scaleRev_orientDef_180.png"" style= ""width:200px""alt=""img"">
                            </div>
                        </div>","102","","0","","","","images/map02_RdYlGn_scaleRev_orientDef_180.png","fearful","1","02","02","RdYlGn","orientDef","scaleRev","180","",""
"","","","","","html-slider-response","72","9817351","0.0-68.0","aquaj5848n","21","NaN","<div style=""width:500px;"">
                            <p style=""font-size:50px; font-weight:bold;""
                            >fearful</p>
                            <div style=""width:240px; margin: auto;"">
                                <img src=""images/map05_managua_scaleRev_orientMir_180.png"" style= ""width:200px""alt=""img"">
                            </div>
                        </div>","200","","0","","","","images/map05_managua_scaleRev_orientMir_180.png","fearful","1","05","05","managua","orientMir","scaleRev","180","",""
"","","","","","html-slider-response","73","9819518","0.0-69.0","aquaj5848n","21","NaN","<div style=""width:500px;"">
                            <p style=""font-size:50px; font-weight:bold;""
                            >fearful</p>
                            <div style=""width:240px; margin: auto;"">
                                <img src=""images/map15_BuPu_scaleRev_orientMir_180.png"" style= ""width:200px""alt=""img"">
                            </div>
                        </div>","-96","","0","","","","images/map15_BuPu_scaleRev_orientMir_180.png","fearful","1","15","15","BuPu","orientMir","scaleRev","180","",""
"","","","","","html-slider-response","74","9821534","0.0-70.0","aquaj5848n","21","NaN","<div style=""width:500px;"">
                            <p style=""font-size:50px; font-weight:bold;""
                            >fearful</p>
                            <div style=""width:240px; margin: auto;"">
                                <img src=""images/map27_PuOr_scaleRev_orientDef_180.png"" style= ""width:200px""alt=""img"">
                            </div>
                        </div>","67","","0","","","","images/map27_PuOr_scaleRev_orientDef_180.png","fearful","1","27","27","PuOr","orientDef","scaleRev","180","",""
"","","","","","html-slider-response","75","9823401","0.0-71.0","aquaj5848n","21","NaN","<div style=""width:500px;"">
                            <p style=""font-size:50px; font-weight:bold;""
                            >fearful</p>
                            <div style=""width:240px; margin: auto;"">
                                <img src=""images/map10_inferno_scaleRev_orientDef_180.png"" style= ""width:200px""alt=""img"">
                            </div>
                        </div>","200","","0","","","","images/map10_inferno_scaleRev_orientDef_180.png","fearful","1","10","10","inferno","orientDef","scaleRev","180","",""
"","","","","","html-slider-response","76","9825918","0.0-72.0","aquaj5848n","21","NaN","<div style=""width:500px;"">
                            <p style=""font-size:50px; font-weight:bold;""
                            >fearful</p>
                            <div style=""width:240px; margin: auto;"">
                                <img src=""images/map10_Greys_scaleDef_orientMir_270.png"" style= ""width:200px""alt=""img"">
                            </div>
                        </div>","83","","0","","","","images/map10_Greys_scaleDef_orientMir_270.png","fearful","1","10","10","Greys","orientMir","scaleDef","270","",""
"","","","","","html-slider-response","77","9829701","0.0-73.0","aquaj5848n","21","NaN","<div style=""width:500px;"">
                            <p style=""font-size:50px; font-weight:bold;""
                            >fearful</p>
                            <div style=""width:240px; margin: auto;"">
                                <img src=""images/map07_turbo_scaleRev_orientMir_000.png"" style= ""width:200px""alt=""img"">
                            </div>
                        </div>","150","","0","","","","images/map07_turbo_scaleRev_orientMir_000.png","fearful","1","07","07","turbo","orientMir","scaleRev","000","",""
"","","","","","html-slider-response","78","9831967","0.0-74.0","aquaj5848n","21","NaN","<div style=""width:500px;"">
                            <p style=""font-size:50px; font-weight:bold;""
                            >fearful</p>
                            <div style=""width:240px; margin: auto;"">
                                <img src=""images/map02_RdYlBu_scaleRev_orientDef_000.png"" style= ""width:200px""alt=""img"">
                            </div>
                        </div>","150","","0","","","","images/map02_RdYlBu_scaleRev_orientDef_000.png","fearful","1","02","02","RdYlBu","orientDef","scaleRev","000","",""
"","","","","","html-slider-response","79","9835084","0.0-75.0","aquaj5848n","21","NaN","<div style=""width:500px;"">
                            <p style=""font-size:50px; font-weight:bold;""
                            >fearful</p>
                            <div style=""width:240px; margin: auto;"">
                                <img src=""images/map23_BuGn_scaleDef_orientMir_270.png"" style= ""width:200px""alt=""img"">
                            </div>
                        </div>","-100","","0","","","","images/map23_BuGn_scaleDef_orientMir_270.png","fearful","1","23","23","BuGn","orientMir","scaleDef","270","",""
"","","","","","html-slider-response","80","9858501","0.0-76.0","aquaj5848n","21","NaN","<div style=""width:500px;"">
                            <p style=""font-size:50px; font-weight:bold;""
                            >fearful</p>
                            <div style=""width:240px; margin: auto;"">
                                <img src=""images/map12_Oranges_scaleDef_orientMir_270.png"" style= ""width:200px""alt=""img"">
                            </div>
                        </div>","-150","","0","","","","images/map12_Oranges_scaleDef_orientMir_270.png","fearful","1","12","12","Oranges","orientMir","scaleDef","270","",""
"","","","","","html-slider-response","81","9860534","0.0-77.0","aquaj5848n","21","NaN","<div style=""width:500px;"">
                            <p style=""font-size:50px; font-weight:bold;""
                            >fearful</p>
                            <div style=""width:240px; margin: auto;"">
                                <img src=""images/map26_BrBG_scaleDef_orientMir_270.png"" style= ""width:200px""alt=""img"">
                            </div>
                        </div>","137","","0","","","","images/map26_BrBG_scaleDef_orientMir_270.png","fearful","1","26","26","BrBG","orientMir","scaleDef","270","",""
"","","","","","html-slider-response","82","9862135","0.0-78.0","aquaj5848n","21","NaN","<div style=""width:500px;"">
                            <p style=""font-size:50px; font-weight:bold;""
                            >fearful</p>
                            <div style=""width:240px; margin: auto;"">
                                <img src=""images/map02_bwr_scaleDef_orientMir_270.png"" style= ""width:200px""alt=""img"">
                            </div>
                        </div>","98","","0","","","","images/map02_bwr_scaleDef_orientMir_270.png","fearful","1","02","02","bwr","orientMir","scaleDef","270","",""
"","","","","","html-slider-response","83","9864402","0.0-79.0","aquaj5848n","21","NaN","<div style=""width:500px;"">
                            <p style=""font-size:50px; font-weight:bold;""
                            >fearful</p>
                            <div style=""width:240px; margin: auto;"">
                                <img src=""images/map13_OrRd_scaleDef_orientMir_270.png"" style= ""width:200px""alt=""img"">
                            </div>
                        </div>","81","","0","","","","images/map13_OrRd_scaleDef_orientMir_270.png","fearful","1","13","13","OrRd","orientMir","scaleDef","270","",""
"","","","","","html-slider-response","84","9866452","0.0-80.0","aquaj5848n","21","NaN","<div style=""width:500px;"">
                            <p style=""font-size:50px; font-weight:bold;""
                            >fearful</p>
                            <div style=""width:240px; margin: auto;"">
                                <img src=""images/map27_PuOr_scaleDef_orientDef_090.png"" style= ""width:200px""alt=""img"">
                            </div>
                        </div>","166","","0","","","","images/map27_PuOr_scaleDef_orientDef_090.png","fearful","1","27","27","PuOr","orientDef","scaleDef","090","",""
"","","","","","html-slider-response","85","9868902","0.0-81.0","aquaj5848n","21","NaN","<div style=""width:500px;"">
                            <p style=""font-size:50px; font-weight:bold;""
                            >fearful</p>
                            <div style=""width:240px; margin: auto;"">
                                <img src=""images/map07_gist_earth_scaleRev_orientDef_180.png"" style= ""width:200px""alt=""img"">
                            </div>
                        </div>","-200","","0","","","","images/map07_gist_earth_scaleRev_orientDef_180.png","fearful","1","07","07","gist","scaleRev","earth","orientDef","",""
"","","","","","html-slider-response","86","9870968","0.0-82.0","aquaj5848n","21","NaN","<div style=""width:500px;"">
                            <p style=""font-size:50px; font-weight:bold;""
                            >fearful</p>
                            <div style=""width:240px; margin: auto;"">
                                <img src=""images/map27_RdBu_scaleRev_orientMir_180.png"" style= ""width:200px""alt=""img"">
                            </div>
                        </div>","73","","0","","","","images/map27_RdBu_scaleRev_orientMir_180.png","fearful","1","27","27","RdBu","orientMir","scaleRev","180","",""
"","","","","","html-slider-response","87","9872935","0.0-83.0","aquaj5848n","21","NaN","<div style=""width:500px;"">
                            <p style=""font-size:50px; font-weight:bold;""
                            >fearful</p>
                            <div style=""width:240px; margin: auto;"">
                                <img src=""images/map23_PuBuGn_scaleRev_orientMir_180.png"" style= ""width:200px""alt=""img"">
                            </div>
                        </div>","-86","","0","","","","images/map23_PuBuGn_scaleRev_orientMir_180.png","fearful","1","23","23","PuBuGn","orientMir","scaleRev","180","",""
"","","","","","html-slider-response","88","9875835","0.0-84.0","aquaj5848n","21","NaN","<div style=""width:500px;"">
                            <p style=""font-size:50px; font-weight:bold;""
                            >fearful</p>
                            <div style=""width:240px; margin: auto;"">
                                <img src=""images/map05_seismic_scaleDef_orientDef_090.png"" style= ""width:200px""alt=""img"">
                            </div>
                        </div>","109","","0","","","","images/map05_seismic_scaleDef_orientDef_090.png","fearful","1","05","05","seismic","orientDef","scaleDef","090","",""
"","","","","","html-slider-response","89","9878218","0.0-85.0","aquaj5848n","21","NaN","<div style=""width:500px;"">
                            <p style=""font-size:50px; font-weight:bold;""
                            >fearful</p>
                            <div style=""width:240px; margin: auto;"">
                                <img src=""images/map15_PuRd_scaleDef_orientDef_090.png"" style= ""width:200px""alt=""img"">
                            </div>
                        </div>","-81","","0","","","","images/map15_PuRd_scaleDef_orientDef_090.png","fearful","1","15","15","PuRd","orientDef","scaleDef","090","",""
"","","","","","html-slider-response","90","9880919","0.0-86.0","aquaj5848n","21","NaN","<div style=""width:500px;"">
                            <p style=""font-size:50px; font-weight:bold;""
                            >fearful</p>
                            <div style=""width:240px; margin: auto;"">
                                <img src=""images/map12_Purples_scaleRev_orientDef_180.png"" style= ""width:200px""alt=""img"">
                            </div>
                        </div>","-3","","0","","","","images/map12_Purples_scaleRev_orientDef_180.png","fearful","1","12","12","Purples","orientDef","scaleRev","180","",""
"","","","","","html-slider-response","91","9884735","0.0-87.0","aquaj5848n","21","NaN","<div style=""width:500px;"">
                            <p style=""font-size:50px; font-weight:bold;""
                            >fearful</p>
                            <div style=""width:240px; margin: auto;"">
                                <img src=""images/map15_PuRd_scaleRev_orientDef_180.png"" style= ""width:200px""alt=""img"">
                            </div>
                        </div>","-171","","0","","","","images/map15_PuRd_scaleRev_orientDef_180.png","fearful","1","15","15","PuRd","orientDef","scaleRev","180","",""
"","","","","","html-slider-response","92","9887185","0.0-88.0","aquaj5848n","21","NaN","<div style=""width:500px;"">
                            <p style=""font-size:50px; font-weight:bold;""
                            >fearful</p>
                            <div style=""width:240px; margin: auto;"">
                                <img src=""images/map05_bwr_scaleRev_orientDef_000.png"" style= ""width:200px""alt=""img"">
                            </div>
                        </div>","161","","0","","","","images/map05_bwr_scaleRev_orientDef_000.png","fearful","1","05","05","bwr","orientDef","scaleRev","000","",""
"","","","","","html-slider-response","93","9889567","0.0-89.0","aquaj5848n","21","NaN","<div style=""width:500px;"">
                            <p style=""font-size:50px; font-weight:bold;""
                            >fearful</p>
                            <div style=""width:240px; margin: auto;"">
                                <img src=""images/map07_plasma_scaleDef_orientMir_270.png"" style= ""width:200px""alt=""img"">
                            </div>
                        </div>","200","","0","","","","images/map07_plasma_scaleDef_orientMir_270.png","fearful","1","07","07","plasma","orientMir","scaleDef","270","",""
"","","","","","html-slider-response","94","9892369","0.0-90.0","aquaj5848n","21","NaN","<div style=""width:500px;"">
                            <p style=""font-size:50px; font-weight:bold;""
                            >fearful</p>
                            <div style=""width:240px; margin: auto;"">
                                <img src=""images/map07_vanimo_scaleRev_orientDef_000.png"" style= ""width:200px""alt=""img"">
                            </div>
                        </div>","200","","0","","","","images/map07_vanimo_scaleRev_orientDef_000.png","fearful","1","07","07","vanimo","orientDef","scaleRev","000","",""
"","","","","","html-slider-response","95","9895169","0.0-91.0","aquaj5848n","21","NaN","<div style=""width:500px;"">
                            <p style=""font-size:50px; font-weight:bold;""
                            >fearful</p>
                            <div style=""width:240px; margin: auto;"">
                                <img src=""images/map12_Purples_scaleDef_orientDef_090.png"" style= ""width:200px""alt=""img"">
                            </div>
                        </div>","-165","","0","","","","images/map12_Purples_scaleDef_orientDef_090.png","fearful","1","12","12","Purples","orientDef","scaleDef","090","",""
"","","","","","html-slider-response","96","9897585","0.0-92.0","aquaj5848n","21","NaN","<div style=""width:500px;"">
                            <p style=""font-size:50px; font-weight:bold;""
                            >fearful</p>
                            <div style=""width:240px; margin: auto;"">
                                <img src=""images/map13_YlOrBr_scaleDef_orientDef_270.png"" style= ""width:200px""alt=""img"">
                            </div>
                        </div>","-54","","0","","","","images/map13_YlOrBr_scaleDef_orientDef_270.png","fearful","1","13","13","YlOrBr","orientDef","scaleDef","270","",""
"","","","","","html-slider-response","97","9900868","0.0-93.0","aquaj5848n","21","NaN","<div style=""width:500px;"">
                            <p style=""font-size:50px; font-weight:bold;""
                            >fearful</p>
                            <div style=""width:240px; margin: auto;"">
                                <img src=""images/map07_turbo_scaleDef_orientDef_270.png"" style= ""width:200px""alt=""img"">
                            </div>
                        </div>","-60","","0","","","","images/map07_turbo_scaleDef_orientDef_270.png","fearful","1","07","07","turbo","orientDef","scaleDef","270","",""
"","","","","","html-slider-response","98","9903868","0.0-94.0","aquaj5848n","21","NaN","<div style=""width:500px;"">
                            <p style=""font-size:50px; font-weight:bold;""
                            >fearful</p>
                            <div style=""width:240px; margin: auto;"">
                                <img src=""images/map23_YlGnBu_scaleRev_orientMir_000.png"" style= ""width:200px""alt=""img"">
                            </div>
                        </div>","-87","","0","","","","images/map23_YlGnBu_scaleRev_orientMir_000.png","fearful","1","23","23","YlGnBu","orientMir","scaleRev","000","",""
"","","","","","html-button-response","99","10090351","0.0-95.0","aquaj5848n","21","143646","<p>Great Job! You've finished block 1.<br></br> You have 4 block(s) left to go.<br></br></p>","0","","","","","","","","","","","","","","","",""
"","","","","","html-button-response","100","10094818","0.0-96.0","aquaj5848n","21","4466","<p>In this block of trials, you will be asked to rate how much you associate each map with:</p > <p style = 'font-size:150%; font-weight: bold'>sad</p><br></br>","0","","","","","","","","","","","","","","","",""
"","","","","","html-slider-response","101","10098212","0.0-97.0","aquaj5848n","21","NaN","<div style=""width:500px;"">
                            <p style=""font-size:50px; font-weight:bold;""
                            >sad</p>
                            <div style=""width:240px; margin: auto;"">
                                <img src=""images/map02_Spectral_scaleDef_orientDef_270.png"" style= ""width:200px""alt=""img"">
                            </div>
                        </div>","-200","","0","","","","images/map02_Spectral_scaleDef_orientDef_270.png","sad","1","02","02","Spectral","orientDef","scaleDef","270","",""
"","","","","","html-slider-response","102","10100745","0.0-98.0","aquaj5848n","21","NaN","<div style=""width:500px;"">
                            <p style=""font-size:50px; font-weight:bold;""
                            >sad</p>
                            <div style=""width:240px; margin: auto;"">
                                <img src=""images/map02_RdYlGn_scaleDef_orientDef_090.png"" style= ""width:200px""alt=""img"">
                            </div>
                        </div>","36","","0","","","","images/map02_RdYlGn_scaleDef_orientDef_090.png","sad","1","02","02","RdYlGn","orientDef","scaleDef","090","",""
"","","","","","html-slider-response","103","10103729","0.0-99.0","aquaj5848n","21","NaN","<div style=""width:500px;"">
                            <p style=""font-size:50px; font-weight:bold;""
                            >sad</p>
                            <div style=""width:240px; margin: auto;"">
                                <img src=""images/map23_GnBu_scaleRev_orientDef_000.png"" style= ""width:200px""alt=""img"">
                            </div>
                        </div>","200","","0","","","","images/map23_GnBu_scaleRev_orientDef_000.png","sad","1","23","23","GnBu","orientDef","scaleRev","000","",""
"","","","","","html-slider-response","104","10105695","0.0-100.0","aquaj5848n","21","NaN","<div style=""width:500px;"">
                            <p style=""font-size:50px; font-weight:bold;""
                            >sad</p>
                            <div style=""width:240px; margin: auto;"">
                                <img src=""images/map15_RdPu_scaleRev_orientMir_000.png"" style= ""width:200px""alt=""img"">
                            </div>
                        </div>","-200","","0","","","","images/map15_RdPu_scaleRev_orientMir_000.png","sad","1","15","15","RdPu","orientMir","scaleRev","000","",""
"","","","","","html-slider-response","105","10108412","0.0-101.0","aquaj5848n","21","NaN","<div style=""width:500px;"">
                            <p style=""font-size:50px; font-weight:bold;""
                            >sad</p>
                            <div style=""width:240px; margin: auto;"">
                                <img src=""images/map05_managua_scaleRev_orientMir_180.png"" style= ""width:200px""alt=""img"">
                            </div>
                        </div>","200","","0","","","","images/map05_managua_scaleRev_orientMir_180.png","sad","1","05","05","managua","orientMir","scaleRev","180","",""
"","","","","","html-slider-response","106","10113029","0.0-102.0","aquaj5848n","21","NaN","<div style=""width:500px;"">
                            <p style=""font-size:50px; font-weight:bold;""
                            >sad</p>
                            <div style=""width:240px; margin: auto;"">
                                <img src=""images/map10_inferno_scaleRev_orientDef_180.png"" style= ""width:200px""alt=""img"">
                            </div>
                        </div>","31","","0","","","","images/map10_inferno_scaleRev_orientDef_180.png","sad","1","10","10","inferno","orientDef","scaleRev","180","",""
"","","","","","html-slider-response","107","10118212","0.0-103.0","aquaj5848n","21","NaN","<div style=""width:500px;"">
                            <p style=""font-size:50px; font-weight:bold;""
                            >sad</p>
                            <div style=""width:240px; margin: auto;"">
                                <img src=""images/map07_gist_earth_scaleRev_orientDef_180.png"" style= ""width:200px""alt=""img"">
                            </div>
                        </div>","11","","0","","","","images/map07_gist_earth_scaleRev_orientDef_180.png","sad","1","07","07","gist","scaleRev","earth","orientDef","",""
"","","","","","html-slider-response","108","10121196","0.0-104.0","aquaj5848n","21","NaN","<div style=""width:500px;"">
                            <p style=""font-size:50px; font-weight:bold;""
                            >sad</p>
                            <div style=""width:240px; margin: auto;"">
                                <img src=""images/map05_seismic_scaleRev_orientDef_180.png"" style= ""width:200px""alt=""img"">
                            </div>
                        </div>","-71","","0","","","","images/map05_seismic_scaleRev_orientDef_180.png","sad","1","05","05","seismic","orientDef","scaleRev","180","",""
"","","","","","html-slider-response","109","10125213","0.0-105.0","aquaj5848n","21","NaN","<div style=""width:500px;"">
                            <p style=""font-size:50px; font-weight:bold;""
                            >sad</p>
                            <div style=""width:240px; margin: auto;"">
                                <img src=""images/map27_RdGy_scaleDef_orientDef_270.png"" style= ""width:200px""alt=""img"">
                            </div>
                        </div>","132","","0","","","","images/map27_RdGy_scaleDef_orientDef_270.png","sad","1","27","27","RdGy","orientDef","scaleDef","270","",""
"","","","","","html-slider-response","110","10127313","0.0-106.0","aquaj5848n","21","NaN","<div style=""width:500px;"">
                            <p style=""font-size:50px; font-weight:bold;""
                            >sad</p>
                            <div style=""width:240px; margin: auto;"">
                                <img src=""images/map10_cividis_scaleDef_orientMir_090.png"" style= ""width:200px""alt=""img"">
                            </div>
                        </div>","200","","0","","","","images/map10_cividis_scaleDef_orientMir_090.png","sad","1","10","10","cividis","orientMir","scaleDef","090","",""
"","","","","","html-slider-response","111","10129962","0.0-107.0","aquaj5848n","21","NaN","<div style=""width:500px;"">
                            <p style=""font-size:50px; font-weight:bold;""
                            >sad</p>
                            <div style=""width:240px; margin: auto;"">
                                <img src=""images/map07_turbo_scaleRev_orientMir_000.png"" style= ""width:200px""alt=""img"">
                            </div>
                        </div>","-200","","0","","","","images/map07_turbo_scaleRev_orientMir_000.png","sad","1","07","07","turbo","orientMir","scaleRev","000","",""
"","","","","","html-slider-response","112","10133029","0.0-108.0","aquaj5848n","21","NaN","<div style=""width:500px;"">
                            <p style=""font-size:50px; font-weight:bold;""
                            >sad</p>
                            <div style=""width:240px; margin: auto;"">
                                <img src=""images/map12_Oranges_scaleDef_orientMir_270.png"" style= ""width:200px""alt=""img"">
                            </div>
                        </div>","-99","","0","","","","images/map12_Oranges_scaleDef_orientMir_270.png","sad","1","12","12","Oranges","orientMir","scaleDef","270","",""
"","","","","","html-slider-response","113","10135079","0.0-109.0","aquaj5848n","21","NaN","<div style=""width:500px;"">
                            <p style=""font-size:50px; font-weight:bold;""
                            >sad</p>
                            <div style=""width:240px; margin: auto;"">
                                <img src=""images/map05_seismic_scaleDef_orientDef_090.png"" style= ""width:200px""alt=""img"">
                            </div>
                        </div>","44","","0","","","","images/map05_seismic_scaleDef_orientDef_090.png","sad","1","05","05","seismic","orientDef","scaleDef","090","",""
"","","","","","html-slider-response","114","10137795","0.0-110.0","aquaj5848n","21","NaN","<div style=""width:500px;"">
                            <p style=""font-size:50px; font-weight:bold;""
                            >sad</p>
                            <div style=""width:240px; margin: auto;"">
                                <img src=""images/map02_coolwarm_scaleRev_orientMir_180.png"" style= ""width:200px""alt=""img"">
                            </div>
                        </div>","77","","0","","","","images/map02_coolwarm_scaleRev_orientMir_180.png","sad","1","02","02","coolwarm","orientMir","scaleRev","180","",""
"","","","","","html-slider-response","115","10140329","0.0-111.0","aquaj5848n","21","NaN","<div style=""width:500px;"">
                            <p style=""font-size:50px; font-weight:bold;""
                            >sad</p>
                            <div style=""width:240px; margin: auto;"">
                                <img src=""images/map05_managua_scaleDef_orientMir_090.png"" style= ""width:200px""alt=""img"">
                            </div>
                        </div>","144","","0","","","","images/map05_managua_scaleDef_orientMir_090.png","sad","1","05","05","managua","orientMir","scaleDef","090","",""
"","","","","","html-slider-response","116","10142563","0.0-112.0","aquaj5848n","21","NaN","<div style=""width:500px;"">
                            <p style=""font-size:50px; font-weight:bold;""
                            >sad</p>
                            <div style=""width:240px; margin: auto;"">
                                <img src=""images/map13_OrRd_scaleDef_orientMir_270.png"" style= ""width:200px""alt=""img"">
                            </div>
                        </div>","-108","","0","","","","images/map13_OrRd_scaleDef_orientMir_270.png","sad","1","13","13","OrRd","orientMir","scaleDef","270","",""
"","","","","","html-slider-response","117","10144813","0.0-113.0","aquaj5848n","21","NaN","<div style=""width:500px;"">
                            <p style=""font-size:50px; font-weight:bold;""
                            >sad</p>
                            <div style=""width:240px; margin: auto;"">
                                <img src=""images/map15_GnBu_scaleDef_orientMir_270.png"" style= ""width:200px""alt=""img"">
                            </div>
                        </div>","151","","0","","","","images/map15_GnBu_scaleDef_orientMir_270.png","sad","1","15","15","GnBu","orientMir","scaleDef","270","",""
"","","","","","html-slider-response","118","10147879","0.0-114.0","aquaj5848n","21","NaN","<div style=""width:500px;"">
                            <p style=""font-size:50px; font-weight:bold;""
                            >sad</p>
                            <div style=""width:240px; margin: auto;"">
                                <img src=""images/map13_Reds_scaleDef_orientDef_090.png"" style= ""width:200px""alt=""img"">
                            </div>
                        </div>","-56","","0","","","","images/map13_Reds_scaleDef_orientDef_090.png","sad","1","13","13","Reds","orientDef","scaleDef","090","",""
"","","","","","html-slider-response","119","10153845","0.0-115.0","aquaj5848n","21","NaN","<div style=""width:500px;"">
                            <p style=""font-size:50px; font-weight:bold;""
                            >sad</p>
                            <div style=""width:240px; margin: auto;"">
                                <img src=""images/map12_Purples_scaleRev_orientDef_180.png"" style= ""width:200px""alt=""img"">
                            </div>
                        </div>","200","","0","","","","images/map12_Purples_scaleRev_orientDef_180.png","sad","1","12","12","Purples","orientDef","scaleRev","180","",""
"","","","","","html-slider-response","120","10156080","0.0-116.0","aquaj5848n","21","NaN","<div style=""width:500px;"">
                            <p style=""font-size:50px; font-weight:bold;""
                            >sad</p>
                            <div style=""width:240px; margin: auto;"">
                                <img src=""images/map27_BrBG_scaleRev_orientDef_000.png"" style= ""width:200px""alt=""img"">
                            </div>
                        </div>","106","","0","","","","images/map27_BrBG_scaleRev_orientDef_000.png","sad","1","27","27","BrBG","orientDef","scaleRev","000","",""
"","","","","","html-slider-response","121","10158147","0.0-117.0","aquaj5848n","21","NaN","<div style=""width:500px;"">
                            <p style=""font-size:50px; font-weight:bold;""
                            >sad</p>
                            <div style=""width:240px; margin: auto;"">
                                <img src=""images/map13_YlOrRd_scaleDef_orientMir_090.png"" style= ""width:200px""alt=""img"">
                            </div>
                        </div>","-139","","0","","","","images/map13_YlOrRd_scaleDef_orientMir_090.png","sad","1","13","13","YlOrRd","orientMir","scaleDef","090","",""
"","","","","","html-slider-response","122","10160863","0.0-118.0","aquaj5848n","21","NaN","<div style=""width:500px;"">
                            <p style=""font-size:50px; font-weight:bold;""
                            >sad</p>
                            <div style=""width:240px; margin: auto;"">
                                <img src=""images/map23_PuBuGn_scaleRev_orientMir_180.png"" style= ""width:200px""alt=""img"">
                            </div>
                        </div>","200","","0","","","","images/map23_PuBuGn_scaleRev_orientMir_180.png","sad","1","23","23","PuBuGn","orientMir","scaleRev","180","",""
"","","","","","html-slider-response","123","10163580","0.0-119.0","aquaj5848n","21","NaN","<div style=""width:500px;"">
                            <p style=""font-size:50px; font-weight:bold;""
                            >sad</p>
                            <div style=""width:240px; margin: auto;"">
                                <img src=""images/map10_Greys_scaleDef_orientMir_270.png"" style= ""width:200px""alt=""img"">
                            </div>
                        </div>","200","","0","","","","images/map10_Greys_scaleDef_orientMir_270.png","sad","1","10","10","Greys","orientMir","scaleDef","270","",""
"","","","","","html-slider-response","124","10167280","0.0-120.0","aquaj5848n","21","NaN","<div style=""width:500px;"">
                            <p style=""font-size:50px; font-weight:bold;""
                            >sad</p>
                            <div style=""width:240px; margin: auto;"">
                                <img src=""images/map07_gist_earth_scaleDef_orientDef_090.png"" style= ""width:200px""alt=""img"">
                            </div>
                        </div>","-36","","0","","","","images/map07_gist_earth_scaleDef_orientDef_090.png","sad","1","07","07","gist","scaleDef","earth","orientDef","",""
"","","","","","html-slider-response","125","10169113","0.0-121.0","aquaj5848n","21","NaN","<div style=""width:500px;"">
                            <p style=""font-size:50px; font-weight:bold;""
                            >sad</p>
                            <div style=""width:240px; margin: auto;"">
                                <img src=""images/map26_BrBG_scaleDef_orientMir_270.png"" style= ""width:200px""alt=""img"">
                            </div>
                        </div>","54","","0","","","","images/map26_BrBG_scaleDef_orientMir_270.png","sad","1","26","26","BrBG","orientMir","scaleDef","270","",""
"","","","","","html-slider-response","126","10173480","0.0-122.0","aquaj5848n","21","NaN","<div style=""width:500px;"">
                            <p style=""font-size:50px; font-weight:bold;""
                            >sad</p>
                            <div style=""width:240px; margin: auto;"">
                                <img src=""images/map23_YlGnBu_scaleRev_orientMir_000.png"" style= ""width:200px""alt=""img"">
                            </div>
                        </div>","21","","0","","","","images/map23_YlGnBu_scaleRev_orientMir_000.png","sad","1","23","23","YlGnBu","orientMir","scaleRev","000","",""
"","","","","","html-slider-response","127","10175396","0.0-123.0","aquaj5848n","21","NaN","<div style=""width:500px;"">
                            <p style=""font-size:50px; font-weight:bold;""
                            >sad</p>
                            <div style=""width:240px; margin: auto;"">
                                <img src=""images/map26_YlGn_scaleRev_orientDef_180.png"" style= ""width:200px""alt=""img"">
                            </div>
                        </div>","-111","","0","","","","images/map26_YlGn_scaleRev_orientDef_180.png","sad","1","26","26","YlGn","orientDef","scaleRev","180","",""
"","","","","","html-slider-response","128","10177062","0.0-124.0","aquaj5848n","21","NaN","<div style=""width:500px;"">
                            <p style=""font-size:50px; font-weight:bold;""
                            >sad</p>
                            <div style=""width:240px; margin: auto;"">
                                <img src=""images/map15_PuRd_scaleRev_orientDef_180.png"" style= ""width:200px""alt=""img"">
                            </div>
                        </div>","-200","","0","","","","images/map15_PuRd_scaleRev_orientDef_180.png","sad","1","15","15","PuRd","orientDef","scaleRev","180","",""
"","","","","","html-slider-response","129","10178829","0.0-125.0","aquaj5848n","21","NaN","<div style=""width:500px;"">
                            <p style=""font-size:50px; font-weight:bold;""
                            >sad</p>
                            <div style=""width:240px; margin: auto;"">
                                <img src=""images/map07_plasma_scaleDef_orientMir_270.png"" style= ""width:200px""alt=""img"">
                            </div>
                        </div>","-200","","0","","","","images/map07_plasma_scaleDef_orientMir_270.png","sad","1","07","07","plasma","orientMir","scaleDef","270","",""
"","","","","","html-slider-response","130","10181280","0.0-126.0","aquaj5848n","21","NaN","<div style=""width:500px;"">
                            <p style=""font-size:50px; font-weight:bold;""
                            >sad</p>
                            <div style=""width:240px; margin: auto;"">
                                <img src=""images/map26_PRGn_scaleDef_orientMir_090.png"" style= ""width:200px""alt=""img"">
                            </div>
                        </div>","68","","0","","","","images/map26_PRGn_scaleDef_orientMir_090.png","sad","1","26","26","PRGn","orientMir","scaleDef","090","",""
"","","","","","html-slider-response","131","10183080","0.0-127.0","aquaj5848n","21","NaN","<div style=""width:500px;"">
                            <p style=""font-size:50px; font-weight:bold;""
                            >sad</p>
                            <div style=""width:240px; margin: auto;"">
                                <img src=""images/map23_BuGn_scaleDef_orientMir_270.png"" style= ""width:200px""alt=""img"">
                            </div>
                        </div>","38","","0","","","","images/map23_BuGn_scaleDef_orientMir_270.png","sad","1","23","23","BuGn","orientMir","scaleDef","270","",""
"","","","","","html-slider-response","132","10185230","0.0-128.0","aquaj5848n","21","NaN","<div style=""width:500px;"">
                            <p style=""font-size:50px; font-weight:bold;""
                            >sad</p>
                            <div style=""width:240px; margin: auto;"">
                                <img src=""images/map02_Spectral_scaleRev_orientMir_000.png"" style= ""width:200px""alt=""img"">
                            </div>
                        </div>","-79","","0","","","","images/map02_Spectral_scaleRev_orientMir_000.png","sad","1","02","02","Spectral","orientMir","scaleRev","000","",""
"","","","","","html-slider-response","133","10187680","0.0-129.0","aquaj5848n","21","NaN","<div style=""width:500px;"">
                            <p style=""font-size:50px; font-weight:bold;""
                            >sad</p>
                            <div style=""width:240px; margin: auto;"">
                                <img src=""images/map13_YlOrRd_scaleRev_orientMir_180.png"" style= ""width:200px""alt=""img"">
                            </div>
                        </div>","-71","","0","","","","images/map13_YlOrRd_scaleRev_orientMir_180.png","sad","1","13","13","YlOrRd","orientMir","scaleRev","180","",""
"","","","","","html-slider-response","134","10189597","0.0-130.0","aquaj5848n","21","NaN","<div style=""width:500px;"">
                            <p style=""font-size:50px; font-weight:bold;""
                            >sad</p>
                            <div style=""width:240px; margin: auto;"">
                                <img src=""images/map13_YlOrBr_scaleDef_orientDef_270.png"" style= ""width:200px""alt=""img"">
                            </div>
                        </div>","-53","","0","","","","images/map13_YlOrBr_scaleDef_orientDef_270.png","sad","1","13","13","YlOrBr","orientDef","scaleDef","270","",""
"","","","","","html-slider-response","135","10193897","0.0-131.0","aquaj5848n","21","NaN","<div style=""width:500px;"">
                            <p style=""font-size:50px; font-weight:bold;""
                            >sad</p>
                            <div style=""width:240px; margin: auto;"">
                                <img src=""images/map10_inferno_scaleDef_orientDef_090.png"" style= ""width:200px""alt=""img"">
                            </div>
                        </div>","38","","0","","","","images/map10_inferno_scaleDef_orientDef_090.png","sad","1","10","10","inferno","orientDef","scaleDef","090","",""
"","","","","","html-slider-response","136","10195697","0.0-132.0","aquaj5848n","21","NaN","<div style=""width:500px;"">
                            <p style=""font-size:50px; font-weight:bold;""
                            >sad</p>
                            <div style=""width:240px; margin: auto;"">
                                <img src=""images/map12_Greens_scaleDef_orientMir_090.png"" style= ""width:200px""alt=""img"">
                            </div>
                        </div>","-52","","0","","","","images/map12_Greens_scaleDef_orientMir_090.png","sad","1","12","12","Greens","orientMir","scaleDef","090","",""
"","","","","","html-slider-response","137","10198213","0.0-133.0","aquaj5848n","21","NaN","<div style=""width:500px;"">
                            <p style=""font-size:50px; font-weight:bold;""
                            >sad</p>
                            <div style=""width:240px; margin: auto;"">
                                <img src=""images/map26_PiYG_scaleDef_orientDef_270.png"" style= ""width:200px""alt=""img"">
                            </div>
                        </div>","-57","","0","","","","images/map26_PiYG_scaleDef_orientDef_270.png","sad","1","26","26","PiYG","orientDef","scaleDef","270","",""
"","","","","","html-slider-response","138","11178974","0.0-134.0","aquaj5848n","21","NaN","<div style=""width:500px;"">
                            <p style=""font-size:50px; font-weight:bold;""
                            >sad</p>
                            <div style=""width:240px; margin: auto;"">
                                <img src=""images/map23_PuBuGn_scaleDef_orientMir_090.png"" style= ""width:200px""alt=""img"">
                            </div>
                        </div>","151","","0","","","","images/map23_PuBuGn_scaleDef_orientMir_090.png","sad","1","23","23","PuBuGn","orientMir","scaleDef","090","",""
"","","","","","html-slider-response","139","11181658","0.0-135.0","aquaj5848n","21","NaN","<div style=""width:500px;"">
                            <p style=""font-size:50px; font-weight:bold;""
                            >sad</p>
                            <div style=""width:240px; margin: auto;"">
                                <img src=""images/map15_BuPu_scaleRev_orientMir_180.png"" style= ""width:200px""alt=""img"">
                            </div>
                        </div>","64","","0","","","","images/map15_BuPu_scaleRev_orientMir_180.png","sad","1","15","15","BuPu","orientMir","scaleRev","180","",""
"","","","","","html-slider-response","140","11183924","0.0-136.0","aquaj5848n","21","NaN","<div style=""width:500px;"">
                            <p style=""font-size:50px; font-weight:bold;""
                            >sad</p>
                            <div style=""width:240px; margin: auto;"">
                                <img src=""images/map27_RdGy_scaleRev_orientMir_000.png"" style= ""width:200px""alt=""img"">
                            </div>
                        </div>","-34","","0","","","","images/map27_RdGy_scaleRev_orientMir_000.png","sad","1","27","27","RdGy","orientMir","scaleRev","000","",""
"","","","","","html-button-response","141","11187230","0.0-137.0","aquaj5848n","21","2805","<p>You are doing great!<br></br> You are halway done with the current block. When you are ready to continue, click the 'Continue' button.</p>","0","","","","","","","","","","","","","","","",""
"","","","","","html-slider-response","142","11190091","0.0-138.0","aquaj5848n","21","NaN","<div style=""width:500px;"">
                            <p style=""font-size:50px; font-weight:bold;""
                            >sad</p>
                            <div style=""width:240px; margin: auto;"">
                                <img src=""images/map10_cividis_scaleRev_orientMir_180.png"" style= ""width:200px""alt=""img"">
                            </div>
                        </div>","200","","0","","","","images/map10_cividis_scaleRev_orientMir_180.png","sad","1","10","10","cividis","orientMir","scaleRev","180","",""
"","","","","","html-slider-response","143","11193325","0.0-139.0","aquaj5848n","21","NaN","<div style=""width:500px;"">
                            <p style=""font-size:50px; font-weight:bold;""
                            >sad</p>
                            <div style=""width:240px; margin: auto;"">
                                <img src=""images/map26_BuGn_scaleRev_orientDef_000.png"" style= ""width:200px""alt=""img"">
                            </div>
                        </div>","-70","","0","","","","images/map26_BuGn_scaleRev_orientDef_000.png","sad","1","26","26","BuGn","orientDef","scaleRev","000","",""
"","","","","","html-slider-response","144","11205124","0.0-140.0","aquaj5848n","21","NaN","<div style=""width:500px;"">
                            <p style=""font-size:50px; font-weight:bold;""
                            >sad</p>
                            <div style=""width:240px; margin: auto;"">
                                <img src=""images/map12_Purples_scaleDef_orientDef_090.png"" style= ""width:200px""alt=""img"">
                            </div>
                        </div>","109","","0","","","","images/map12_Purples_scaleDef_orientDef_090.png","sad","1","12","12","Purples","orientDef","scaleDef","090","",""
"","","","","","html-slider-response","145","11228974","0.0-141.0","aquaj5848n","21","NaN","<div style=""width:500px;"">
                            <p style=""font-size:50px; font-weight:bold;""
                            >sad</p>
                            <div style=""width:240px; margin: auto;"">
                                <img src=""images/map05_bwr_scaleRev_orientDef_000.png"" style= ""width:200px""alt=""img"">
                            </div>
                        </div>","-113","","0","","","","images/map05_bwr_scaleRev_orientDef_000.png","sad","1","05","05","bwr","orientDef","scaleRev","000","",""
"","","","","","html-slider-response","146","11231207","0.0-142.0","aquaj5848n","21","NaN","<div style=""width:500px;"">
                            <p style=""font-size:50px; font-weight:bold;""
                            >sad</p>
                            <div style=""width:240px; margin: auto;"">
                                <img src=""images/map02_RdYlGn_scaleRev_orientDef_180.png"" style= ""width:200px""alt=""img"">
                            </div>
                        </div>","-70","","0","","","","images/map02_RdYlGn_scaleRev_orientDef_180.png","sad","1","02","02","RdYlGn","orientDef","scaleRev","180","",""
"","","","","","html-slider-response","147","11233208","0.0-143.0","aquaj5848n","21","NaN","<div style=""width:500px;"">
                            <p style=""font-size:50px; font-weight:bold;""
                            >sad</p>
                            <div style=""width:240px; margin: auto;"">
                                <img src=""images/map27_PuOr_scaleDef_orientDef_090.png"" style= ""width:200px""alt=""img"">
                            </div>
                        </div>","105","","0","","","","images/map27_PuOr_scaleDef_orientDef_090.png","sad","1","27","27","PuOr","orientDef","scaleDef","090","",""
"","","","","","html-slider-response","148","11236224","0.0-144.0","aquaj5848n","21","NaN","<div style=""width:500px;"">
                            <p style=""font-size:50px; font-weight:bold;""
                            >sad</p>
                            <div style=""width:240px; margin: auto;"">
                                <img src=""images/map12_Greens_scaleRev_orientMir_180.png"" style= ""width:200px""alt=""img"">
                            </div>
                        </div>","-131","","0","","","","images/map12_Greens_scaleRev_orientMir_180.png","sad","1","12","12","Greens","orientMir","scaleRev","180","",""
"","","","","","html-slider-response","149","11239275","0.0-145.0","aquaj5848n","21","NaN","<div style=""width:500px;"">
                            <p style=""font-size:50px; font-weight:bold;""
                            >sad</p>
                            <div style=""width:240px; margin: auto;"">
                                <img src=""images/map05_vanimo_scaleDef_orientMir_270.png"" style= ""width:200px""alt=""img"">
                            </div>
                        </div>","112","","0","","","","images/map05_vanimo_scaleDef_orientMir_270.png","sad","1","05","05","vanimo","orientMir","scaleDef","270","",""
"","","","","","html-slider-response","150","11242125","0.0-146.0","aquaj5848n","21","NaN","<div style=""width:500px;"">
                            <p style=""font-size:50px; font-weight:bold;""
                            >sad</p>
                            <div style=""width:240px; margin: auto;"">
                                <img src=""images/map07_turbo_scaleDef_orientDef_270.png"" style= ""width:200px""alt=""img"">
                            </div>
                        </div>","-200","","0","","","","images/map07_turbo_scaleDef_orientDef_270.png","sad","1","07","07","turbo","orientDef","scaleDef","270","",""
"","","","","","html-slider-response","151","11246692","0.0-147.0","aquaj5848n","21","NaN","<div style=""width:500px;"">
                            <p style=""font-size:50px; font-weight:bold;""
                            >sad</p>
                            <div style=""width:240px; margin: auto;"">
                                <img src=""images/map02_coolwarm_scaleDef_orientMir_090.png"" style= ""width:200px""alt=""img"">
                            </div>
                        </div>","2","","0","","","","images/map02_coolwarm_scaleDef_orientMir_090.png","sad","1","02","02","coolwarm","orientMir","scaleDef","090","",""
"","","","","","html-slider-response","152","11249109","0.0-148.0","aquaj5848n","21","NaN","<div style=""width:500px;"">
                            <p style=""font-size:50px; font-weight:bold;""
                            >sad</p>
                            <div style=""width:240px; margin: auto;"">
                                <img src=""images/map15_OrRd_scaleRev_orientDef_000.png"" style= ""width:200px""alt=""img"">
                            </div>
                        </div>","-76","","0","","","","images/map15_OrRd_scaleRev_orientDef_000.png","sad","1","15","15","OrRd","orientDef","scaleRev","000","",""
"","","","","","html-slider-response","153","11251009","0.0-149.0","aquaj5848n","21","NaN","<div style=""width:500px;"">
                            <p style=""font-size:50px; font-weight:bold;""
                            >sad</p>
                            <div style=""width:240px; margin: auto;"">
                                <img src=""images/map23_PuBu_scaleDef_orientDef_090.png"" style= ""width:200px""alt=""img"">
                            </div>
                        </div>","200","","0","","","","images/map23_PuBu_scaleDef_orientDef_090.png","sad","1","23","23","PuBu","orientDef","scaleDef","090","",""
"","","","","","html-slider-response","154","11253025","0.0-150.0","aquaj5848n","21","NaN","<div style=""width:500px;"">
                            <p style=""font-size:50px; font-weight:bold;""
                            >sad</p>
                            <div style=""width:240px; margin: auto;"">
                                <img src=""images/map10_magma_scaleRev_orientMir_000.png"" style= ""width:200px""alt=""img"">
                            </div>
                        </div>","89","","0","","","","images/map10_magma_scaleRev_orientMir_000.png","sad","1","10","10","magma","orientMir","scaleRev","000","",""
"","","","","","html-slider-response","155","11255842","0.0-151.0","aquaj5848n","21","NaN","<div style=""width:500px;"">
                            <p style=""font-size:50px; font-weight:bold;""
                            >sad</p>
                            <div style=""width:240px; margin: auto;"">
                                <img src=""images/map15_BuPu_scaleDef_orientMir_090.png"" style= ""width:200px""alt=""img"">
                            </div>
                        </div>","172","","0","","","","images/map15_BuPu_scaleDef_orientMir_090.png","sad","1","15","15","BuPu","orientMir","scaleDef","090","",""
"","","","","","html-slider-response","156","11258242","0.0-152.0","aquaj5848n","21","NaN","<div style=""width:500px;"">
                            <p style=""font-size:50px; font-weight:bold;""
                            >sad</p>
                            <div style=""width:240px; margin: auto;"">
                                <img src=""images/map02_bwr_scaleDef_orientMir_270.png"" style= ""width:200px""alt=""img"">
                            </div>
                        </div>","-30","","0","","","","images/map02_bwr_scaleDef_orientMir_270.png","sad","1","02","02","bwr","orientMir","scaleDef","270","",""
"","","","","","html-slider-response","157","11261325","0.0-153.0","aquaj5848n","21","NaN","<div style=""width:500px;"">
                            <p style=""font-size:50px; font-weight:bold;""
                            >sad</p>
                            <div style=""width:240px; margin: auto;"">
