"success","timeout","failed_images","failed_audio","failed_video","trial_type","trial_index","time_elapsed","internal_node_id","subject_id","condition_num","rt","stimulus","response","question_order","slider_start","practiceTrial","practiceTrialNum","correct","image_path","concept","repetition","map_id","map_num","scale_name","orientation_code","mapping_code","rotation_code","ishihara_plate","correct_response"
"true","false","[]","[]","[]","preload","0","1461","0.0-0.0","bdbrp513r3","10","","","","","","","","","","","","","","","","","","",""
"","","","","","html-button-response","1","73519","0.0-1.0","bdbrp513r3","10","72057","Welcome to our experiment!<p>At the bottom of this screen, you will see a button that says ""Begin Experiment"".<br>Please only click that button when you are ready to complete the 30 minute experiment in one sitting.</p><p> Once you click that button, it will not be possible to restart the experiment.","0","","","","","","","","","","","","","","","",""
"true","","","","","fullscreen","2","76284","0.0-2.0","bdbrp513r3","10","1762","","","","","","","","","","","","","","","","","",""
"","","","","","survey-multi-select","3","118786","0.0-3.0","bdbrp513r3","10","42498","","{""Consent"":[""<strong>I consent</strong>""]}","[0]","","","","","","","","","","","","","","",""
"","","","","","html-button-response","4","122783","0.0-4.0","bdbrp513r3","10","3995","Welcome! <p> This experiment involves two parts: demographic information, followed by the experimental task.<p> It will take about 30 minutes to complete both parts.","0","","","","","","","","","","","","","","","",""
"","","","","","survey-text","5","133902","0.0-5.0","bdbrp513r3","10","11102","","{""Age"":""20"",""Gender"":""Female "",""Race/ethnicity"":""White"",""Languages"":""English ""}","","","","","","","","","","","","","","","",""
"","","","","","html-slider-response","6","188782","0.0-6.0","bdbrp513r3","10","54877","<div style='text-align:left; font-size:20px; line-height:25px; width: 1000px;'>
                                During this experiment you will be asked to rate how much you associate maps with                    different concepts.<br> Below, you can see some examples of the maps you will be asked to rate. Above the maps
                    is the list of concepts.<br>You will be asked                    to rate how much you associate each map with each concept on a scale from 'not at all' to 'very much' like the
                    one below. <br><br>
                    Now, please look at the list of concepts and maps. For each concept, think about the map you associate 'very
                    much' with the concept.<br>                     When you see that map during the experiment, please rate it near the 'very much' endpoint of the
                    scale.<br>Now, please think about which map you associate 'not at all'                     with each concept. When you see that map during the experiment, please rate it near the 'not at all' endpoint
                    of the scale.<br>
                    Please use the full range of the scale. That is, if a map is somewhat associated with the concept, you would
                    click partway between the middle point and right side of the scale.                    You will be asked to rate each map for a given concept before moving on to the next concept.<br>Press the
                    'Continue' button for instructions on how to use the slider.                    <br>
                </div>

                <div style=""width: 500px; margin: 0 auto;"">
                    <!-- Centered text paragraphs -->
                    <div style=""text-align: center; width: 500px;"">
                        <p style=""font-size:25px; line-height:15px;"">
                            fearful&nbsp;&nbsp;&nbsp;&nbsp;
                            sad&nbsp;&nbsp;&nbsp;&nbsp;
                            happy&nbsp;&nbsp;&nbsp;&nbsp;
                            disgust&nbsp;&nbsp;&nbsp;&nbsp;
                            angry
                        </p>
                        <!-- <p style=""font-size:20px; line-height:15px;"">sad</p>
                        <p style=""font-size:20px;line-height:15px;"">happy</p>
                        <p style=""font-size:20px;line-height:15px;"">disgust</p>
                        <p style=""font-size:20px;line-height:15px;"">angry</p> -->
                    </div>
            

                    <!-- Grid section -->
                   <div style=""display: flex; justify-content: center; padding-top: 15px;"">
                    <div style=""display: grid; grid-template-columns: repeat(10, 55px); grid-gap: 5px; width: auto;"">
                        <img src=""images/map05_viridis_scaleRev_orientDef_270.png"" alt=""map"" style=""width: 100%;""><img src=""images/map13_GnBu_scaleRev_orientMir_090.png"" alt=""map"" style=""width: 100%;""><img src=""images/map13_RdPu_scaleRev_orientDef_090.png"" alt=""map"" style=""width: 100%;""><img src=""images/map15_YlGnBu_scaleDef_orientDef_000.png"" alt=""map"" style=""width: 100%;""><img src=""images/map10_Blues_scaleDef_orientDef_000.png"" alt=""map"" style=""width: 100%;""><img src=""images/map26_RdBu_scaleDef_orientDef_180.png"" alt=""map"" style=""width: 100%;""><img src=""images/map07_Greys_scaleRev_orientMir_090.png"" alt=""map"" style=""width: 100%;""><img src=""images/map05_inferno_scaleRev_orientMir_270.png"" alt=""map"" style=""width: 100%;""><img src=""images/map26_RdYlBu_scaleRev_orientMir_090.png"" alt=""map"" style=""width: 100%;""><img src=""images/map05_plasma_scaleRev_orientMir_090.png"" alt=""map"" style=""width: 100%;""><img src=""images/map10_Greens_scaleRev_orientDef_270.png"" alt=""map"" style=""width: 100%;""><img src=""images/map27_seismic_scaleRev_orientMir_270.png"" alt=""map"" style=""width: 100%;""><img src=""images/map27_Spectral_scaleRev_orientDef_090.png"" alt=""map"" style=""width: 100%;""><img src=""images/map23_BrBG_scaleRev_orientMir_090.png"" alt=""map"" style=""width: 100%;""><img src=""images/map12_YlOrRd_scaleDef_orientDef_180.png"" alt=""map"" style=""width: 100%;""><img src=""images/map10_Oranges_scaleRev_orientMir_090.png"" alt=""map"" style=""width: 100%;""><img src=""images/map23_PuOr_scaleRev_orientMir_270.png"" alt=""map"" style=""width: 100%;""><img src=""images/map12_YlOrBr_scaleRev_orientDef_090.png"" alt=""map"" style=""width: 100%;""><img src=""images/map07_Purples_scaleDef_orientMir_180.png"" alt=""map"" style=""width: 100%;""><img src=""images/map13_PuBu_scaleDef_orientMir_180.png"" alt=""map"" style=""width: 100%;""><img src=""images/map13_BuPu_scaleDef_orientDef_180.png"" alt=""map"" style=""width: 100%;""><img src=""images/map15_PuBuGn_scaleRev_orientDef_270.png"" alt=""map"" style=""width: 100%;""><img src=""images/map10_Reds_scaleRev_orientMir_270.png"" alt=""map"" style=""width: 100%;""><img src=""images/map02_berlin_scaleDef_orientDef_000.png"" alt=""map"" style=""width: 100%;""><img src=""images/map27_coolwarm_scaleRev_orientDef_270.png"" alt=""map"" style=""width: 100%;""><img src=""images/map02_vanimo_scaleDef_orientMir_000.png"" alt=""map"" style=""width: 100%;""><img src=""images/map27_bwr_scaleRev_orientMir_090.png"" alt=""map"" style=""width: 100%;""><img src=""images/map12_PuRd_scaleDef_orientMir_180.png"" alt=""map"" style=""width: 100%;""><img src=""images/map07_cividis_scaleRev_orientDef_270.png"" alt=""map"" style=""width: 100%;""><img src=""images/map26_RdGy_scaleDef_orientDef_000.png"" alt=""map"" style=""width: 100%;""><img src=""images/map07_magma_scaleDef_orientDef_000.png"" alt=""map"" style=""width: 100%;""><img src=""images/map26_RdYlGn_scaleDef_orientMir_180.png"" alt=""map"" style=""width: 100%;""><img src=""images/map02_gist_earth_scaleRev_orientMir_270.png"" alt=""map"" style=""width: 100%;""><img src=""images/map02_managua_scaleRev_orientDef_270.png"" alt=""map"" style=""width: 100%;""><img src=""images/map05_turbo_scaleRev_orientDef_090.png"" alt=""map"" style=""width: 100%;""><img src=""images/map23_PiYG_scaleDef_orientDef_000.png"" alt=""map"" style=""width: 100%;""><img src=""images/map23_PRGn_scaleRev_orientDef_270.png"" alt=""map"" style=""width: 100%;""><img src=""images/map12_OrRd_scaleDef_orientMir_000.png"" alt=""map"" style=""width: 100%;""><img src=""images/map15_YlGn_scaleDef_orientMir_180.png"" alt=""map"" style=""width: 100%;""><img src=""images/map15_BuGn_scaleDef_orientMir_000.png"" alt=""map"" style=""width: 100%;"">
                    </div>
                </div>

                    <!-- Clear floats -->
                    <div style=""clear: both;""></div>
                </div>
                            ","-32","","0","true","","","","","","","","","","","","",""
"","","","","","html-button-response","7","192365","0.0-7.0","bdbrp513r3","10","3581","<div style=""width:800px;""><p style=""text-align:left"">To move the slider, click and drag your cursor to the location of the scale where you would like to make your rating and then let go. When you let go of the slider, your response will be recorded and the next trial will begin. <br>
                    We are interested in your initial impressions of each map for the given concept, so please go with your first intuition. <br>
                    Before you begin the experiment, there will be four training trials for you to practice using the scale. <br>
                     When you are ready to start the training trials, please click ""Continue"".</p><br></div>","0","","","","","","","","","","","","","","","",""
"","","","","","html-slider-response","8","196093","0.0-8.0-0.0","bdbrp513r3","10","NaN","<div style=""width:500px;"">
                                    <p style=""font-size:25px;"">Please move the slider all the way to the <br> right endpoint of the scale</p>

                                    </div>
                                </div>","200","","0","true","0","true","","","","","","","","","","",""
"","","","","","html-button-response","9","197532","0.0-8.0-1.0","bdbrp513r3","10","936","<p align='center'><b>Good job!</b> Click on 'Continue' to proceed.</p>","0","","","","","","","","","","","","","","","",""
"","","","","","html-slider-response","10","199125","0.0-9.0-0.0","bdbrp513r3","10","NaN","<div style=""width:500px;"">
                                    <p style=""font-size:25px;"">Please move the slider all the way to the <br> left endpoint of the scale</p>

                                    </div>
                                </div>","-200","","0","true","1","true","","","","","","","","","","",""
"","","","","","html-button-response","11","200666","0.0-9.0-1.0","bdbrp513r3","10","1039","<p align='center'><b>Good job!</b> Click on 'Continue' to proceed.</p>","0","","","","","","","","","","","","","","","",""
"","","","","","html-slider-response","12","204343","0.0-10.0-0.0","bdbrp513r3","10","NaN","<div style=""width:500px;"">
                                    <p style=""font-size:25px;"">Please move the slider halfway between the center and right endpoint of the scale</p>

                                    </div>
                                </div>","103","","0","true","2","true","","","","","","","","","","",""
"","","","","","html-button-response","13","205881","0.0-10.0-1.0","bdbrp513r3","10","1037","<p align='center'><b>Good job!</b> Click on 'Continue' to proceed.</p>","0","","","","","","","","","","","","","","","",""
"","","","","","html-slider-response","14","208242","0.0-11.0-0.0","bdbrp513r3","10","NaN","<div style=""width:500px;"">
                                    <p style=""font-size:25px;"">Please move the slider halfway between the center and left endpoint of the scale</p>

                                    </div>
                                </div>","-109","","0","true","3","true","","","","","","","","","","",""
"","","","","","html-button-response","15","209398","0.0-11.0-1.0","bdbrp513r3","10","654","<p align='center'><b>Good job!</b> Click on 'Continue' to proceed.</p>","0","","","","","","","","","","","","","","","",""
"","","","","","html-button-response","16","210464","0.0-12.0","bdbrp513r3","10","1065","<p>Great job! You've completed the practice trials. Now you will begin the main task.</p>","0","","","","","","","","","","","","","","","",""
"","","","","","html-button-response","17","214032","0.0-13.0","bdbrp513r3","10","3566","<p>In this block of trials, you will be asked to rate how much you associate each map with:</p > <p style = 'font-size:150%; font-weight: bold'>fearful</p><br></br>","0","","","","","","","","","","","","","","","",""
"","","","","","html-slider-response","18","219160","0.0-14.0","bdbrp513r3","10","NaN","<div style=""width:500px;"">
                            <p style=""font-size:50px; font-weight:bold;""
                            >fearful</p>
                            <div style=""width:240px; margin: auto;"">
                                <img src=""images/map05_viridis_scaleRev_orientDef_270.png"" style= ""width:200px""alt=""img"">
                            </div>
                        </div>","-21","","0","","","","images/map05_viridis_scaleRev_orientDef_270.png","fearful","1","05","05","viridis","orientDef","scaleRev","270","",""
"","","","","","html-slider-response","19","222526","0.0-15.0","bdbrp513r3","10","NaN","<div style=""width:500px;"">
                            <p style=""font-size:50px; font-weight:bold;""
                            >fearful</p>
                            <div style=""width:240px; margin: auto;"">
                                <img src=""images/map05_inferno_scaleRev_orientMir_270.png"" style= ""width:200px""alt=""img"">
                            </div>
                        </div>","106","","0","","","","images/map05_inferno_scaleRev_orientMir_270.png","fearful","1","05","05","inferno","orientMir","scaleRev","270","",""
"","","","","","html-slider-response","20","231226","0.0-16.0","bdbrp513r3","10","NaN","<div style=""width:500px;"">
                            <p style=""font-size:50px; font-weight:bold;""
                            >fearful</p>
                            <div style=""width:240px; margin: auto;"">
                                <img src=""images/map26_RdGy_scaleRev_orientDef_090.png"" style= ""width:200px""alt=""img"">
                            </div>
                        </div>","46","","0","","","","images/map26_RdGy_scaleRev_orientDef_090.png","fearful","1","26","26","RdGy","orientDef","scaleRev","090","",""
"","","","","","html-slider-response","21","234776","0.0-17.0","bdbrp513r3","10","NaN","<div style=""width:500px;"">
                            <p style=""font-size:50px; font-weight:bold;""
                            >fearful</p>
                            <div style=""width:240px; margin: auto;"">
                                <img src=""images/map05_turbo_scaleDef_orientDef_000.png"" style= ""width:200px""alt=""img"">
                            </div>
                        </div>","-123","","0","","","","images/map05_turbo_scaleDef_orientDef_000.png","fearful","1","05","05","turbo","orientDef","scaleDef","000","",""
"","","","","","html-slider-response","22","240209","0.0-18.0","bdbrp513r3","10","NaN","<div style=""width:500px;"">
                            <p style=""font-size:50px; font-weight:bold;""
                            >fearful</p>
                            <div style=""width:240px; margin: auto;"">
                                <img src=""images/map07_Greys_scaleDef_orientMir_000.png"" style= ""width:200px""alt=""img"">
                            </div>
                        </div>","106","","0","","","","images/map07_Greys_scaleDef_orientMir_000.png","fearful","1","07","07","Greys","orientMir","scaleDef","000","",""
"","","","","","html-slider-response","23","246326","0.0-19.0","bdbrp513r3","10","NaN","<div style=""width:500px;"">
                            <p style=""font-size:50px; font-weight:bold;""
                            >fearful</p>
                            <div style=""width:240px; margin: auto;"">
                                <img src=""images/map10_Blues_scaleDef_orientDef_000.png"" style= ""width:200px""alt=""img"">
                            </div>
                        </div>","-170","","0","","","","images/map10_Blues_scaleDef_orientDef_000.png","fearful","1","10","10","Blues","orientDef","scaleDef","000","",""
"","","","","","html-slider-response","24","250093","0.0-20.0","bdbrp513r3","10","NaN","<div style=""width:500px;"">
                            <p style=""font-size:50px; font-weight:bold;""
                            >fearful</p>
                            <div style=""width:240px; margin: auto;"">
                                <img src=""images/map10_Reds_scaleRev_orientMir_270.png"" style= ""width:200px""alt=""img"">
                            </div>
                        </div>","141","","0","","","","images/map10_Reds_scaleRev_orientMir_270.png","fearful","1","10","10","Reds","orientMir","scaleRev","270","",""
"","","","","","html-slider-response","25","253710","0.0-21.0","bdbrp513r3","10","NaN","<div style=""width:500px;"">
                            <p style=""font-size:50px; font-weight:bold;""
                            >fearful</p>
                            <div style=""width:240px; margin: auto;"">
                                <img src=""images/map15_PuBuGn_scaleDef_orientDef_180.png"" style= ""width:200px""alt=""img"">
                            </div>
                        </div>","-153","","0","","","","images/map15_PuBuGn_scaleDef_orientDef_180.png","fearful","1","15","15","PuBuGn","orientDef","scaleDef","180","",""
"","","","","","html-slider-response","26","267443","0.0-22.0","bdbrp513r3","10","NaN","<div style=""width:500px;"">
                            <p style=""font-size:50px; font-weight:bold;""
                            >fearful</p>
                            <div style=""width:240px; margin: auto;"">
                                <img src=""images/map23_PiYG_scaleDef_orientDef_000.png"" style= ""width:200px""alt=""img"">
                            </div>
                        </div>","-13","","0","","","","images/map23_PiYG_scaleDef_orientDef_000.png","fearful","1","23","23","PiYG","orientDef","scaleDef","000","",""
"","","","","","html-slider-response","27","272276","0.0-23.0","bdbrp513r3","10","NaN","<div style=""width:500px;"">
                            <p style=""font-size:50px; font-weight:bold;""
                            >fearful</p>
                            <div style=""width:240px; margin: auto;"">
                                <img src=""images/map26_RdYlGn_scaleRev_orientMir_270.png"" style= ""width:200px""alt=""img"">
                            </div>
                        </div>","95","","0","","","","images/map26_RdYlGn_scaleRev_orientMir_270.png","fearful","1","26","26","RdYlGn","orientMir","scaleRev","270","",""
"","","","","","html-slider-response","28","277145","0.0-24.0","bdbrp513r3","10","NaN","<div style=""width:500px;"">
                            <p style=""font-size:50px; font-weight:bold;""
                            >fearful</p>
                            <div style=""width:240px; margin: auto;"">
                                <img src=""images/map02_berlin_scaleRev_orientDef_090.png"" style= ""width:200px""alt=""img"">
                            </div>
                        </div>","-100","","0","","","","images/map02_berlin_scaleRev_orientDef_090.png","fearful","1","02","02","berlin","orientDef","scaleRev","090","",""
"","","","","","html-slider-response","29","293109","0.0-25.0","bdbrp513r3","10","NaN","<div style=""width:500px;"">
                            <p style=""font-size:50px; font-weight:bold;""
                            >fearful</p>
                            <div style=""width:240px; margin: auto;"">
                                <img src=""images/map26_RdYlBu_scaleDef_orientMir_000.png"" style= ""width:200px""alt=""img"">
                            </div>
                        </div>","48","","0","","","","images/map26_RdYlBu_scaleDef_orientMir_000.png","fearful","1","26","26","RdYlBu","orientMir","scaleDef","000","",""
"","","","","","html-slider-response","30","297076","0.0-26.0","bdbrp513r3","10","NaN","<div style=""width:500px;"">
                            <p style=""font-size:50px; font-weight:bold;""
                            >fearful</p>
                            <div style=""width:240px; margin: auto;"">
                                <img src=""images/map05_turbo_scaleRev_orientDef_090.png"" style= ""width:200px""alt=""img"">
                            </div>
                        </div>","-69","","0","","","","images/map05_turbo_scaleRev_orientDef_090.png","fearful","1","05","05","turbo","orientDef","scaleRev","090","",""
"","","","","","html-slider-response","31","303344","0.0-27.0","bdbrp513r3","10","NaN","<div style=""width:500px;"">
                            <p style=""font-size:50px; font-weight:bold;""
                            >fearful</p>
                            <div style=""width:240px; margin: auto;"">
                                <img src=""images/map27_Spectral_scaleRev_orientDef_090.png"" style= ""width:200px""alt=""img"">
                            </div>
                        </div>","21","","0","","","","images/map27_Spectral_scaleRev_orientDef_090.png","fearful","1","27","27","Spectral","orientDef","scaleRev","090","",""
"","","","","","html-slider-response","32","306126","0.0-28.0","bdbrp513r3","10","NaN","<div style=""width:500px;"">
                            <p style=""font-size:50px; font-weight:bold;""
                            >fearful</p>
                            <div style=""width:240px; margin: auto;"">
                                <img src=""images/map02_managua_scaleDef_orientDef_180.png"" style= ""width:200px""alt=""img"">
                            </div>
                        </div>","-140","","0","","","","images/map02_managua_scaleDef_orientDef_180.png","fearful","1","02","02","managua","orientDef","scaleDef","180","",""
"","","","","","html-slider-response","33","309410","0.0-29.0","bdbrp513r3","10","NaN","<div style=""width:500px;"">
                            <p style=""font-size:50px; font-weight:bold;""
                            >fearful</p>
                            <div style=""width:240px; margin: auto;"">
                                <img src=""images/map26_RdYlGn_scaleDef_orientMir_180.png"" style= ""width:200px""alt=""img"">
                            </div>
                        </div>","54","","0","","","","images/map26_RdYlGn_scaleDef_orientMir_180.png","fearful","1","26","26","RdYlGn","orientMir","scaleDef","180","",""
"","","","","","html-slider-response","34","315341","0.0-30.0","bdbrp513r3","10","NaN","<div style=""width:500px;"">
                            <p style=""font-size:50px; font-weight:bold;""
                            >fearful</p>
                            <div style=""width:240px; margin: auto;"">
                                <img src=""images/map05_viridis_scaleDef_orientDef_180.png"" style= ""width:200px""alt=""img"">
                            </div>
                        </div>","-70","","0","","","","images/map05_viridis_scaleDef_orientDef_180.png","fearful","1","05","05","viridis","orientDef","scaleDef","180","",""
"","","","","","html-slider-response","35","323876","0.0-31.0","bdbrp513r3","10","NaN","<div style=""width:500px;"">
                            <p style=""font-size:50px; font-weight:bold;""
                            >fearful</p>
                            <div style=""width:240px; margin: auto;"">
                                <img src=""images/map07_cividis_scaleRev_orientDef_270.png"" style= ""width:200px""alt=""img"">
                            </div>
                        </div>","-64","","0","","","","images/map07_cividis_scaleRev_orientDef_270.png","fearful","1","07","07","cividis","orientDef","scaleRev","270","",""
"","","","","","html-slider-response","36","327893","0.0-32.0","bdbrp513r3","10","NaN","<div style=""width:500px;"">
                            <p style=""font-size:50px; font-weight:bold;""
                            >fearful</p>
                            <div style=""width:240px; margin: auto;"">
                                <img src=""images/map23_PRGn_scaleRev_orientDef_270.png"" style= ""width:200px""alt=""img"">
                            </div>
                        </div>","75","","0","","","","images/map23_PRGn_scaleRev_orientDef_270.png","fearful","1","23","23","PRGn","orientDef","scaleRev","270","",""
"","","","","","html-slider-response","37","332241","0.0-33.0","bdbrp513r3","10","NaN","<div style=""width:500px;"">
                            <p style=""font-size:50px; font-weight:bold;""
                            >fearful</p>
                            <div style=""width:240px; margin: auto;"">
                                <img src=""images/map27_bwr_scaleDef_orientMir_000.png"" style= ""width:200px""alt=""img"">
                            </div>
                        </div>","158","","0","","","","images/map27_bwr_scaleDef_orientMir_000.png","fearful","1","27","27","bwr","orientMir","scaleDef","000","",""
"","","","","","html-slider-response","38","339176","0.0-34.0","bdbrp513r3","10","NaN","<div style=""width:500px;"">
                            <p style=""font-size:50px; font-weight:bold;""
                            >fearful</p>
                            <div style=""width:240px; margin: auto;"">
                                <img src=""images/map26_RdYlBu_scaleRev_orientMir_090.png"" style= ""width:200px""alt=""img"">
                            </div>
                        </div>","-54","","0","","","","images/map26_RdYlBu_scaleRev_orientMir_090.png","fearful","1","26","26","RdYlBu","orientMir","scaleRev","090","",""
"","","","","","html-slider-response","39","343474","0.0-35.0","bdbrp513r3","10","NaN","<div style=""width:500px;"">
                            <p style=""font-size:50px; font-weight:bold;""
                            >fearful</p>
                            <div style=""width:240px; margin: auto;"">
                                <img src=""images/map13_GnBu_scaleRev_orientMir_090.png"" style= ""width:200px""alt=""img"">
                            </div>
                        </div>","-156","","0","","","","images/map13_GnBu_scaleRev_orientMir_090.png","fearful","1","13","13","GnBu","orientMir","scaleRev","090","",""
"","","","","","html-slider-response","40","346042","0.0-36.0","bdbrp513r3","10","NaN","<div style=""width:500px;"">
                            <p style=""font-size:50px; font-weight:bold;""
                            >fearful</p>
                            <div style=""width:240px; margin: auto;"">
                                <img src=""images/map15_PuBuGn_scaleRev_orientDef_270.png"" style= ""width:200px""alt=""img"">
                            </div>
                        </div>","-105","","0","","","","images/map15_PuBuGn_scaleRev_orientDef_270.png","fearful","1","15","15","PuBuGn","orientDef","scaleRev","270","",""
"","","","","","html-slider-response","41","352340","0.0-37.0","bdbrp513r3","10","NaN","<div style=""width:500px;"">
                            <p style=""font-size:50px; font-weight:bold;""
                            >fearful</p>
                            <div style=""width:240px; margin: auto;"">
                                <img src=""images/map12_YlOrBr_scaleRev_orientDef_090.png"" style= ""width:200px""alt=""img"">
                            </div>
                        </div>","68","","0","","","","images/map12_YlOrBr_scaleRev_orientDef_090.png","fearful","1","12","12","YlOrBr","orientDef","scaleRev","090","",""
"","","","","","html-slider-response","42","357875","0.0-38.0","bdbrp513r3","10","NaN","<div style=""width:500px;"">
                            <p style=""font-size:50px; font-weight:bold;""
                            >fearful</p>
                            <div style=""width:240px; margin: auto;"">
                                <img src=""images/map23_PRGn_scaleDef_orientDef_180.png"" style= ""width:200px""alt=""img"">
                            </div>
                        </div>","-62","","0","","","","images/map23_PRGn_scaleDef_orientDef_180.png","fearful","1","23","23","PRGn","orientDef","scaleDef","180","",""
"","","","","","html-slider-response","43","383492","0.0-39.0","bdbrp513r3","10","NaN","<div style=""width:500px;"">
                            <p style=""font-size:50px; font-weight:bold;""
                            >fearful</p>
                            <div style=""width:240px; margin: auto;"">
                                <img src=""images/map27_coolwarm_scaleRev_orientDef_270.png"" style= ""width:200px""alt=""img"">
                            </div>
                        </div>","91","","0","","","","images/map27_coolwarm_scaleRev_orientDef_270.png","fearful","1","27","27","coolwarm","orientDef","scaleRev","270","",""
"","","","","","html-slider-response","44","387724","0.0-40.0","bdbrp513r3","10","NaN","<div style=""width:500px;"">
                            <p style=""font-size:50px; font-weight:bold;""
                            >fearful</p>
                            <div style=""width:240px; margin: auto;"">
                                <img src=""images/map26_RdBu_scaleRev_orientDef_270.png"" style= ""width:200px""alt=""img"">
                            </div>
                        </div>","-31","","0","","","","images/map26_RdBu_scaleRev_orientDef_270.png","fearful","1","26","26","RdBu","orientDef","scaleRev","270","",""
"","","","","","html-slider-response","45","392657","0.0-41.0","bdbrp513r3","10","NaN","<div style=""width:500px;"">
                            <p style=""font-size:50px; font-weight:bold;""
                            >fearful</p>
                            <div style=""width:240px; margin: auto;"">
                                <img src=""images/map10_Oranges_scaleDef_orientMir_000.png"" style= ""width:200px""alt=""img"">
                            </div>
                        </div>","74","","0","","","","images/map10_Oranges_scaleDef_orientMir_000.png","fearful","1","10","10","Oranges","orientMir","scaleDef","000","",""
"","","","","","html-slider-response","46","398258","0.0-42.0","bdbrp513r3","10","NaN","<div style=""width:500px;"">
                            <p style=""font-size:50px; font-weight:bold;""
                            >fearful</p>
                            <div style=""width:240px; margin: auto;"">
                                <img src=""images/map12_YlOrBr_scaleDef_orientDef_000.png"" style= ""width:200px""alt=""img"">
                            </div>
                        </div>","101","","0","","","","images/map12_YlOrBr_scaleDef_orientDef_000.png","fearful","1","12","12","YlOrBr","orientDef","scaleDef","000","",""
"","","","","","html-slider-response","47","401491","0.0-43.0","bdbrp513r3","10","NaN","<div style=""width:500px;"">
                            <p style=""font-size:50px; font-weight:bold;""
                            >fearful</p>
                            <div style=""width:240px; margin: auto;"">
                                <img src=""images/map02_managua_scaleRev_orientDef_270.png"" style= ""width:200px""alt=""img"">
                            </div>
                        </div>","-61","","0","","","","images/map02_managua_scaleRev_orientDef_270.png","fearful","1","02","02","managua","orientDef","scaleRev","270","",""
"","","","","","html-slider-response","48","405574","0.0-44.0","bdbrp513r3","10","NaN","<div style=""width:500px;"">
                            <p style=""font-size:50px; font-weight:bold;""
                            >fearful</p>
                            <div style=""width:240px; margin: auto;"">
                                <img src=""images/map27_seismic_scaleRev_orientMir_270.png"" style= ""width:200px""alt=""img"">
                            </div>
                        </div>","156","","0","","","","images/map27_seismic_scaleRev_orientMir_270.png","fearful","1","27","27","seismic","orientMir","scaleRev","270","",""
"","","","","","html-slider-response","49","409324","0.0-45.0","bdbrp513r3","10","NaN","<div style=""width:500px;"">
                            <p style=""font-size:50px; font-weight:bold;""
                            >fearful</p>
                            <div style=""width:240px; margin: auto;"">
                                <img src=""images/map02_vanimo_scaleDef_orientMir_000.png"" style= ""width:200px""alt=""img"">
                            </div>
                        </div>","-28","","0","","","","images/map02_vanimo_scaleDef_orientMir_000.png","fearful","1","02","02","vanimo","orientMir","scaleDef","000","",""
"","","","","","html-slider-response","50","415591","0.0-46.0","bdbrp513r3","10","NaN","<div style=""width:500px;"">
                            <p style=""font-size:50px; font-weight:bold;""
                            >fearful</p>
                            <div style=""width:240px; margin: auto;"">
                                <img src=""images/map13_BuPu_scaleDef_orientDef_180.png"" style= ""width:200px""alt=""img"">
                            </div>
                        </div>","33","","0","","","","images/map13_BuPu_scaleDef_orientDef_180.png","fearful","1","13","13","BuPu","orientDef","scaleDef","180","",""
"","","","","","html-slider-response","51","419741","0.0-47.0","bdbrp513r3","10","NaN","<div style=""width:500px;"">
                            <p style=""font-size:50px; font-weight:bold;""
                            >fearful</p>
                            <div style=""width:240px; margin: auto;"">
                                <img src=""images/map07_Purples_scaleRev_orientMir_270.png"" style= ""width:200px""alt=""img"">
                            </div>
                        </div>","-67","","0","","","","images/map07_Purples_scaleRev_orientMir_270.png","fearful","1","07","07","Purples","orientMir","scaleRev","270","",""
"","","","","","html-slider-response","52","434009","0.0-48.0","bdbrp513r3","10","NaN","<div style=""width:500px;"">
                            <p style=""font-size:50px; font-weight:bold;""
                            >fearful</p>
                            <div style=""width:240px; margin: auto;"">
                                <img src=""images/map10_Greens_scaleRev_orientDef_270.png"" style= ""width:200px""alt=""img"">
                            </div>
                        </div>","12","","0","","","","images/map10_Greens_scaleRev_orientDef_270.png","fearful","1","10","10","Greens","orientDef","scaleRev","270","",""
"","","","","","html-slider-response","53","442775","0.0-49.0","bdbrp513r3","10","NaN","<div style=""width:500px;"">
                            <p style=""font-size:50px; font-weight:bold;""
                            >fearful</p>
                            <div style=""width:240px; margin: auto;"">
                                <img src=""images/map07_Purples_scaleDef_orientMir_180.png"" style= ""width:200px""alt=""img"">
                            </div>
                        </div>","-59","","0","","","","images/map07_Purples_scaleDef_orientMir_180.png","fearful","1","07","07","Purples","orientMir","scaleDef","180","",""
"","","","","","html-slider-response","54","446641","0.0-50.0","bdbrp513r3","10","NaN","<div style=""width:500px;"">
                            <p style=""font-size:50px; font-weight:bold;""
                            >fearful</p>
                            <div style=""width:240px; margin: auto;"">
                                <img src=""images/map05_inferno_scaleDef_orientMir_180.png"" style= ""width:200px""alt=""img"">
                            </div>
                        </div>","151","","0","","","","images/map05_inferno_scaleDef_orientMir_180.png","fearful","1","05","05","inferno","orientMir","scaleDef","180","",""
"","","","","","html-slider-response","55","451591","0.0-51.0","bdbrp513r3","10","NaN","<div style=""width:500px;"">
                            <p style=""font-size:50px; font-weight:bold;""
                            >fearful</p>
                            <div style=""width:240px; margin: auto;"">
                                <img src=""images/map27_seismic_scaleDef_orientMir_180.png"" style= ""width:200px""alt=""img"">
                            </div>
                        </div>","72","","0","","","","images/map27_seismic_scaleDef_orientMir_180.png","fearful","1","27","27","seismic","orientMir","scaleDef","180","",""
"","","","","","html-slider-response","56","456474","0.0-52.0","bdbrp513r3","10","NaN","<div style=""width:500px;"">
                            <p style=""font-size:50px; font-weight:bold;""
                            >fearful</p>
                            <div style=""width:240px; margin: auto;"">
                                <img src=""images/map12_OrRd_scaleDef_orientMir_000.png"" style= ""width:200px""alt=""img"">
                            </div>
                        </div>","-11","","0","","","","images/map12_OrRd_scaleDef_orientMir_000.png","fearful","1","12","12","OrRd","orientMir","scaleDef","000","",""
"","","","","","html-slider-response","57","463324","0.0-53.0","bdbrp513r3","10","NaN","<div style=""width:500px;"">
                            <p style=""font-size:50px; font-weight:bold;""
                            >fearful</p>
                            <div style=""width:240px; margin: auto;"">
                                <img src=""images/map27_bwr_scaleRev_orientMir_090.png"" style= ""width:200px""alt=""img"">
                            </div>
                        </div>","47","","0","","","","images/map27_bwr_scaleRev_orientMir_090.png","fearful","1","27","27","bwr","orientMir","scaleRev","090","",""
"","","","","","html-button-response","58","1370962","0.0-54.0","bdbrp513r3","10","249902","<p>You are doing great!<br></br> You are halway done with the current block. When you are ready to continue, click the 'Continue' button.</p>","0","","","","","","","","","","","","","","","",""
"","","","","","html-slider-response","59","1377437","0.0-55.0","bdbrp513r3","10","NaN","<div style=""width:500px;"">
                            <p style=""font-size:50px; font-weight:bold;""
                            >fearful</p>
                            <div style=""width:240px; margin: auto;"">
                                <img src=""images/map23_BrBG_scaleDef_orientMir_000.png"" style= ""width:200px""alt=""img"">
                            </div>
                        </div>","-74","","0","","","","images/map23_BrBG_scaleDef_orientMir_000.png","fearful","1","23","23","BrBG","orientMir","scaleDef","000","",""
"","","","","","html-slider-response","60","1387637","0.0-56.0","bdbrp513r3","10","NaN","<div style=""width:500px;"">
                            <p style=""font-size:50px; font-weight:bold;""
                            >fearful</p>
                            <div style=""width:240px; margin: auto;"">
                                <img src=""images/map15_BuGn_scaleRev_orientMir_090.png"" style= ""width:200px""alt=""img"">
                            </div>
                        </div>","93","","0","","","","images/map15_BuGn_scaleRev_orientMir_090.png","fearful","1","15","15","BuGn","orientMir","scaleRev","090","",""
"","","","","","html-slider-response","61","1418286","0.0-57.0","bdbrp513r3","10","NaN","<div style=""width:500px;"">
                            <p style=""font-size:50px; font-weight:bold;""
                            >fearful</p>
                            <div style=""width:240px; margin: auto;"">
                                <img src=""images/map15_YlGn_scaleDef_orientMir_180.png"" style= ""width:200px""alt=""img"">
                            </div>
                        </div>","108","","0","","","","images/map15_YlGn_scaleDef_orientMir_180.png","fearful","1","15","15","YlGn","orientMir","scaleDef","180","",""
"","","","","","html-slider-response","62","1425721","0.0-58.0","bdbrp513r3","10","NaN","<div style=""width:500px;"">
                            <p style=""font-size:50px; font-weight:bold;""
                            >fearful</p>
                            <div style=""width:240px; margin: auto;"">
                                <img src=""images/map05_plasma_scaleDef_orientMir_000.png"" style= ""width:200px""alt=""img"">
                            </div>
                        </div>","-104","","0","","","","images/map05_plasma_scaleDef_orientMir_000.png","fearful","1","05","05","plasma","orientMir","scaleDef","000","",""
"","","","","","html-slider-response","63","1430437","0.0-59.0","bdbrp513r3","10","NaN","<div style=""width:500px;"">
                            <p style=""font-size:50px; font-weight:bold;""
                            >fearful</p>
                            <div style=""width:240px; margin: auto;"">
                                <img src=""images/map12_PuRd_scaleDef_orientMir_180.png"" style= ""width:200px""alt=""img"">
                            </div>
                        </div>","-106","","0","","","","images/map12_PuRd_scaleDef_orientMir_180.png","fearful","1","12","12","PuRd","orientMir","scaleDef","180","",""
"","","","","","html-slider-response","64","1437636","0.0-60.0","bdbrp513r3","10","NaN","<div style=""width:500px;"">
                            <p style=""font-size:50px; font-weight:bold;""
                            >fearful</p>
                            <div style=""width:240px; margin: auto;"">
                                <img src=""images/map10_Reds_scaleDef_orientMir_180.png"" style= ""width:200px""alt=""img"">
                            </div>
                        </div>","159","","0","","","","images/map10_Reds_scaleDef_orientMir_180.png","fearful","1","10","10","Reds","orientMir","scaleDef","180","",""
"","","","","","html-slider-response","65","1444270","0.0-61.0","bdbrp513r3","10","NaN","<div style=""width:500px;"">
                            <p style=""font-size:50px; font-weight:bold;""
                            >fearful</p>
                            <div style=""width:240px; margin: auto;"">
                                <img src=""images/map15_YlGn_scaleRev_orientMir_270.png"" style= ""width:200px""alt=""img"">
                            </div>
                        </div>","-98","","0","","","","images/map15_YlGn_scaleRev_orientMir_270.png","fearful","1","15","15","YlGn","orientMir","scaleRev","270","",""
"","","","","","html-slider-response","66","1450003","0.0-62.0","bdbrp513r3","10","NaN","<div style=""width:500px;"">
                            <p style=""font-size:50px; font-weight:bold;""
                            >fearful</p>
                            <div style=""width:240px; margin: auto;"">
                                <img src=""images/map13_PuBu_scaleRev_orientMir_270.png"" style= ""width:200px""alt=""img"">
                            </div>
                        </div>","-68","","0","","","","images/map13_PuBu_scaleRev_orientMir_270.png","fearful","1","13","13","PuBu","orientMir","scaleRev","270","",""
"","","","","","html-slider-response","67","1453870","0.0-63.0","bdbrp513r3","10","NaN","<div style=""width:500px;"">
                            <p style=""font-size:50px; font-weight:bold;""
                            >fearful</p>
                            <div style=""width:240px; margin: auto;"">
                                <img src=""images/map27_Spectral_scaleDef_orientDef_000.png"" style= ""width:200px""alt=""img"">
                            </div>
                        </div>","-121","","0","","","","images/map27_Spectral_scaleDef_orientDef_000.png","fearful","1","27","27","Spectral","orientDef","scaleDef","000","",""
"","","","","","html-slider-response","68","1459019","0.0-64.0","bdbrp513r3","10","NaN","<div style=""width:500px;"">
                            <p style=""font-size:50px; font-weight:bold;""
                            >fearful</p>
                            <div style=""width:240px; margin: auto;"">
                                <img src=""images/map07_magma_scaleDef_orientDef_000.png"" style= ""width:200px""alt=""img"">
                            </div>
                        </div>","102","","0","","","","images/map07_magma_scaleDef_orientDef_000.png","fearful","1","07","07","magma","orientDef","scaleDef","000","",""
"","","","","","html-slider-response","69","1464386","0.0-65.0","bdbrp513r3","10","NaN","<div style=""width:500px;"">
                            <p style=""font-size:50px; font-weight:bold;""
                            >fearful</p>
                            <div style=""width:240px; margin: auto;"">
                                <img src=""images/map07_cividis_scaleDef_orientDef_180.png"" style= ""width:200px""alt=""img"">
                            </div>
                        </div>","46","","0","","","","images/map07_cividis_scaleDef_orientDef_180.png","fearful","1","07","07","cividis","orientDef","scaleDef","180","",""
"","","","","","html-slider-response","70","1468187","0.0-66.0","bdbrp513r3","10","NaN","<div style=""width:500px;"">
                            <p style=""font-size:50px; font-weight:bold;""
                            >fearful</p>
                            <div style=""width:240px; margin: auto;"">
                                <img src=""images/map10_Greens_scaleDef_orientDef_180.png"" style= ""width:200px""alt=""img"">
                            </div>
                        </div>","94","","0","","","","images/map10_Greens_scaleDef_orientDef_180.png","fearful","1","10","10","Greens","orientDef","scaleDef","180","",""
"","","","","","html-slider-response","71","1470820","0.0-67.0","bdbrp513r3","10","NaN","<div style=""width:500px;"">
                            <p style=""font-size:50px; font-weight:bold;""
                            >fearful</p>
                            <div style=""width:240px; margin: auto;"">
                                <img src=""images/map15_BuGn_scaleDef_orientMir_000.png"" style= ""width:200px""alt=""img"">
                            </div>
                        </div>","73","","0","","","","images/map15_BuGn_scaleDef_orientMir_000.png","fearful","1","15","15","BuGn","orientMir","scaleDef","000","",""
"","","","","","html-slider-response","72","1475503","0.0-68.0","bdbrp513r3","10","NaN","<div style=""width:500px;"">
                            <p style=""font-size:50px; font-weight:bold;""
                            >fearful</p>
                            <div style=""width:240px; margin: auto;"">
                                <img src=""images/map23_BrBG_scaleRev_orientMir_090.png"" style= ""width:200px""alt=""img"">
                            </div>
                        </div>","-96","","0","","","","images/map23_BrBG_scaleRev_orientMir_090.png","fearful","1","23","23","BrBG","orientMir","scaleRev","090","",""
"","","","","","html-slider-response","73","1478435","0.0-69.0","bdbrp513r3","10","NaN","<div style=""width:500px;"">
                            <p style=""font-size:50px; font-weight:bold;""
                            >fearful</p>
                            <div style=""width:240px; margin: auto;"">
                                <img src=""images/map27_coolwarm_scaleDef_orientDef_180.png"" style= ""width:200px""alt=""img"">
                            </div>
                        </div>","24","","0","","","","images/map27_coolwarm_scaleDef_orientDef_180.png","fearful","1","27","27","coolwarm","orientDef","scaleDef","180","",""
"","","","","","html-slider-response","74","1482136","0.0-70.0","bdbrp513r3","10","NaN","<div style=""width:500px;"">
                            <p style=""font-size:50px; font-weight:bold;""
                            >fearful</p>
                            <div style=""width:240px; margin: auto;"">
                                <img src=""images/map23_PuOr_scaleRev_orientMir_270.png"" style= ""width:200px""alt=""img"">
                            </div>
                        </div>","-46","","0","","","","images/map23_PuOr_scaleRev_orientMir_270.png","fearful","1","23","23","PuOr","orientMir","scaleRev","270","",""
"","","","","","html-slider-response","75","1486385","0.0-71.0","bdbrp513r3","10","NaN","<div style=""width:500px;"">
                            <p style=""font-size:50px; font-weight:bold;""
                            >fearful</p>
                            <div style=""width:240px; margin: auto;"">
                                <img src=""images/map12_YlOrRd_scaleRev_orientDef_270.png"" style= ""width:200px""alt=""img"">
                            </div>
                        </div>","46","","0","","","","images/map12_YlOrRd_scaleRev_orientDef_270.png","fearful","1","12","12","YlOrRd","orientDef","scaleRev","270","",""
"","","","","","html-slider-response","76","1492103","0.0-72.0","bdbrp513r3","10","NaN","<div style=""width:500px;"">
                            <p style=""font-size:50px; font-weight:bold;""
                            >fearful</p>
                            <div style=""width:240px; margin: auto;"">
                                <img src=""images/map13_PuBu_scaleDef_orientMir_180.png"" style= ""width:200px""alt=""img"">
                            </div>
                        </div>","31","","0","","","","images/map13_PuBu_scaleDef_orientMir_180.png","fearful","1","13","13","PuBu","orientMir","scaleDef","180","",""
"","","","","","html-slider-response","77","1501554","0.0-73.0","bdbrp513r3","10","NaN","<div style=""width:500px;"">
                            <p style=""font-size:50px; font-weight:bold;""
                            >fearful</p>
                            <div style=""width:240px; margin: auto;"">
                                <img src=""images/map02_gist_earth_scaleDef_orientMir_180.png"" style= ""width:200px""alt=""img"">
                            </div>
                        </div>","-104","","0","","","","images/map02_gist_earth_scaleDef_orientMir_180.png","fearful","1","02","02","gist","scaleDef","earth","orientMir","",""
"","","","","","html-slider-response","78","1505151","0.0-74.0","bdbrp513r3","10","NaN","<div style=""width:500px;"">
                            <p style=""font-size:50px; font-weight:bold;""
                            >fearful</p>
                            <div style=""width:240px; margin: auto;"">
                                <img src=""images/map02_gist_earth_scaleRev_orientMir_270.png"" style= ""width:200px""alt=""img"">
                            </div>
                        </div>","-100","","0","","","","images/map02_gist_earth_scaleRev_orientMir_270.png","fearful","1","02","02","gist","scaleRev","earth","orientMir","",""
"","","","","","html-slider-response","79","1509453","0.0-75.0","bdbrp513r3","10","NaN","<div style=""width:500px;"">
                            <p style=""font-size:50px; font-weight:bold;""
                            >fearful</p>
                            <div style=""width:240px; margin: auto;"">
                                <img src=""images/map12_PuRd_scaleRev_orientMir_270.png"" style= ""width:200px""alt=""img"">
                            </div>
                        </div>","-200","","0","","","","images/map12_PuRd_scaleRev_orientMir_270.png","fearful","1","12","12","PuRd","orientMir","scaleRev","270","",""
"","","","","","html-slider-response","80","1513371","0.0-76.0","bdbrp513r3","10","NaN","<div style=""width:500px;"">
                            <p style=""font-size:50px; font-weight:bold;""
                            >fearful</p>
                            <div style=""width:240px; margin: auto;"">
                                <img src=""images/map23_PiYG_scaleRev_orientDef_090.png"" style= ""width:200px""alt=""img"">
                            </div>
                        </div>","-114","","0","","","","images/map23_PiYG_scaleRev_orientDef_090.png","fearful","1","23","23","PiYG","orientDef","scaleRev","090","",""
"","","","","","html-slider-response","81","1517018","0.0-77.0","bdbrp513r3","10","NaN","<div style=""width:500px;"">
                            <p style=""font-size:50px; font-weight:bold;""
                            >fearful</p>
                            <div style=""width:240px; margin: auto;"">
                                <img src=""images/map13_GnBu_scaleDef_orientMir_000.png"" style= ""width:200px""alt=""img"">
                            </div>
                        </div>","21","","0","","","","images/map13_GnBu_scaleDef_orientMir_000.png","fearful","1","13","13","GnBu","orientMir","scaleDef","000","",""
"","","","","","html-slider-response","82","1519885","0.0-78.0","bdbrp513r3","10","NaN","<div style=""width:500px;"">
                            <p style=""font-size:50px; font-weight:bold;""
                            >fearful</p>
                            <div style=""width:240px; margin: auto;"">
                                <img src=""images/map10_Blues_scaleRev_orientDef_090.png"" style= ""width:200px""alt=""img"">
                            </div>
                        </div>","-100","","0","","","","images/map10_Blues_scaleRev_orientDef_090.png","fearful","1","10","10","Blues","orientDef","scaleRev","090","",""
"","","","","","html-slider-response","83","1548103","0.0-79.0","bdbrp513r3","10","NaN","<div style=""width:500px;"">
                            <p style=""font-size:50px; font-weight:bold;""
                            >fearful</p>
                            <div style=""width:240px; margin: auto;"">
                                <img src=""images/map10_Oranges_scaleRev_orientMir_090.png"" style= ""width:200px""alt=""img"">
                            </div>
                        </div>","25","","0","","","","images/map10_Oranges_scaleRev_orientMir_090.png","fearful","1","10","10","Oranges","orientMir","scaleRev","090","",""
"","","","","","html-slider-response","84","1550719","0.0-80.0","bdbrp513r3","10","NaN","<div style=""width:500px;"">
                            <p style=""font-size:50px; font-weight:bold;""
                            >fearful</p>
                            <div style=""width:240px; margin: auto;"">
                                <img src=""images/map12_OrRd_scaleRev_orientMir_090.png"" style= ""width:200px""alt=""img"">
                            </div>
                        </div>","98","","0","","","","images/map12_OrRd_scaleRev_orientMir_090.png","fearful","1","12","12","OrRd","orientMir","scaleRev","090","",""
"","","","","","html-slider-response","85","1553669","0.0-81.0","bdbrp513r3","10","NaN","<div style=""width:500px;"">
                            <p style=""font-size:50px; font-weight:bold;""
                            >fearful</p>
                            <div style=""width:240px; margin: auto;"">
                                <img src=""images/map07_Greys_scaleRev_orientMir_090.png"" style= ""width:200px""alt=""img"">
                            </div>
                        </div>","108","","0","","","","images/map07_Greys_scaleRev_orientMir_090.png","fearful","1","07","07","Greys","orientMir","scaleRev","090","",""
"","","","","","html-slider-response","86","1556718","0.0-82.0","bdbrp513r3","10","NaN","<div style=""width:500px;"">
                            <p style=""font-size:50px; font-weight:bold;""
                            >fearful</p>
                            <div style=""width:240px; margin: auto;"">
                                <img src=""images/map13_RdPu_scaleDef_orientDef_000.png"" style= ""width:200px""alt=""img"">
                            </div>
                        </div>","-106","","0","","","","images/map13_RdPu_scaleDef_orientDef_000.png","fearful","1","13","13","RdPu","orientDef","scaleDef","000","",""
"","","","","","html-slider-response","87","1574885","0.0-83.0","bdbrp513r3","10","NaN","<div style=""width:500px;"">
                            <p style=""font-size:50px; font-weight:bold;""
                            >fearful</p>
                            <div style=""width:240px; margin: auto;"">
                                <img src=""images/map05_plasma_scaleRev_orientMir_090.png"" style= ""width:200px""alt=""img"">
                            </div>
                        </div>","-104","","0","","","","images/map05_plasma_scaleRev_orientMir_090.png","fearful","1","05","05","plasma","orientMir","scaleRev","090","",""
"","","","","","html-slider-response","88","1578618","0.0-84.0","bdbrp513r3","10","NaN","<div style=""width:500px;"">
                            <p style=""font-size:50px; font-weight:bold;""
                            >fearful</p>
                            <div style=""width:240px; margin: auto;"">
                                <img src=""images/map26_RdGy_scaleDef_orientDef_000.png"" style= ""width:200px""alt=""img"">
                            </div>
                        </div>","90","","0","","","","images/map26_RdGy_scaleDef_orientDef_000.png","fearful","1","26","26","RdGy","orientDef","scaleDef","000","",""
"","","","","","html-slider-response","89","1583536","0.0-85.0","bdbrp513r3","10","NaN","<div style=""width:500px;"">
                            <p style=""font-size:50px; font-weight:bold;""
                            >fearful</p>
                            <div style=""width:240px; margin: auto;"">
                                <img src=""images/map15_YlGnBu_scaleRev_orientDef_090.png"" style= ""width:200px""alt=""img"">
                            </div>
                        </div>","-98","","0","","","","images/map15_YlGnBu_scaleRev_orientDef_090.png","fearful","1","15","15","YlGnBu","orientDef","scaleRev","090","",""
"","","","","","html-slider-response","90","1587402","0.0-86.0","bdbrp513r3","10","NaN","<div style=""width:500px;"">
                            <p style=""font-size:50px; font-weight:bold;""
                            >fearful</p>
                            <div style=""width:240px; margin: auto;"">
                                <img src=""images/map02_berlin_scaleDef_orientDef_000.png"" style= ""width:200px""alt=""img"">
                            </div>
                        </div>","74","","0","","","","images/map02_berlin_scaleDef_orientDef_000.png","fearful","1","02","02","berlin","orientDef","scaleDef","000","",""
"","","","","","html-slider-response","91","1590901","0.0-87.0","bdbrp513r3","10","NaN","<div style=""width:500px;"">
                            <p style=""font-size:50px; font-weight:bold;""
                            >fearful</p>
                            <div style=""width:240px; margin: auto;"">
                                <img src=""images/map23_PuOr_scaleDef_orientMir_180.png"" style= ""width:200px""alt=""img"">
                            </div>
                        </div>","-53","","0","","","","images/map23_PuOr_scaleDef_orientMir_180.png","fearful","1","23","23","PuOr","orientMir","scaleDef","180","",""
"","","","","","html-slider-response","92","1604867","0.0-88.0","bdbrp513r3","10","NaN","<div style=""width:500px;"">
                            <p style=""font-size:50px; font-weight:bold;""
                            >fearful</p>
                            <div style=""width:240px; margin: auto;"">
                                <img src=""images/map26_RdBu_scaleDef_orientDef_180.png"" style= ""width:200px""alt=""img"">
                            </div>
                        </div>","101","","0","","","","images/map26_RdBu_scaleDef_orientDef_180.png","fearful","1","26","26","RdBu","orientDef","scaleDef","180","",""
"","","","","","html-slider-response","93","1613350","0.0-89.0","bdbrp513r3","10","NaN","<div style=""width:500px;"">
                            <p style=""font-size:50px; font-weight:bold;""
                            >fearful</p>
                            <div style=""width:240px; margin: auto;"">
                                <img src=""images/map13_BuPu_scaleRev_orientDef_270.png"" style= ""width:200px""alt=""img"">
                            </div>
                        </div>","-105","","0","","","","images/map13_BuPu_scaleRev_orientDef_270.png","fearful","1","13","13","BuPu","orientDef","scaleRev","270","",""
"","","","","","html-slider-response","94","1617468","0.0-90.0","bdbrp513r3","10","NaN","<div style=""width:500px;"">
                            <p style=""font-size:50px; font-weight:bold;""
                            >fearful</p>
                            <div style=""width:240px; margin: auto;"">
                                <img src=""images/map12_YlOrRd_scaleDef_orientDef_180.png"" style= ""width:200px""alt=""img"">
                            </div>
                        </div>","100","","0","","","","images/map12_YlOrRd_scaleDef_orientDef_180.png","fearful","1","12","12","YlOrRd","orientDef","scaleDef","180","",""
"","","","","","html-slider-response","95","1620434","0.0-91.0","bdbrp513r3","10","NaN","<div style=""width:500px;"">
                            <p style=""font-size:50px; font-weight:bold;""
                            >fearful</p>
                            <div style=""width:240px; margin: auto;"">
                                <img src=""images/map07_magma_scaleRev_orientDef_090.png"" style= ""width:200px""alt=""img"">
                            </div>
                        </div>","46","","0","","","","images/map07_magma_scaleRev_orientDef_090.png","fearful","1","07","07","magma","orientDef","scaleRev","090","",""
"","","","","","html-slider-response","96","1626201","0.0-92.0","bdbrp513r3","10","NaN","<div style=""width:500px;"">
                            <p style=""font-size:50px; font-weight:bold;""
                            >fearful</p>
                            <div style=""width:240px; margin: auto;"">
                                <img src=""images/map13_RdPu_scaleRev_orientDef_090.png"" style= ""width:200px""alt=""img"">
                            </div>
                        </div>","-190","","0","","","","images/map13_RdPu_scaleRev_orientDef_090.png","fearful","1","13","13","RdPu","orientDef","scaleRev","090","",""
"","","","","","html-slider-response","97","1673649","0.0-93.0","bdbrp513r3","10","NaN","<div style=""width:500px;"">
                            <p style=""font-size:50px; font-weight:bold;""
                            >fearful</p>
                            <div style=""width:240px; margin: auto;"">
                                <img src=""images/map15_YlGnBu_scaleDef_orientDef_000.png"" style= ""width:200px""alt=""img"">
                            </div>
                        </div>","-110","","0","","","","images/map15_YlGnBu_scaleDef_orientDef_000.png","fearful","1","15","15","YlGnBu","orientDef","scaleDef","000","",""
"","","","","","html-slider-response","98","1676767","0.0-94.0","bdbrp513r3","10","NaN","<div style=""width:500px;"">
                            <p style=""font-size:50px; font-weight:bold;""
                            >fearful</p>
                            <div style=""width:240px; margin: auto;"">
                                <img src=""images/map02_vanimo_scaleRev_orientMir_090.png"" style= ""width:200px""alt=""img"">
                            </div>
                        </div>","108","","0","","","","images/map02_vanimo_scaleRev_orientMir_090.png","fearful","1","02","02","vanimo","orientMir","scaleRev","090","",""
"","","","","","html-button-response","99","2490439","0.0-95.0","bdbrp513r3","10","813179","<p>Great Job! You've finished block 1.<br></br> You have 4 block(s) left to go.<br></br></p>","0","","","","","","","","","","","","","","","",""
"","","","","","html-button-response","100","2499388","0.0-96.0","bdbrp513r3","10","8947","<p>In this block of trials, you will be asked to rate how much you associate each map with:</p > <p style = 'font-size:150%; font-weight: bold'>sad</p><br></br>","0","","","","","","","","","","","","","","","",""
"","","","","","html-slider-response","101","2514699","0.0-97.0","bdbrp513r3","10","NaN","<div style=""width:500px;"">
                            <p style=""font-size:50px; font-weight:bold;""
                            >sad</p>
                            <div style=""width:240px; margin: auto;"">
                                <img src=""images/map07_magma_scaleDef_orientDef_000.png"" style= ""width:200px""alt=""img"">
                            </div>
                        </div>","-200","","0","","","","images/map07_magma_scaleDef_orientDef_000.png","sad","1","07","07","magma","orientDef","scaleDef","000","",""
"","","","","","html-slider-response","102","2519600","0.0-98.0","bdbrp513r3","10","NaN","<div style=""width:500px;"">
                            <p style=""font-size:50px; font-weight:bold;""
                            >sad</p>
                            <div style=""width:240px; margin: auto;"">
                                <img src=""images/map23_PuOr_scaleRev_orientMir_270.png"" style= ""width:200px""alt=""img"">
                            </div>
                        </div>","-110","","0","","","","images/map23_PuOr_scaleRev_orientMir_270.png","sad","1","23","23","PuOr","orientMir","scaleRev","270","",""
"","","","","","html-slider-response","103","2536998","0.0-99.0","bdbrp513r3","10","NaN","<div style=""width:500px;"">
                            <p style=""font-size:50px; font-weight:bold;""
                            >sad</p>
                            <div style=""width:240px; margin: auto;"">
                                <img src=""images/map15_PuBuGn_scaleRev_orientDef_270.png"" style= ""width:200px""alt=""img"">
                            </div>
                        </div>","95","","0","","","","images/map15_PuBuGn_scaleRev_orientDef_270.png","sad","1","15","15","PuBuGn","orientDef","scaleRev","270","",""
"","","","","","html-slider-response","104","2541599","0.0-100.0","bdbrp513r3","10","NaN","<div style=""width:500px;"">
                            <p style=""font-size:50px; font-weight:bold;""
                            >sad</p>
                            <div style=""width:240px; margin: auto;"">
                                <img src=""images/map26_RdBu_scaleDef_orientDef_180.png"" style= ""width:200px""alt=""img"">
                            </div>
                        </div>","155","","0","","","","images/map26_RdBu_scaleDef_orientDef_180.png","sad","1","26","26","RdBu","orientDef","scaleDef","180","",""
"","","","","","html-slider-response","105","2546516","0.0-101.0","bdbrp513r3","10","NaN","<div style=""width:500px;"">
                            <p style=""font-size:50px; font-weight:bold;""
                            >sad</p>
                            <div style=""width:240px; margin: auto;"">
                                <img src=""images/map02_berlin_scaleRev_orientDef_090.png"" style= ""width:200px""alt=""img"">
                            </div>
                        </div>","102","","0","","","","images/map02_berlin_scaleRev_orientDef_090.png","sad","1","02","02","berlin","orientDef","scaleRev","090","",""
"","","","","","html-slider-response","106","2550914","0.0-102.0","bdbrp513r3","10","NaN","<div style=""width:500px;"">
                            <p style=""font-size:50px; font-weight:bold;""
                            >sad</p>
                            <div style=""width:240px; margin: auto;"">
                                <img src=""images/map27_bwr_scaleDef_orientMir_000.png"" style= ""width:200px""alt=""img"">
                            </div>
                        </div>","-110","","0","","","","images/map27_bwr_scaleDef_orientMir_000.png","sad","1","27","27","bwr","orientMir","scaleDef","000","",""
"","","","","","html-slider-response","107","2554848","0.0-103.0","bdbrp513r3","10","NaN","<div style=""width:500px;"">
                            <p style=""font-size:50px; font-weight:bold;""
                            >sad</p>
                            <div style=""width:240px; margin: auto;"">
                                <img src=""images/map27_Spectral_scaleRev_orientDef_090.png"" style= ""width:200px""alt=""img"">
                            </div>
                        </div>","-200","","0","","","","images/map27_Spectral_scaleRev_orientDef_090.png","sad","1","27","27","Spectral","orientDef","scaleRev","090","",""
"","","","","","html-slider-response","108","2558315","0.0-104.0","bdbrp513r3","10","NaN","<div style=""width:500px;"">
                            <p style=""font-size:50px; font-weight:bold;""
                            >sad</p>
                            <div style=""width:240px; margin: auto;"">
                                <img src=""images/map05_inferno_scaleDef_orientMir_180.png"" style= ""width:200px""alt=""img"">
                            </div>
                        </div>","-107","","0","","","","images/map05_inferno_scaleDef_orientMir_180.png","sad","1","05","05","inferno","orientMir","scaleDef","180","",""
"","","","","","html-slider-response","109","2563297","0.0-105.0","bdbrp513r3","10","NaN","<div style=""width:500px;"">
                            <p style=""font-size:50px; font-weight:bold;""
                            >sad</p>
                            <div style=""width:240px; margin: auto;"">
                                <img src=""images/map12_OrRd_scaleRev_orientMir_090.png"" style= ""width:200px""alt=""img"">
                            </div>
                        </div>","16","","0","","","","images/map12_OrRd_scaleRev_orientMir_090.png","sad","1","12","12","OrRd","orientMir","scaleRev","090","",""
"","","","","","html-slider-response","110","2565915","0.0-106.0","bdbrp513r3","10","NaN","<div style=""width:500px;"">
                            <p style=""font-size:50px; font-weight:bold;""
                            >sad</p>
                            <div style=""width:240px; margin: auto;"">
                                <img src=""images/map05_plasma_scaleDef_orientMir_000.png"" style= ""width:200px""alt=""img"">
                            </div>
                        </div>","-107","","0","","","","images/map05_plasma_scaleDef_orientMir_000.png","sad","1","05","05","plasma","orientMir","scaleDef","000","",""
"","","","","","html-slider-response","111","2577713","0.0-107.0","bdbrp513r3","10","NaN","<div style=""width:500px;"">
                            <p style=""font-size:50px; font-weight:bold;""
                            >sad</p>
                            <div style=""width:240px; margin: auto;"">
                                <img src=""images/map15_YlGnBu_scaleRev_orientDef_090.png"" style= ""width:200px""alt=""img"">
                            </div>
                        </div>","102","","0","","","","images/map15_YlGnBu_scaleRev_orientDef_090.png","sad","1","15","15","YlGnBu","orientDef","scaleRev","090","",""
"","","","","","html-slider-response","112","2581482","0.0-108.0","bdbrp513r3","10","NaN","<div style=""width:500px;"">
                            <p style=""font-size:50px; font-weight:bold;""
                            >sad</p>
                            <div style=""width:240px; margin: auto;"">
                                <img src=""images/map07_Greys_scaleRev_orientMir_090.png"" style= ""width:200px""alt=""img"">
                            </div>
                        </div>","104","","0","","","","images/map07_Greys_scaleRev_orientMir_090.png","sad","1","07","07","Greys","orientMir","scaleRev","090","",""
"","","","","","html-slider-response","113","2586449","0.0-109.0","bdbrp513r3","10","NaN","<div style=""width:500px;"">
                            <p style=""font-size:50px; font-weight:bold;""
                            >sad</p>
                            <div style=""width:240px; margin: auto;"">
                                <img src=""images/map07_Purples_scaleRev_orientMir_270.png"" style= ""width:200px""alt=""img"">
                            </div>
                        </div>","-61","","0","","","","images/map07_Purples_scaleRev_orientMir_270.png","sad","1","07","07","Purples","orientMir","scaleRev","270","",""
"","","","","","html-slider-response","114","2591081","0.0-110.0","bdbrp513r3","10","NaN","<div style=""width:500px;"">
                            <p style=""font-size:50px; font-weight:bold;""
                            >sad</p>
                            <div style=""width:240px; margin: auto;"">
                                <img src=""images/map15_PuBuGn_scaleDef_orientDef_180.png"" style= ""width:200px""alt=""img"">
                            </div>
                        </div>","86","","0","","","","images/map15_PuBuGn_scaleDef_orientDef_180.png","sad","1","15","15","PuBuGn","orientDef","scaleDef","180","",""
"","","","","","html-slider-response","115","2595964","0.0-111.0","bdbrp513r3","10","NaN","<div style=""width:500px;"">
                            <p style=""font-size:50px; font-weight:bold;""
                            >sad</p>
                            <div style=""width:240px; margin: auto;"">
                                <img src=""images/map23_PuOr_scaleDef_orientMir_180.png"" style= ""width:200px""alt=""img"">
                            </div>
                        </div>","-99","","0","","","","images/map23_PuOr_scaleDef_orientMir_180.png","sad","1","23","23","PuOr","orientMir","scaleDef","180","",""
"","","","","","html-slider-response","116","2615214","0.0-112.0","bdbrp513r3","10","NaN","<div style=""width:500px;"">
                            <p style=""font-size:50px; font-weight:bold;""
                            >sad</p>
                            <div style=""width:240px; margin: auto;"">
                                <img src=""images/map07_magma_scaleRev_orientDef_090.png"" style= ""width:200px""alt=""img"">
                            </div>
                        </div>","-200","","0","","","","images/map07_magma_scaleRev_orientDef_090.png","sad","1","07","07","magma","orientDef","scaleRev","090","",""
"","","","","","html-slider-response","117","2621980","0.0-113.0","bdbrp513r3","10","NaN","<div style=""width:500px;"">
                            <p style=""font-size:50px; font-weight:bold;""
                            >sad</p>
                            <div style=""width:240px; margin: auto;"">
                                <img src=""images/map23_PRGn_scaleRev_orientDef_270.png"" style= ""width:200px""alt=""img"">
                            </div>
                        </div>","-120","","0","","","","images/map23_PRGn_scaleRev_orientDef_270.png","sad","1","23","23","PRGn","orientDef","scaleRev","270","",""
"","","","","","html-slider-response","118","2628913","0.0-114.0","bdbrp513r3","10","NaN","<div style=""width:500px;"">
                            <p style=""font-size:50px; font-weight:bold;""
                            >sad</p>
                            <div style=""width:240px; margin: auto;"">
                                <img src=""images/map13_GnBu_scaleDef_orientMir_000.png"" style= ""width:200px""alt=""img"">
                            </div>
                        </div>","104","","0","","","","images/map13_GnBu_scaleDef_orientMir_000.png","sad","1","13","13","GnBu","orientMir","scaleDef","000","",""
"","","","","","html-slider-response","119","2632814","0.0-115.0","bdbrp513r3","10","NaN","<div style=""width:500px;"">
                            <p style=""font-size:50px; font-weight:bold;""
                            >sad</p>
                            <div style=""width:240px; margin: auto;"">
                                <img src=""images/map26_RdBu_scaleRev_orientDef_270.png"" style= ""width:200px""alt=""img"">
                            </div>
                        </div>","64","","0","","","","images/map26_RdBu_scaleRev_orientDef_270.png","sad","1","26","26","RdBu","orientDef","scaleRev","270","",""
"","","","","","html-slider-response","120","2636330","0.0-116.0","bdbrp513r3","10","NaN","<div style=""width:500px;"">
                            <p style=""font-size:50px; font-weight:bold;""
                            >sad</p>
                            <div style=""width:240px; margin: auto;"">
                                <img src=""images/map05_inferno_scaleRev_orientMir_270.png"" style= ""width:200px""alt=""img"">
                            </div>
                        </div>","-200","","0","","","","images/map05_inferno_scaleRev_orientMir_270.png","sad","1","05","05","inferno","orientMir","scaleRev","270","",""
"","","","","","html-slider-response","121","2639597","0.0-117.0","bdbrp513r3","10","NaN","<div style=""width:500px;"">
                            <p style=""font-size:50px; font-weight:bold;""
                            >sad</p>
                            <div style=""width:240px; margin: auto;"">
                                <img src=""images/map02_managua_scaleDef_orientDef_180.png"" style= ""width:200px""alt=""img"">
                            </div>
                        </div>","110","","0","","","","images/map02_managua_scaleDef_orientDef_180.png","sad","1","02","02","managua","orientDef","scaleDef","180","",""
"","","","","","html-slider-response","122","2642081","0.0-118.0","bdbrp513r3","10","NaN","<div style=""width:500px;"">
                            <p style=""font-size:50px; font-weight:bold;""
                            >sad</p>
                            <div style=""width:240px; margin: auto;"">
                                <img src=""images/map26_RdYlGn_scaleDef_orientMir_180.png"" style= ""width:200px""alt=""img"">
                            </div>
                        </div>","-200","","0","","","","images/map26_RdYlGn_scaleDef_orientMir_180.png","sad","1","26","26","RdYlGn","orientMir","scaleDef","180","",""
"","","","","","html-slider-response","123","2645614","0.0-119.0","bdbrp513r3","10","NaN","<div style=""width:500px;"">
                            <p style=""font-size:50px; font-weight:bold;""
                            >sad</p>
                            <div style=""width:240px; margin: auto;"">
                                <img src=""images/map27_coolwarm_scaleRev_orientDef_270.png"" style= ""width:200px""alt=""img"">
                            </div>
                        </div>","-86","","0","","","","images/map27_coolwarm_scaleRev_orientDef_270.png","sad","1","27","27","coolwarm","orientDef","scaleRev","270","",""
"","","","","","html-slider-response","124","2648579","0.0-120.0","bdbrp513r3","10","NaN","<div style=""width:500px;"">
                            <p style=""font-size:50px; font-weight:bold;""
                            >sad</p>
                            <div style=""width:240px; margin: auto;"">
                                <img src=""images/map02_berlin_scaleDef_orientDef_000.png"" style= ""width:200px""alt=""img"">
                            </div>
                        </div>","149","","0","","","","images/map02_berlin_scaleDef_orientDef_000.png","sad","1","02","02","berlin","orientDef","scaleDef","000","",""
"","","","","","html-slider-response","125","2657329","0.0-121.0","bdbrp513r3","10","NaN","<div style=""width:500px;"">
                            <p style=""font-size:50px; font-weight:bold;""
                            >sad</p>
                            <div style=""width:240px; margin: auto;"">
                                <img src=""images/map10_Reds_scaleDef_orientMir_180.png"" style= ""width:200px""alt=""img"">
                            </div>
                        </div>","-155","","0","","","","images/map10_Reds_scaleDef_orientMir_180.png","sad","1","10","10","Reds","orientMir","scaleDef","180","",""
"","","","","","html-slider-response","126","2663380","0.0-122.0","bdbrp513r3","10","NaN","<div style=""width:500px;"">
                            <p style=""font-size:50px; font-weight:bold;""
                            >sad</p>
                            <div style=""width:240px; margin: auto;"">
                                <img src=""images/map10_Blues_scaleRev_orientDef_090.png"" style= ""width:200px""alt=""img"">
                            </div>
                        </div>","102","","0","","","","images/map10_Blues_scaleRev_orientDef_090.png","sad","1","10","10","Blues","orientDef","scaleRev","090","",""
"","","","","","html-slider-response","127","2670696","0.0-123.0","bdbrp513r3","10","NaN","<div style=""width:500px;"">
                            <p style=""font-size:50px; font-weight:bold;""
                            >sad</p>
                            <div style=""width:240px; margin: auto;"">
                                <img src=""images/map07_Purples_scaleDef_orientMir_180.png"" style= ""width:200px""alt=""img"">
                            </div>
                        </div>","-66","","0","","","","images/map07_Purples_scaleDef_orientMir_180.png","sad","1","07","07","Purples","orientMir","scaleDef","180","",""
"","","","","","html-slider-response","128","2678380","0.0-124.0","bdbrp513r3","10","NaN","<div style=""width:500px;"">
                            <p style=""font-size:50px; font-weight:bold;""
                            >sad</p>
                            <div style=""width:240px; margin: auto;"">
                                <img src=""images/map07_cividis_scaleRev_orientDef_270.png"" style= ""width:200px""alt=""img"">
                            </div>
                        </div>","-122","","0","","","","images/map07_cividis_scaleRev_orientDef_270.png","sad","1","07","07","cividis","orientDef","scaleRev","270","",""
"","","","","","html-slider-response","129","2681646","0.0-125.0","bdbrp513r3","10","NaN","<div style=""width:500px;"">
                            <p style=""font-size:50px; font-weight:bold;""
                            >sad</p>
                            <div style=""width:240px; margin: auto;"">
                                <img src=""images/map12_YlOrBr_scaleDef_orientDef_000.png"" style= ""width:200px""alt=""img"">
                            </div>
                        </div>","22","","0","","","","images/map12_YlOrBr_scaleDef_orientDef_000.png","sad","1","12","12","YlOrBr","orientDef","scaleDef","000","",""
"","","","","","html-slider-response","130","2684346","0.0-126.0","bdbrp513r3","10","NaN","<div style=""width:500px;"">
                            <p style=""font-size:50px; font-weight:bold;""
                            >sad</p>
                            <div style=""width:240px; margin: auto;"">
                                <img src=""images/map02_managua_scaleRev_orientDef_270.png"" style= ""width:200px""alt=""img"">
                            </div>
                        </div>","186","","0","","","","images/map02_managua_scaleRev_orientDef_270.png","sad","1","02","02","managua","orientDef","scaleRev","270","",""
"","","","","","html-slider-response","131","2686697","0.0-127.0","bdbrp513r3","10","NaN","<div style=""width:500px;"">
                            <p style=""font-size:50px; font-weight:bold;""
                            >sad</p>
                            <div style=""width:240px; margin: auto;"">
                                <img src=""images/map12_PuRd_scaleRev_orientMir_270.png"" style= ""width:200px""alt=""img"">
                            </div>
                        </div>","-200","","0","","","","images/map12_PuRd_scaleRev_orientMir_270.png","sad","1","12","12","PuRd","orientMir","scaleRev","270","",""
"","","","","","html-slider-response","132","2691496","0.0-128.0","bdbrp513r3","10","NaN","<div style=""width:500px;"">
                            <p style=""font-size:50px; font-weight:bold;""
                            >sad</p>
                            <div style=""width:240px; margin: auto;"">
                                <img src=""images/map02_gist_earth_scaleRev_orientMir_270.png"" style= ""width:200px""alt=""img"">
                            </div>
                        </div>","19","","0","","","","images/map02_gist_earth_scaleRev_orientMir_270.png","sad","1","02","02","gist","scaleRev","earth","orientMir","",""
"","","","","","html-slider-response","133","2694562","0.0-129.0","bdbrp513r3","10","NaN","<div style=""width:500px;"">
                            <p style=""font-size:50px; font-weight:bold;""
                            >sad</p>
                            <div style=""width:240px; margin: auto;"">
                                <img src=""images/map15_BuGn_scaleDef_orientMir_000.png"" style= ""width:200px""alt=""img"">
                            </div>
                        </div>","-101","","0","","","","images/map15_BuGn_scaleDef_orientMir_000.png","sad","1","15","15","BuGn","orientMir","scaleDef","000","",""
"","","","","","html-slider-response","134","2697746","0.0-130.0","bdbrp513r3","10","NaN","<div style=""width:500px;"">
                            <p style=""font-size:50px; font-weight:bold;""
                            >sad</p>
                            <div style=""width:240px; margin: auto;"">
                                <img src=""images/map10_Blues_scaleDef_orientDef_000.png"" style= ""width:200px""alt=""img"">
                            </div>
                        </div>","99","","0","","","","images/map10_Blues_scaleDef_orientDef_000.png","sad","1","10","10","Blues","orientDef","scaleDef","000","",""
"","","","","","html-slider-response","135","2700345","0.0-131.0","bdbrp513r3","10","NaN","<div style=""width:500px;"">
                            <p style=""font-size:50px; font-weight:bold;""
                            >sad</p>
                            <div style=""width:240px; margin: auto;"">
                                <img src=""images/map26_RdYlGn_scaleRev_orientMir_270.png"" style= ""width:200px""alt=""img"">
                            </div>
                        </div>","-200","","0","","","","images/map26_RdYlGn_scaleRev_orientMir_270.png","sad","1","26","26","RdYlGn","orientMir","scaleRev","270","",""
"","","","","","html-slider-response","136","2703878","0.0-132.0","bdbrp513r3","10","NaN","<div style=""width:500px;"">
                            <p style=""font-size:50px; font-weight:bold;""
                            >sad</p>
                            <div style=""width:240px; margin: auto;"">
                                <img src=""images/map10_Greens_scaleDef_orientDef_180.png"" style= ""width:200px""alt=""img"">
                            </div>
                        </div>","-102","","0","","","","images/map10_Greens_scaleDef_orientDef_180.png","sad","1","10","10","Greens","orientDef","scaleDef","180","",""
"","","","","","html-slider-response","137","2707661","0.0-133.0","bdbrp513r3","10","NaN","<div style=""width:500px;"">
                            <p style=""font-size:50px; font-weight:bold;""
                            >sad</p>
                            <div style=""width:240px; margin: auto;"">
                                <img src=""images/map23_PiYG_scaleDef_orientDef_000.png"" style= ""width:200px""alt=""img"">
                            </div>
                        </div>","-182","","0","","","","images/map23_PiYG_scaleDef_orientDef_000.png","sad","1","23","23","PiYG","orientDef","scaleDef","000","",""
"","","","","","html-slider-response","138","2713730","0.0-134.0","bdbrp513r3","10","NaN","<div style=""width:500px;"">
                            <p style=""font-size:50px; font-weight:bold;""
                            >sad</p>
                            <div style=""width:240px; margin: auto;"">
                                <img src=""images/map15_YlGn_scaleRev_orientMir_270.png"" style= ""width:200px""alt=""img"">
                            </div>
                        </div>","22","","0","","","","images/map15_YlGn_scaleRev_orientMir_270.png","sad","1","15","15","YlGn","orientMir","scaleRev","270","",""
"","","","","","html-slider-response","139","2719381","0.0-135.0","bdbrp513r3","10","NaN","<div style=""width:500px;"">
                            <p style=""font-size:50px; font-weight:bold;""
                            >sad</p>
                            <div style=""width:240px; margin: auto;"">
                                <img src=""images/map10_Greens_scaleRev_orientDef_270.png"" style= ""width:200px""alt=""img"">
                            </div>
                        </div>","-36","","0","","","","images/map10_Greens_scaleRev_orientDef_270.png","sad","1","10","10","Greens","orientDef","scaleRev","270","",""
"","","","","","html-slider-response","140","2721845","0.0-136.0","bdbrp513r3","10","NaN","<div style=""width:500px;"">
                            <p style=""font-size:50px; font-weight:bold;""
                            >sad</p>
                            <div style=""width:240px; margin: auto;"">
                                <img src=""images/map10_Oranges_scaleDef_orientMir_000.png"" style= ""width:200px""alt=""img"">
                            </div>
                        </div>","37","","0","","","","images/map10_Oranges_scaleDef_orientMir_000.png","sad","1","10","10","Oranges","orientMir","scaleDef","000","",""
"","","","","","html-button-response","141","2746834","0.0-137.0","bdbrp513r3","10","24488","<p>You are doing great!<br></br> You are halway done with the current block. When you are ready to continue, click the 'Continue' button.</p>","0","","","","","","","","","","","","","","","",""
"","","","","","html-slider-response","142","2755779","0.0-138.0","bdbrp513r3","10","NaN","<div style=""width:500px;"">
                            <p style=""font-size:50px; font-weight:bold;""
                            >sad</p>
                            <div style=""width:240px; margin: auto;"">
                                <img src=""images/map23_PiYG_scaleRev_orientDef_090.png"" style= ""width:200px""alt=""img"">
                            </div>
                        </div>","-114","","0","","","","images/map23_PiYG_scaleRev_orientDef_090.png","sad","1","23","23","PiYG","orientDef","scaleRev","090","",""
"","","","","","html-slider-response","143","2758694","0.0-139.0","bdbrp513r3","10","NaN","<div style=""width:500px;"">
                            <p style=""font-size:50px; font-weight:bold;""
                            >sad</p>
                            <div style=""width:240px; margin: auto;"">
                                <img src=""images/map27_Spectral_scaleDef_orientDef_000.png"" style= ""width:200px""alt=""img"">
                            </div>
                        </div>","-32","","0","","","","images/map27_Spectral_scaleDef_orientDef_000.png","sad","1","27","27","Spectral","orientDef","scaleDef","000","",""
"","","","","","html-slider-response","144","2766745","0.0-140.0","bdbrp513r3","10","NaN","<div style=""width:500px;"">
                            <p style=""font-size:50px; font-weight:bold;""
                            >sad</p>
                            <div style=""width:240px; margin: auto;"">
                                <img src=""images/map13_PuBu_scaleDef_orientMir_180.png"" style= ""width:200px""alt=""img"">
                            </div>
                        </div>","115","","0","","","","images/map13_PuBu_scaleDef_orientMir_180.png","sad","1","13","13","PuBu","orientMir","scaleDef","180","",""
"","","","","","html-slider-response","145","2769410","0.0-141.0","bdbrp513r3","10","NaN","<div style=""width:500px;"">
                            <p style=""font-size:50px; font-weight:bold;""
                            >sad</p>
                            <div style=""width:240px; margin: auto;"">
                                <img src=""images/map07_cividis_scaleDef_orientDef_180.png"" style= ""width:200px""alt=""img"">
                            </div>
                        </div>","-93","","0","","","","images/map07_cividis_scaleDef_orientDef_180.png","sad","1","07","07","cividis","orientDef","scaleDef","180","",""
"","","","","","html-slider-response","146","2777228","0.0-142.0","bdbrp513r3","10","NaN","<div style=""width:500px;"">
                            <p style=""font-size:50px; font-weight:bold;""
                            >sad</p>
                            <div style=""width:240px; margin: auto;"">
                                <img src=""images/map07_Greys_scaleDef_orientMir_000.png"" style= ""width:200px""alt=""img"">
                            </div>
                        </div>","110","","0","","","","images/map07_Greys_scaleDef_orientMir_000.png","sad","1","07","07","Greys","orientMir","scaleDef","000","",""
"","","","","","html-slider-response","147","2836977","0.0-143.0","bdbrp513r3","10","NaN","<div style=""width:500px;"">
                            <p style=""font-size:50px; font-weight:bold;""
                            >sad</p>
                            <div style=""width:240px; margin: auto;"">
                                <img src=""images/map05_viridis_scaleDef_orientDef_180.png"" style= ""width:200px""alt=""img"">
                            </div>
                        </div>","-95","","0","","","","images/map05_viridis_scaleDef_orientDef_180.png","sad","1","05","05","viridis","orientDef","scaleDef","180","",""
"","","","","","html-slider-response","148","2848194","0.0-144.0","bdbrp513r3","10","NaN","<div style=""width:500px;"">
                            <p style=""font-size:50px; font-weight:bold;""
                            >sad</p>
                            <div style=""width:240px; margin: auto;"">
                                <img src=""images/map02_vanimo_scaleDef_orientMir_000.png"" style= ""width:200px""alt=""img"">
                            </div>
                        </div>","-200","","0","","","","images/map02_vanimo_scaleDef_orientMir_000.png","sad","1","02","02","vanimo","orientMir","scaleDef","000","",""
"","","","","","html-slider-response","149","2855261","0.0-145.0","bdbrp513r3","10","NaN","<div style=""width:500px;"">
                            <p style=""font-size:50px; font-weight:bold;""
                            >sad</p>
                            <div style=""width:240px; margin: auto;"">
                                <img src=""images/map10_Reds_scaleRev_orientMir_270.png"" style= ""width:200px""alt=""img"">
                            </div>
                        </div>","-106","","0","","","","images/map10_Reds_scaleRev_orientMir_270.png","sad","1","10","10","Reds","orientMir","scaleRev","270","",""
"","","","","","html-slider-response","150","2857977","0.0-146.0","bdbrp513r3","10","NaN","<div style=""width:500px;"">
                            <p style=""font-size:50px; font-weight:bold;""
                            >sad</p>
                            <div style=""width:240px; margin: auto;"">
                                <img src=""images/map02_vanimo_scaleRev_orientMir_090.png"" style= ""width:200px""alt=""img"">
                            </div>
                        </div>","-200","","0","","","","images/map02_vanimo_scaleRev_orientMir_090.png","sad","1","02","02","vanimo","orientMir","scaleRev","090","",""
"","","","","","html-slider-response","151","2862094","0.0-147.0","bdbrp513r3","10","NaN","<div style=""width:500px;"">
                            <p style=""font-size:50px; font-weight:bold;""
                            >sad</p>
                            <div style=""width:240px; margin: auto;"">
                                <img src=""images/map27_seismic_scaleRev_orientMir_270.png"" style= ""width:200px""alt=""img"">
                            </div>
                        </div>","-103","","0","","","","images/map27_seismic_scaleRev_orientMir_270.png","sad","1","27","27","seismic","orientMir","scaleRev","270","",""
"","","","","","html-slider-response","152","2864511","0.0-148.0","bdbrp513r3","10","NaN","<div style=""width:500px;"">
                            <p style=""font-size:50px; font-weight:bold;""
                            >sad</p>
                            <div style=""width:240px; margin: auto;"">
                                <img src=""images/map12_PuRd_scaleDef_orientMir_180.png"" style= ""width:200px""alt=""img"">
                            </div>
                        </div>","-200","","0","","","","images/map12_PuRd_scaleDef_orientMir_180.png","sad","1","12","12","PuRd","orientMir","scaleDef","180","",""
"","","","","","html-slider-response","153","2867759","0.0-149.0","bdbrp513r3","10","NaN","<div style=""width:500px;"">
                            <p style=""font-size:50px; font-weight:bold;""
                            >sad</p>
                            <div style=""width:240px; margin: auto;"">
                                <img src=""images/map26_RdGy_scaleRev_orientDef_090.png"" style= ""width:200px""alt=""img"">
                            </div>
                        </div>","108","","0","","","","images/map26_RdGy_scaleRev_orientDef_090.png","sad","1","26","26","RdGy","orientDef","scaleRev","090","",""
"","","","","","html-slider-response","154","2871294","0.0-150.0","bdbrp513r3","10","NaN","<div style=""width:500px;"">
                            <p style=""font-size:50px; font-weight:bold;""
                            >sad</p>
                            <div style=""width:240px; margin: auto;"">
                                <img src=""images/map23_BrBG_scaleDef_orientMir_000.png"" style= ""width:200px""alt=""img"">
                            </div>
                        </div>","-58","","0","","","","images/map23_BrBG_scaleDef_orientMir_000.png","sad","1","23","23","BrBG","orientMir","scaleDef","000","",""
"","","","","","html-slider-response","155","2873893","0.0-151.0","bdbrp513r3","10","NaN","<div style=""width:500px;"">
                            <p style=""font-size:50px; font-weight:bold;""
                            >sad</p>
                            <div style=""width:240px; margin: auto;"">
                                <img src=""images/map05_turbo_scaleRev_orientDef_090.png"" style= ""width:200px""alt=""img"">
                            </div>
                        </div>","-200","","0","","","","images/map05_turbo_scaleRev_orientDef_090.png","sad","1","05","05","turbo","orientDef","scaleRev","090","",""
"","","","","","html-slider-response","156","2876778","0.0-152.0","bdbrp513r3","10","NaN","<div style=""width:500px;"">
                            <p style=""font-size:50px; font-weight:bold;""
                            >sad</p>
                            <div style=""width:240px; margin: auto;"">
                                <img src=""images/map13_PuBu_scaleRev_orientMir_270.png"" style= ""width:200px""alt=""img"">
                            </div>
                        </div>","133","","0","","","","images/map13_PuBu_scaleRev_orientMir_270.png","sad","1","13","13","PuBu","orientMir","scaleRev","270","",""
"","","","","","html-slider-response","157","2879026","0.0-153.0","bdbrp513r3","10","NaN","<div style=""width:500px;"">
                            <p style=""font-size:50px; font-weight:bold;""
                            >sad</p>
                            <div style=""width:240px; margin: auto;"">
                                <img src=""images/map13_RdPu_scaleDef_orientDef_000.png"" style= ""width:200px""alt=""img"">
                            </div>
