"success","timeout","failed_images","failed_audio","failed_video","trial_type","trial_index","time_elapsed","internal_node_id","subject_id","condition_num","rt","stimulus","response","question_order","slider_start","practiceTrial","practiceTrialNum","correct","image_path","concept","repetition","map_id","map_num","scale_name","orientation_code","mapping_code","rotation_code","ishihara_plate","correct_response"
"true","false","[]","[]","[]","preload","0","872","0.0-0.0","bdsyvyk18e","23","","","","","","","","","","","","","","","","","","",""
"","","","","","html-button-response","1","1989","0.0-1.0","bdsyvyk18e","23","1113","Welcome to our experiment!<p>At the bottom of this screen, you will see a button that says ""Begin Experiment"".<br>Please only click that button when you are ready to complete the 30 minute experiment in one sitting.</p><p> Once you click that button, it will not be possible to restart the experiment.","0","","","","","","","","","","","","","","","",""
"true","","","","","fullscreen","2","3802","0.0-2.0","bdsyvyk18e","23","809","","","","","","","","","","","","","","","","","",""
"","","","","","survey-multi-select","3","7552","0.0-3.0","bdsyvyk18e","23","3747","","{""Consent"":[""<strong>I consent</strong>""]}","[0]","","","","","","","","","","","","","","",""
"","","","","","html-button-response","4","11067","0.0-4.0","bdsyvyk18e","23","3514","Welcome! <p> This experiment involves two parts: demographic information, followed by the experimental task.<p> It will take about 30 minutes to complete both parts.","0","","","","","","","","","","","","","","","",""
"","","","","","survey-text","5","21919","0.0-5.0","bdsyvyk18e","23","10846","","{""Age"":""19"",""Gender"":""female"",""Race/ethnicity"":""white"",""Languages"":""english ""}","","","","","","","","","","","","","","","",""
"","","","","","html-slider-response","6","67586","0.0-6.0","bdsyvyk18e","23","45664","<div style='text-align:left; font-size:20px; line-height:25px; width: 1000px;'>
                                During this experiment you will be asked to rate how much you associate maps with                    different concepts.<br> Below, you can see some examples of the maps you will be asked to rate. Above the maps
                    is the list of concepts.<br>You will be asked                    to rate how much you associate each map with each concept on a scale from 'not at all' to 'very much' like the
                    one below. <br><br>
                    Now, please look at the list of concepts and maps. For each concept, think about the map you associate 'very
                    much' with the concept.<br>                     When you see that map during the experiment, please rate it near the 'very much' endpoint of the
                    scale.<br>Now, please think about which map you associate 'not at all'                     with each concept. When you see that map during the experiment, please rate it near the 'not at all' endpoint
                    of the scale.<br>
                    Please use the full range of the scale. That is, if a map is somewhat associated with the concept, you would
                    click partway between the middle point and right side of the scale.                    You will be asked to rate each map for a given concept before moving on to the next concept.<br>Press the
                    'Continue' button for instructions on how to use the slider.                    <br>
                </div>

                <div style=""width: 500px; margin: 0 auto;"">
                    <!-- Centered text paragraphs -->
                    <div style=""text-align: center; width: 500px;"">
                        <p style=""font-size:25px; line-height:15px;"">
                            happy&nbsp;&nbsp;&nbsp;&nbsp;
                            fearful&nbsp;&nbsp;&nbsp;&nbsp;
                            sad&nbsp;&nbsp;&nbsp;&nbsp;
                            disgust&nbsp;&nbsp;&nbsp;&nbsp;
                            angry
                        </p>
                        <!-- <p style=""font-size:20px; line-height:15px;"">fearful</p>
                        <p style=""font-size:20px;line-height:15px;"">sad</p>
                        <p style=""font-size:20px;line-height:15px;"">disgust</p>
                        <p style=""font-size:20px;line-height:15px;"">angry</p> -->
                    </div>
            

                    <!-- Grid section -->
                   <div style=""display: flex; justify-content: center; padding-top: 15px;"">
                    <div style=""display: grid; grid-template-columns: repeat(10, 55px); grid-gap: 5px; width: auto;"">
                        <img src=""images/map12_Purples_scaleDef_orientDef_270.png"" alt=""map"" style=""width: 100%;""><img src=""images/map27_RdGy_scaleDef_orientMir_090.png"" alt=""map"" style=""width: 100%;""><img src=""images/map07_turbo_scaleDef_orientMir_090.png"" alt=""map"" style=""width: 100%;""><img src=""images/map15_OrRd_scaleRev_orientDef_180.png"" alt=""map"" style=""width: 100%;""><img src=""images/map23_PuBu_scaleDef_orientDef_270.png"" alt=""map"" style=""width: 100%;""><img src=""images/map02_Spectral_scaleDef_orientMir_090.png"" alt=""map"" style=""width: 100%;""><img src=""images/map23_GnBu_scaleDef_orientDef_090.png"" alt=""map"" style=""width: 100%;""><img src=""images/map13_YlOrBr_scaleRev_orientMir_180.png"" alt=""map"" style=""width: 100%;""><img src=""images/map15_RdPu_scaleDef_orientMir_090.png"" alt=""map"" style=""width: 100%;""><img src=""images/map07_gist_earth_scaleDef_orientDef_270.png"" alt=""map"" style=""width: 100%;""><img src=""images/map26_YlGn_scaleDef_orientDef_270.png"" alt=""map"" style=""width: 100%;""><img src=""images/map10_inferno_scaleDef_orientDef_270.png"" alt=""map"" style=""width: 100%;""><img src=""images/map13_Oranges_scaleRev_orientDef_180.png"" alt=""map"" style=""width: 100%;""><img src=""images/map26_PRGn_scaleDef_orientMir_270.png"" alt=""map"" style=""width: 100%;""><img src=""images/map10_viridis_scaleRev_orientDef_000.png"" alt=""map"" style=""width: 100%;""><img src=""images/map26_PiYG_scaleRev_orientMir_180.png"" alt=""map"" style=""width: 100%;""><img src=""images/map13_Reds_scaleRev_orientMir_000.png"" alt=""map"" style=""width: 100%;""><img src=""images/map23_YlGnBu_scaleDef_orientMir_090.png"" alt=""map"" style=""width: 100%;""><img src=""images/map02_RdYlBu_scaleRev_orientDef_180.png"" alt=""map"" style=""width: 100%;""><img src=""images/map05_bwr_scaleDef_orientDef_090.png"" alt=""map"" style=""width: 100%;""><img src=""images/map02_RdYlGn_scaleDef_orientDef_270.png"" alt=""map"" style=""width: 100%;""><img src=""images/map05_coolwarm_scaleRev_orientDef_000.png"" alt=""map"" style=""width: 100%;""><img src=""images/map27_PuOr_scaleRev_orientMir_000.png"" alt=""map"" style=""width: 100%;""><img src=""images/map27_BrBG_scaleRev_orientDef_180.png"" alt=""map"" style=""width: 100%;""><img src=""images/map27_RdBu_scaleDef_orientMir_270.png"" alt=""map"" style=""width: 100%;""><img src=""images/map12_Greys_scaleDef_orientDef_090.png"" alt=""map"" style=""width: 100%;""><img src=""images/map12_cividis_scaleRev_orientDef_000.png"" alt=""map"" style=""width: 100%;""><img src=""images/map10_plasma_scaleDef_orientDef_090.png"" alt=""map"" style=""width: 100%;""><img src=""images/map15_YlOrRd_scaleRev_orientDef_000.png"" alt=""map"" style=""width: 100%;""><img src=""images/map23_BuPu_scaleRev_orientDef_000.png"" alt=""map"" style=""width: 100%;""><img src=""images/map07_managua_scaleRev_orientDef_000.png"" alt=""map"" style=""width: 100%;""><img src=""images/map26_PuBuGn_scaleRev_orientDef_000.png"" alt=""map"" style=""width: 100%;""><img src=""images/map26_BuGn_scaleRev_orientDef_180.png"" alt=""map"" style=""width: 100%;""><img src=""images/map10_magma_scaleDef_orientMir_090.png"" alt=""map"" style=""width: 100%;""><img src=""images/map12_Greens_scaleDef_orientMir_270.png"" alt=""map"" style=""width: 100%;""><img src=""images/map05_seismic_scaleDef_orientDef_270.png"" alt=""map"" style=""width: 100%;""><img src=""images/map07_vanimo_scaleRev_orientDef_180.png"" alt=""map"" style=""width: 100%;""><img src=""images/map12_Blues_scaleDef_orientMir_090.png"" alt=""map"" style=""width: 100%;""><img src=""images/map05_berlin_scaleRev_orientMir_180.png"" alt=""map"" style=""width: 100%;""><img src=""images/map15_PuRd_scaleRev_orientMir_000.png"" alt=""map"" style=""width: 100%;"">
                    </div>
                </div>

                    <!-- Clear floats -->
                    <div style=""clear: both;""></div>
                </div>
                            ","181","","0","true","","","","","","","","","","","","",""
"","","","","","html-button-response","7","69036","0.0-7.0","bdsyvyk18e","23","1448","<div style=""width:800px;""><p style=""text-align:left"">To move the slider, click and drag your cursor to the location of the scale where you would like to make your rating and then let go. When you let go of the slider, your response will be recorded and the next trial will begin. <br>
                    We are interested in your initial impressions of each map for the given concept, so please go with your first intuition. <br>
                    Before you begin the experiment, there will be four training trials for you to practice using the scale. <br>
                     When you are ready to start the training trials, please click ""Continue"".</p><br></div>","0","","","","","","","","","","","","","","","",""
"","","","","","html-slider-response","8","72363","0.0-8.0-0.0","bdsyvyk18e","23","NaN","<div style=""width:500px;"">
                                    <p style=""font-size:25px;"">Please move the slider all the way to the <br> right endpoint of the scale</p>

                                    </div>
                                </div>","200","","0","true","0","true","","","","","","","","","","",""
"","","","","","html-button-response","9","73935","0.0-8.0-1.0","bdsyvyk18e","23","1068","<p align='center'><b>Good job!</b> Click on 'Continue' to proceed.</p>","0","","","","","","","","","","","","","","","",""
"","","","","","html-slider-response","10","76014","0.0-9.0-0.0","bdsyvyk18e","23","NaN","<div style=""width:500px;"">
                                    <p style=""font-size:25px;"">Please move the slider all the way to the <br> left endpoint of the scale</p>

                                    </div>
                                </div>","-200","","0","true","1","true","","","","","","","","","","",""
"","","","","","html-button-response","11","77502","0.0-9.0-1.0","bdsyvyk18e","23","986","<p align='center'><b>Good job!</b> Click on 'Continue' to proceed.</p>","0","","","","","","","","","","","","","","","",""
"","","","","","html-slider-response","12","80513","0.0-10.0-0.0","bdsyvyk18e","23","NaN","<div style=""width:500px;"">
                                    <p style=""font-size:25px;"">Please move the slider halfway between the center and right endpoint of the scale</p>

                                    </div>
                                </div>","0","","0","true","2","false","","","","","","","","","","",""
"","","","","","html-button-response","13","84985","0.0-10.0-1.0","bdsyvyk18e","23","3970","<p align='center'><b>Not quite!</b> The slider was not placed near the instructed located. Click on 'Continue' to try again. </p>","0","","","","","","","","","","","","","","","",""
"","","","","","html-slider-response","14","90538","0.0-10.1-0.1","bdsyvyk18e","23","NaN","<div style=""width:500px;"">
                                    <p style=""font-size:25px;"">Please move the slider halfway between the center and right endpoint of the scale</p>

                                    </div>
                                </div>","107","","0","true","2","true","","","","","","","","","","",""
"","","","","","html-button-response","15","91785","0.0-10.1-1.1","bdsyvyk18e","23","745","<p align='center'><b>Good job!</b> Click on 'Continue' to proceed.</p>","0","","","","","","","","","","","","","","","",""
"","","","","","html-slider-response","16","95197","0.0-11.0-0.0","bdsyvyk18e","23","NaN","<div style=""width:500px;"">
                                    <p style=""font-size:25px;"">Please move the slider halfway between the center and left endpoint of the scale</p>

                                    </div>
                                </div>","-106","","0","true","3","true","","","","","","","","","","",""
"","","","","","html-button-response","17","96536","0.0-11.0-1.0","bdsyvyk18e","23","836","<p align='center'><b>Good job!</b> Click on 'Continue' to proceed.</p>","0","","","","","","","","","","","","","","","",""
"","","","","","html-button-response","18","97818","0.0-12.0","bdsyvyk18e","23","1281","<p>Great job! You've completed the practice trials. Now you will begin the main task.</p>","0","","","","","","","","","","","","","","","",""
"","","","","","html-button-response","19","99819","0.0-13.0","bdsyvyk18e","23","1999","<p>In this block of trials, you will be asked to rate how much you associate each map with:</p > <p style = 'font-size:150%; font-weight: bold'>happy</p><br></br>","0","","","","","","","","","","","","","","","",""
"","","","","","html-slider-response","20","101731","0.0-14.0","bdsyvyk18e","23","NaN","<div style=""width:500px;"">
                            <p style=""font-size:50px; font-weight:bold;""
                            >happy</p>
                            <div style=""width:240px; margin: auto;"">
                                <img src=""images/map07_turbo_scaleRev_orientMir_180.png"" style= ""width:200px""alt=""img"">
                            </div>
                        </div>","200","","0","","","","images/map07_turbo_scaleRev_orientMir_180.png","happy","1","07","07","turbo","orientMir","scaleRev","180","",""
"","","","","","html-slider-response","21","107765","0.0-15.0","bdsyvyk18e","23","NaN","<div style=""width:500px;"">
                            <p style=""font-size:50px; font-weight:bold;""
                            >happy</p>
                            <div style=""width:240px; margin: auto;"">
                                <img src=""images/map13_YlOrBr_scaleDef_orientMir_090.png"" style= ""width:200px""alt=""img"">
                            </div>
                        </div>","108","","0","","","","images/map13_YlOrBr_scaleDef_orientMir_090.png","happy","1","13","13","YlOrBr","orientMir","scaleDef","090","",""
"","","","","","html-slider-response","22","111532","0.0-16.0","bdsyvyk18e","23","NaN","<div style=""width:500px;"">
                            <p style=""font-size:50px; font-weight:bold;""
                            >happy</p>
                            <div style=""width:240px; margin: auto;"">
                                <img src=""images/map07_managua_scaleRev_orientDef_000.png"" style= ""width:200px""alt=""img"">
                            </div>
                        </div>","112","","0","","","","images/map07_managua_scaleRev_orientDef_000.png","happy","1","07","07","managua","orientDef","scaleRev","000","",""
"","","","","","html-slider-response","23","114398","0.0-17.0","bdsyvyk18e","23","NaN","<div style=""width:500px;"">
                            <p style=""font-size:50px; font-weight:bold;""
                            >happy</p>
                            <div style=""width:240px; margin: auto;"">
                                <img src=""images/map27_BrBG_scaleDef_orientDef_090.png"" style= ""width:200px""alt=""img"">
                            </div>
                        </div>","153","","0","","","","images/map27_BrBG_scaleDef_orientDef_090.png","happy","1","27","27","BrBG","orientDef","scaleDef","090","",""
"","","","","","html-slider-response","24","116997","0.0-18.0","bdsyvyk18e","23","NaN","<div style=""width:500px;"">
                            <p style=""font-size:50px; font-weight:bold;""
                            >happy</p>
                            <div style=""width:240px; margin: auto;"">
                                <img src=""images/map23_GnBu_scaleRev_orientDef_180.png"" style= ""width:200px""alt=""img"">
                            </div>
                        </div>","145","","0","","","","images/map23_GnBu_scaleRev_orientDef_180.png","happy","1","23","23","GnBu","orientDef","scaleRev","180","",""
"","","","","","html-slider-response","25","119688","0.0-19.0","bdsyvyk18e","23","NaN","<div style=""width:500px;"">
                            <p style=""font-size:50px; font-weight:bold;""
                            >happy</p>
                            <div style=""width:240px; margin: auto;"">
                                <img src=""images/map23_GnBu_scaleDef_orientDef_090.png"" style= ""width:200px""alt=""img"">
                            </div>
                        </div>","150","","0","","","","images/map23_GnBu_scaleDef_orientDef_090.png","happy","1","23","23","GnBu","orientDef","scaleDef","090","",""
"","","","","","html-slider-response","26","125231","0.0-20.0","bdsyvyk18e","23","NaN","<div style=""width:500px;"">
                            <p style=""font-size:50px; font-weight:bold;""
                            >happy</p>
                            <div style=""width:240px; margin: auto;"">
                                <img src=""images/map12_cividis_scaleRev_orientDef_000.png"" style= ""width:200px""alt=""img"">
                            </div>
                        </div>","-51","","0","","","","images/map12_cividis_scaleRev_orientDef_000.png","happy","1","12","12","cividis","orientDef","scaleRev","000","",""
"","","","","","html-slider-response","27","127613","0.0-21.0","bdsyvyk18e","23","NaN","<div style=""width:500px;"">
                            <p style=""font-size:50px; font-weight:bold;""
                            >happy</p>
                            <div style=""width:240px; margin: auto;"">
                                <img src=""images/map27_BrBG_scaleRev_orientDef_180.png"" style= ""width:200px""alt=""img"">
                            </div>
                        </div>","112","","0","","","","images/map27_BrBG_scaleRev_orientDef_180.png","happy","1","27","27","BrBG","orientDef","scaleRev","180","",""
"","","","","","html-slider-response","28","131295","0.0-22.0","bdsyvyk18e","23","NaN","<div style=""width:500px;"">
                            <p style=""font-size:50px; font-weight:bold;""
                            >happy</p>
                            <div style=""width:240px; margin: auto;"">
                                <img src=""images/map05_seismic_scaleDef_orientDef_270.png"" style= ""width:200px""alt=""img"">
                            </div>
                        </div>","-52","","0","","","","images/map05_seismic_scaleDef_orientDef_270.png","happy","1","05","05","seismic","orientDef","scaleDef","270","",""
"","","","","","html-slider-response","29","133781","0.0-23.0","bdsyvyk18e","23","NaN","<div style=""width:500px;"">
                            <p style=""font-size:50px; font-weight:bold;""
                            >happy</p>
                            <div style=""width:240px; margin: auto;"">
                                <img src=""images/map07_viridis_scaleDef_orientMir_270.png"" style= ""width:200px""alt=""img"">
                            </div>
                        </div>","142","","0","","","","images/map07_viridis_scaleDef_orientMir_270.png","happy","1","07","07","viridis","orientMir","scaleDef","270","",""
"","","","","","html-slider-response","30","136515","0.0-24.0","bdsyvyk18e","23","NaN","<div style=""width:500px;"">
                            <p style=""font-size:50px; font-weight:bold;""
                            >happy</p>
                            <div style=""width:240px; margin: auto;"">
                                <img src=""images/map26_PuBuGn_scaleRev_orientDef_000.png"" style= ""width:200px""alt=""img"">
                            </div>
                        </div>","146","","0","","","","images/map26_PuBuGn_scaleRev_orientDef_000.png","happy","1","26","26","PuBuGn","orientDef","scaleRev","000","",""
"","","","","","html-slider-response","31","140483","0.0-25.0","bdsyvyk18e","23","NaN","<div style=""width:500px;"">
                            <p style=""font-size:50px; font-weight:bold;""
                            >happy</p>
                            <div style=""width:240px; margin: auto;"">
                                <img src=""images/map26_YlGn_scaleDef_orientDef_270.png"" style= ""width:200px""alt=""img"">
                            </div>
                        </div>","12","","0","","","","images/map26_YlGn_scaleDef_orientDef_270.png","happy","1","26","26","YlGn","orientDef","scaleDef","270","",""
"","","","","","html-slider-response","32","143331","0.0-26.0","bdsyvyk18e","23","NaN","<div style=""width:500px;"">
                            <p style=""font-size:50px; font-weight:bold;""
                            >happy</p>
                            <div style=""width:240px; margin: auto;"">
                                <img src=""images/map26_BuGn_scaleRev_orientDef_180.png"" style= ""width:200px""alt=""img"">
                            </div>
                        </div>","17","","0","","","","images/map26_BuGn_scaleRev_orientDef_180.png","happy","1","26","26","BuGn","orientDef","scaleRev","180","",""
"","","","","","html-slider-response","33","145948","0.0-27.0","bdsyvyk18e","23","NaN","<div style=""width:500px;"">
                            <p style=""font-size:50px; font-weight:bold;""
                            >happy</p>
                            <div style=""width:240px; margin: auto;"">
                                <img src=""images/map12_Blues_scaleDef_orientMir_090.png"" style= ""width:200px""alt=""img"">
                            </div>
                        </div>","-86","","0","","","","images/map12_Blues_scaleDef_orientMir_090.png","happy","1","12","12","Blues","orientMir","scaleDef","090","",""
"","","","","","html-slider-response","34","149369","0.0-28.0","bdsyvyk18e","23","NaN","<div style=""width:500px;"">
                            <p style=""font-size:50px; font-weight:bold;""
                            >happy</p>
                            <div style=""width:240px; margin: auto;"">
                                <img src=""images/map23_PuBu_scaleDef_orientDef_270.png"" style= ""width:200px""alt=""img"">
                            </div>
                        </div>","-106","","0","","","","images/map23_PuBu_scaleDef_orientDef_270.png","happy","1","23","23","PuBu","orientDef","scaleDef","270","",""
"","","","","","html-slider-response","35","153280","0.0-29.0","bdsyvyk18e","23","NaN","<div style=""width:500px;"">
                            <p style=""font-size:50px; font-weight:bold;""
                            >happy</p>
                            <div style=""width:240px; margin: auto;"">
                                <img src=""images/map05_managua_scaleDef_orientMir_270.png"" style= ""width:200px""alt=""img"">
                            </div>
                        </div>","13","","0","","","","images/map05_managua_scaleDef_orientMir_270.png","happy","1","05","05","managua","orientMir","scaleDef","270","",""
"","","","","","html-slider-response","36","155196","0.0-30.0","bdsyvyk18e","23","NaN","<div style=""width:500px;"">
                            <p style=""font-size:50px; font-weight:bold;""
                            >happy</p>
                            <div style=""width:240px; margin: auto;"">
                                <img src=""images/map26_YlGn_scaleRev_orientMir_000.png"" style= ""width:200px""alt=""img"">
                            </div>
                        </div>","14","","0","","","","images/map26_YlGn_scaleRev_orientMir_000.png","happy","1","26","26","YlGn","orientMir","scaleRev","000","",""
"","","","","","html-slider-response","37","157514","0.0-31.0","bdsyvyk18e","23","NaN","<div style=""width:500px;"">
                            <p style=""font-size:50px; font-weight:bold;""
                            >happy</p>
                            <div style=""width:240px; margin: auto;"">
                                <img src=""images/map27_PRGn_scaleRev_orientDef_000.png"" style= ""width:200px""alt=""img"">
                            </div>
                        </div>","69","","0","","","","images/map27_PRGn_scaleRev_orientDef_000.png","happy","1","27","27","PRGn","orientDef","scaleRev","000","",""
"","","","","","html-slider-response","38","160363","0.0-32.0","bdsyvyk18e","23","NaN","<div style=""width:500px;"">
                            <p style=""font-size:50px; font-weight:bold;""
                            >happy</p>
                            <div style=""width:240px; margin: auto;"">
                                <img src=""images/map15_OrRd_scaleRev_orientDef_180.png"" style= ""width:200px""alt=""img"">
                            </div>
                        </div>","-62","","0","","","","images/map15_OrRd_scaleRev_orientDef_180.png","happy","1","15","15","OrRd","orientDef","scaleRev","180","",""
"","","","","","html-slider-response","39","163162","0.0-33.0","bdsyvyk18e","23","NaN","<div style=""width:500px;"">
                            <p style=""font-size:50px; font-weight:bold;""
                            >happy</p>
                            <div style=""width:240px; margin: auto;"">
                                <img src=""images/map02_Spectral_scaleRev_orientMir_180.png"" style= ""width:200px""alt=""img"">
                            </div>
                        </div>","14","","0","","","","images/map02_Spectral_scaleRev_orientMir_180.png","happy","1","02","02","Spectral","orientMir","scaleRev","180","",""
"","","","","","html-slider-response","40","165946","0.0-34.0","bdsyvyk18e","23","NaN","<div style=""width:500px;"">
                            <p style=""font-size:50px; font-weight:bold;""
                            >happy</p>
                            <div style=""width:240px; margin: auto;"">
                                <img src=""images/map23_BuPu_scaleRev_orientDef_000.png"" style= ""width:200px""alt=""img"">
                            </div>
                        </div>","22","","0","","","","images/map23_BuPu_scaleRev_orientDef_000.png","happy","1","23","23","BuPu","orientDef","scaleRev","000","",""
"","","","","","html-slider-response","41","168813","0.0-35.0","bdsyvyk18e","23","NaN","<div style=""width:500px;"">
                            <p style=""font-size:50px; font-weight:bold;""
                            >happy</p>
                            <div style=""width:240px; margin: auto;"">
                                <img src=""images/map12_Greys_scaleDef_orientDef_090.png"" style= ""width:200px""alt=""img"">
                            </div>
                        </div>","-200","","0","","","","images/map12_Greys_scaleDef_orientDef_090.png","happy","1","12","12","Greys","orientDef","scaleDef","090","",""
"","","","","","html-slider-response","42","171812","0.0-36.0","bdsyvyk18e","23","NaN","<div style=""width:500px;"">
                            <p style=""font-size:50px; font-weight:bold;""
                            >happy</p>
                            <div style=""width:240px; margin: auto;"">
                                <img src=""images/map27_RdGy_scaleRev_orientMir_180.png"" style= ""width:200px""alt=""img"">
                            </div>
                        </div>","-200","","0","","","","images/map27_RdGy_scaleRev_orientMir_180.png","happy","1","27","27","RdGy","orientMir","scaleRev","180","",""
"","","","","","html-slider-response","43","174862","0.0-37.0","bdsyvyk18e","23","NaN","<div style=""width:500px;"">
                            <p style=""font-size:50px; font-weight:bold;""
                            >happy</p>
                            <div style=""width:240px; margin: auto;"">
                                <img src=""images/map05_berlin_scaleRev_orientMir_180.png"" style= ""width:200px""alt=""img"">
                            </div>
                        </div>","-114","","0","","","","images/map05_berlin_scaleRev_orientMir_180.png","happy","1","05","05","berlin","orientMir","scaleRev","180","",""
"","","","","","html-slider-response","44","178262","0.0-38.0","bdsyvyk18e","23","NaN","<div style=""width:500px;"">
                            <p style=""font-size:50px; font-weight:bold;""
                            >happy</p>
                            <div style=""width:240px; margin: auto;"">
                                <img src=""images/map10_magma_scaleDef_orientMir_090.png"" style= ""width:200px""alt=""img"">
                            </div>
                        </div>","7","","0","","","","images/map10_magma_scaleDef_orientMir_090.png","happy","1","10","10","magma","orientMir","scaleDef","090","",""
"","","","","","html-slider-response","45","180964","0.0-39.0","bdsyvyk18e","23","NaN","<div style=""width:500px;"">
                            <p style=""font-size:50px; font-weight:bold;""
                            >happy</p>
                            <div style=""width:240px; margin: auto;"">
                                <img src=""images/map15_PuRd_scaleDef_orientDef_270.png"" style= ""width:200px""alt=""img"">
                            </div>
                        </div>","127","","0","","","","images/map15_PuRd_scaleDef_orientDef_270.png","happy","1","15","15","PuRd","orientDef","scaleDef","270","",""
"","","","","","html-slider-response","46","183745","0.0-40.0","bdsyvyk18e","23","NaN","<div style=""width:500px;"">
                            <p style=""font-size:50px; font-weight:bold;""
                            >happy</p>
                            <div style=""width:240px; margin: auto;"">
                                <img src=""images/map13_Reds_scaleRev_orientMir_000.png"" style= ""width:200px""alt=""img"">
                            </div>
                        </div>","-185","","0","","","","images/map13_Reds_scaleRev_orientMir_000.png","happy","1","13","13","Reds","orientMir","scaleRev","000","",""
"","","","","","html-slider-response","47","185844","0.0-41.0","bdsyvyk18e","23","NaN","<div style=""width:500px;"">
                            <p style=""font-size:50px; font-weight:bold;""
                            >happy</p>
                            <div style=""width:240px; margin: auto;"">
                                <img src=""images/map15_OrRd_scaleDef_orientDef_090.png"" style= ""width:200px""alt=""img"">
                            </div>
                        </div>","-94","","0","","","","images/map15_OrRd_scaleDef_orientDef_090.png","happy","1","15","15","OrRd","orientDef","scaleDef","090","",""
"","","","","","html-slider-response","48","190578","0.0-42.0","bdsyvyk18e","23","NaN","<div style=""width:500px;"">
                            <p style=""font-size:50px; font-weight:bold;""
                            >happy</p>
                            <div style=""width:240px; margin: auto;"">
                                <img src=""images/map07_gist_earth_scaleDef_orientDef_270.png"" style= ""width:200px""alt=""img"">
                            </div>
                        </div>","78","","0","","","","images/map07_gist_earth_scaleDef_orientDef_270.png","happy","1","07","07","gist","scaleDef","earth","orientDef","",""
"","","","","","html-slider-response","49","199512","0.0-43.0","bdsyvyk18e","23","NaN","<div style=""width:500px;"">
                            <p style=""font-size:50px; font-weight:bold;""
                            >happy</p>
                            <div style=""width:240px; margin: auto;"">
                                <img src=""images/map07_vanimo_scaleDef_orientDef_090.png"" style= ""width:200px""alt=""img"">
                            </div>
                        </div>","28","","0","","","","images/map07_vanimo_scaleDef_orientDef_090.png","happy","1","07","07","vanimo","orientDef","scaleDef","090","",""
"","","","","","html-slider-response","50","210444","0.0-44.0","bdsyvyk18e","23","NaN","<div style=""width:500px;"">
                            <p style=""font-size:50px; font-weight:bold;""
                            >happy</p>
                            <div style=""width:240px; margin: auto;"">
                                <img src=""images/map10_magma_scaleRev_orientMir_180.png"" style= ""width:200px""alt=""img"">
                            </div>
                        </div>","18","","0","","","","images/map10_magma_scaleRev_orientMir_180.png","happy","1","10","10","magma","orientMir","scaleRev","180","",""
"","","","","","html-slider-response","51","213195","0.0-45.0","bdsyvyk18e","23","NaN","<div style=""width:500px;"">
                            <p style=""font-size:50px; font-weight:bold;""
                            >happy</p>
                            <div style=""width:240px; margin: auto;"">
                                <img src=""images/map02_Spectral_scaleDef_orientMir_090.png"" style= ""width:200px""alt=""img"">
                            </div>
                        </div>","181","","0","","","","images/map02_Spectral_scaleDef_orientMir_090.png","happy","1","02","02","Spectral","orientMir","scaleDef","090","",""
"","","","","","html-slider-response","52","219163","0.0-46.0","bdsyvyk18e","23","NaN","<div style=""width:500px;"">
                            <p style=""font-size:50px; font-weight:bold;""
                            >happy</p>
                            <div style=""width:240px; margin: auto;"">
                                <img src=""images/map02_RdYlGn_scaleRev_orientMir_000.png"" style= ""width:200px""alt=""img"">
                            </div>
                        </div>","33","","0","","","","images/map02_RdYlGn_scaleRev_orientMir_000.png","happy","1","02","02","RdYlGn","orientMir","scaleRev","000","",""
"","","","","","html-slider-response","53","221611","0.0-47.0","bdsyvyk18e","23","NaN","<div style=""width:500px;"">
                            <p style=""font-size:50px; font-weight:bold;""
                            >happy</p>
                            <div style=""width:240px; margin: auto;"">
                                <img src=""images/map10_plasma_scaleDef_orientDef_090.png"" style= ""width:200px""alt=""img"">
                            </div>
                        </div>","-25","","0","","","","images/map10_plasma_scaleDef_orientDef_090.png","happy","1","10","10","plasma","orientDef","scaleDef","090","",""
"","","","","","html-slider-response","54","223928","0.0-48.0","bdsyvyk18e","23","NaN","<div style=""width:500px;"">
                            <p style=""font-size:50px; font-weight:bold;""
                            >happy</p>
                            <div style=""width:240px; margin: auto;"">
                                <img src=""images/map05_bwr_scaleDef_orientDef_090.png"" style= ""width:200px""alt=""img"">
                            </div>
                        </div>","-38","","0","","","","images/map05_bwr_scaleDef_orientDef_090.png","happy","1","05","05","bwr","orientDef","scaleDef","090","",""
"","","","","","html-slider-response","55","226269","0.0-49.0","bdsyvyk18e","23","NaN","<div style=""width:500px;"">
                            <p style=""font-size:50px; font-weight:bold;""
                            >happy</p>
                            <div style=""width:240px; margin: auto;"">
                                <img src=""images/map27_RdBu_scaleDef_orientMir_270.png"" style= ""width:200px""alt=""img"">
                            </div>
                        </div>","37","","0","","","","images/map27_RdBu_scaleDef_orientMir_270.png","happy","1","27","27","RdBu","orientMir","scaleDef","270","",""
"","","","","","html-slider-response","56","229196","0.0-50.0","bdsyvyk18e","23","NaN","<div style=""width:500px;"">
                            <p style=""font-size:50px; font-weight:bold;""
                            >happy</p>
                            <div style=""width:240px; margin: auto;"">
                                <img src=""images/map02_RdBu_scaleRev_orientDef_000.png"" style= ""width:200px""alt=""img"">
                            </div>
                        </div>","36","","0","","","","images/map02_RdBu_scaleRev_orientDef_000.png","happy","1","02","02","RdBu","orientDef","scaleRev","000","",""
"","","","","","html-slider-response","57","232478","0.0-51.0","bdsyvyk18e","23","NaN","<div style=""width:500px;"">
                            <p style=""font-size:50px; font-weight:bold;""
                            >happy</p>
                            <div style=""width:240px; margin: auto;"">
                                <img src=""images/map15_YlOrRd_scaleRev_orientDef_000.png"" style= ""width:200px""alt=""img"">
                            </div>
                        </div>","-118","","0","","","","images/map15_YlOrRd_scaleRev_orientDef_000.png","happy","1","15","15","YlOrRd","orientDef","scaleRev","000","",""
"","","","","","html-slider-response","58","235111","0.0-52.0","bdsyvyk18e","23","NaN","<div style=""width:500px;"">
                            <p style=""font-size:50px; font-weight:bold;""
                            >happy</p>
                            <div style=""width:240px; margin: auto;"">
                                <img src=""images/map10_plasma_scaleRev_orientDef_180.png"" style= ""width:200px""alt=""img"">
                            </div>
                        </div>","-114","","0","","","","images/map10_plasma_scaleRev_orientDef_180.png","happy","1","10","10","plasma","orientDef","scaleRev","180","",""
"","","","","","html-slider-response","59","237561","0.0-53.0","bdsyvyk18e","23","NaN","<div style=""width:500px;"">
                            <p style=""font-size:50px; font-weight:bold;""
                            >happy</p>
                            <div style=""width:240px; margin: auto;"">
                                <img src=""images/map23_PuBuGn_scaleDef_orientMir_270.png"" style= ""width:200px""alt=""img"">
                            </div>
                        </div>","-112","","0","","","","images/map23_PuBuGn_scaleDef_orientMir_270.png","happy","1","23","23","PuBuGn","orientMir","scaleDef","270","",""
"","","","","","html-button-response","60","239099","0.0-54.0","bdsyvyk18e","23","1035","<p>You are doing great!<br></br> You are halway done with the current block. When you are ready to continue, click the 'Continue' button.</p>","0","","","","","","","","","","","","","","","",""
"","","","","","html-slider-response","61","243961","0.0-55.0","bdsyvyk18e","23","NaN","<div style=""width:500px;"">
                            <p style=""font-size:50px; font-weight:bold;""
                            >happy</p>
                            <div style=""width:240px; margin: auto;"">
                                <img src=""images/map10_viridis_scaleRev_orientDef_000.png"" style= ""width:200px""alt=""img"">
                            </div>
                        </div>","-106","","0","","","","images/map10_viridis_scaleRev_orientDef_000.png","happy","1","10","10","viridis","orientDef","scaleRev","000","",""
"","","","","","html-slider-response","62","246143","0.0-56.0","bdsyvyk18e","23","NaN","<div style=""width:500px;"">
                            <p style=""font-size:50px; font-weight:bold;""
                            >happy</p>
                            <div style=""width:240px; margin: auto;"">
                                <img src=""images/map27_PuOr_scaleRev_orientMir_000.png"" style= ""width:200px""alt=""img"">
                            </div>
                        </div>","-20","","0","","","","images/map27_PuOr_scaleRev_orientMir_000.png","happy","1","27","27","PuOr","orientMir","scaleRev","000","",""
"","","","","","html-slider-response","63","250644","0.0-57.0","bdsyvyk18e","23","NaN","<div style=""width:500px;"">
                            <p style=""font-size:50px; font-weight:bold;""
                            >happy</p>
                            <div style=""width:240px; margin: auto;"">
                                <img src=""images/map02_RdYlBu_scaleDef_orientDef_090.png"" style= ""width:200px""alt=""img"">
                            </div>
                        </div>","38","","0","","","","images/map02_RdYlBu_scaleDef_orientDef_090.png","happy","1","02","02","RdYlBu","orientDef","scaleDef","090","",""
"","","","","","html-slider-response","64","252645","0.0-58.0","bdsyvyk18e","23","NaN","<div style=""width:500px;"">
                            <p style=""font-size:50px; font-weight:bold;""
                            >happy</p>
                            <div style=""width:240px; margin: auto;"">
                                <img src=""images/map23_YlGnBu_scaleDef_orientMir_090.png"" style= ""width:200px""alt=""img"">
                            </div>
                        </div>","-69","","0","","","","images/map23_YlGnBu_scaleDef_orientMir_090.png","happy","1","23","23","YlGnBu","orientMir","scaleDef","090","",""
"","","","","","html-slider-response","65","255445","0.0-59.0","bdsyvyk18e","23","NaN","<div style=""width:500px;"">
                            <p style=""font-size:50px; font-weight:bold;""
                            >happy</p>
                            <div style=""width:240px; margin: auto;"">
                                <img src=""images/map13_Greens_scaleRev_orientDef_000.png"" style= ""width:200px""alt=""img"">
                            </div>
                        </div>","-74","","0","","","","images/map13_Greens_scaleRev_orientDef_000.png","happy","1","13","13","Greens","orientDef","scaleRev","000","",""
"","","","","","html-slider-response","66","258435","0.0-60.0","bdsyvyk18e","23","NaN","<div style=""width:500px;"">
                            <p style=""font-size:50px; font-weight:bold;""
                            >happy</p>
                            <div style=""width:240px; margin: auto;"">
                                <img src=""images/map13_YlOrRd_scaleDef_orientMir_270.png"" style= ""width:200px""alt=""img"">
                            </div>
                        </div>","-102","","0","","","","images/map13_YlOrRd_scaleDef_orientMir_270.png","happy","1","13","13","YlOrRd","orientMir","scaleDef","270","",""
"","","","","","html-slider-response","67","260378","0.0-61.0","bdsyvyk18e","23","NaN","<div style=""width:500px;"">
                            <p style=""font-size:50px; font-weight:bold;""
                            >happy</p>
                            <div style=""width:240px; margin: auto;"">
                                <img src=""images/map07_turbo_scaleDef_orientMir_090.png"" style= ""width:200px""alt=""img"">
                            </div>
                        </div>","200","","0","","","","images/map07_turbo_scaleDef_orientMir_090.png","happy","1","07","07","turbo","orientMir","scaleDef","090","",""
"","","","","","html-slider-response","68","262459","0.0-62.0","bdsyvyk18e","23","NaN","<div style=""width:500px;"">
                            <p style=""font-size:50px; font-weight:bold;""
                            >happy</p>
                            <div style=""width:240px; margin: auto;"">
                                <img src=""images/map15_PuRd_scaleRev_orientMir_000.png"" style= ""width:200px""alt=""img"">
                            </div>
                        </div>","16","","0","","","","images/map15_PuRd_scaleRev_orientMir_000.png","happy","1","15","15","PuRd","orientMir","scaleRev","000","",""
"","","","","","html-slider-response","69","266327","0.0-63.0","bdsyvyk18e","23","NaN","<div style=""width:500px;"">
                            <p style=""font-size:50px; font-weight:bold;""
                            >happy</p>
                            <div style=""width:240px; margin: auto;"">
                                <img src=""images/map23_YlGnBu_scaleRev_orientMir_180.png"" style= ""width:200px""alt=""img"">
                            </div>
                        </div>","-106","","0","","","","images/map23_YlGnBu_scaleRev_orientMir_180.png","happy","1","23","23","YlGnBu","orientMir","scaleRev","180","",""
"","","","","","html-slider-response","70","268860","0.0-64.0","bdsyvyk18e","23","NaN","<div style=""width:500px;"">
                            <p style=""font-size:50px; font-weight:bold;""
                            >happy</p>
                            <div style=""width:240px; margin: auto;"">
                                <img src=""images/map07_vanimo_scaleRev_orientDef_180.png"" style= ""width:200px""alt=""img"">
                            </div>
                        </div>","24","","0","","","","images/map07_vanimo_scaleRev_orientDef_180.png","happy","1","07","07","vanimo","orientDef","scaleRev","180","",""
"","","","","","html-slider-response","71","271929","0.0-65.0","bdsyvyk18e","23","NaN","<div style=""width:500px;"">
                            <p style=""font-size:50px; font-weight:bold;""
                            >happy</p>
                            <div style=""width:240px; margin: auto;"">
                                <img src=""images/map10_inferno_scaleDef_orientDef_270.png"" style= ""width:200px""alt=""img"">
                            </div>
                        </div>","-34","","0","","","","images/map10_inferno_scaleDef_orientDef_270.png","happy","1","10","10","inferno","orientDef","scaleDef","270","",""
"","","","","","html-slider-response","72","273977","0.0-66.0","bdsyvyk18e","23","NaN","<div style=""width:500px;"">
                            <p style=""font-size:50px; font-weight:bold;""
                            >happy</p>
                            <div style=""width:240px; margin: auto;"">
                                <img src=""images/map10_inferno_scaleRev_orientMir_000.png"" style= ""width:200px""alt=""img"">
                            </div>
                        </div>","-49","","0","","","","images/map10_inferno_scaleRev_orientMir_000.png","happy","1","10","10","inferno","orientMir","scaleRev","000","",""
"","","","","","html-slider-response","73","278386","0.0-67.0","bdsyvyk18e","23","NaN","<div style=""width:500px;"">
                            <p style=""font-size:50px; font-weight:bold;""
                            >happy</p>
                            <div style=""width:240px; margin: auto;"">
                                <img src=""images/map12_Blues_scaleRev_orientMir_180.png"" style= ""width:200px""alt=""img"">
                            </div>
                        </div>","-74","","0","","","","images/map12_Blues_scaleRev_orientMir_180.png","happy","1","12","12","Blues","orientMir","scaleRev","180","",""
"","","","","","html-slider-response","74","280159","0.0-68.0","bdsyvyk18e","23","NaN","<div style=""width:500px;"">
                            <p style=""font-size:50px; font-weight:bold;""
                            >happy</p>
                            <div style=""width:240px; margin: auto;"">
                                <img src=""images/map05_bwr_scaleRev_orientDef_180.png"" style= ""width:200px""alt=""img"">
                            </div>
                        </div>","-6","","0","","","","images/map05_bwr_scaleRev_orientDef_180.png","happy","1","05","05","bwr","orientDef","scaleRev","180","",""
"","","","","","html-slider-response","75","281976","0.0-69.0","bdsyvyk18e","23","NaN","<div style=""width:500px;"">
                            <p style=""font-size:50px; font-weight:bold;""
                            >happy</p>
                            <div style=""width:240px; margin: auto;"">
                                <img src=""images/map05_seismic_scaleRev_orientMir_000.png"" style= ""width:200px""alt=""img"">
                            </div>
                        </div>","56","","0","","","","images/map05_seismic_scaleRev_orientMir_000.png","happy","1","05","05","seismic","orientMir","scaleRev","000","",""
"","","","","","html-slider-response","76","283975","0.0-70.0","bdsyvyk18e","23","NaN","<div style=""width:500px;"">
                            <p style=""font-size:50px; font-weight:bold;""
                            >happy</p>
                            <div style=""width:240px; margin: auto;"">
                                <img src=""images/map13_Reds_scaleDef_orientDef_270.png"" style= ""width:200px""alt=""img"">
                            </div>
                        </div>","-99","","0","","","","images/map13_Reds_scaleDef_orientDef_270.png","happy","1","13","13","Reds","orientDef","scaleDef","270","",""
"","","","","","html-slider-response","77","286112","0.0-71.0","bdsyvyk18e","23","NaN","<div style=""width:500px;"">
                            <p style=""font-size:50px; font-weight:bold;""
                            >happy</p>
                            <div style=""width:240px; margin: auto;"">
                                <img src=""images/map13_Oranges_scaleDef_orientDef_090.png"" style= ""width:200px""alt=""img"">
                            </div>
                        </div>","-94","","0","","","","images/map13_Oranges_scaleDef_orientDef_090.png","happy","1","13","13","Oranges","orientDef","scaleDef","090","",""
"","","","","","html-slider-response","78","287976","0.0-72.0","bdsyvyk18e","23","NaN","<div style=""width:500px;"">
                            <p style=""font-size:50px; font-weight:bold;""
                            >happy</p>
                            <div style=""width:240px; margin: auto;"">
                                <img src=""images/map12_Greens_scaleDef_orientMir_270.png"" style= ""width:200px""alt=""img"">
                            </div>
                        </div>","-110","","0","","","","images/map12_Greens_scaleDef_orientMir_270.png","happy","1","12","12","Greens","orientMir","scaleDef","270","",""
"","","","","","html-slider-response","79","290342","0.0-73.0","bdsyvyk18e","23","NaN","<div style=""width:500px;"">
                            <p style=""font-size:50px; font-weight:bold;""
                            >happy</p>
                            <div style=""width:240px; margin: auto;"">
                                <img src=""images/map27_RdGy_scaleDef_orientMir_090.png"" style= ""width:200px""alt=""img"">
                            </div>
                        </div>","-200","","0","","","","images/map27_RdGy_scaleDef_orientMir_090.png","happy","1","27","27","RdGy","orientMir","scaleDef","090","",""
"","","","","","html-slider-response","80","293760","0.0-74.0","bdsyvyk18e","23","NaN","<div style=""width:500px;"">
                            <p style=""font-size:50px; font-weight:bold;""
                            >happy</p>
                            <div style=""width:240px; margin: auto;"">
                                <img src=""images/map02_coolwarm_scaleDef_orientMir_270.png"" style= ""width:200px""alt=""img"">
                            </div>
                        </div>","-50","","0","","","","images/map02_coolwarm_scaleDef_orientMir_270.png","happy","1","02","02","coolwarm","orientMir","scaleDef","270","",""
"","","","","","html-slider-response","81","298795","0.0-75.0","bdsyvyk18e","23","NaN","<div style=""width:500px;"">
                            <p style=""font-size:50px; font-weight:bold;""
                            >happy</p>
                            <div style=""width:240px; margin: auto;"">
                                <img src=""images/map13_Oranges_scaleRev_orientDef_180.png"" style= ""width:200px""alt=""img"">
                            </div>
                        </div>","-55","","0","","","","images/map13_Oranges_scaleRev_orientDef_180.png","happy","1","13","13","Oranges","orientDef","scaleRev","180","",""
"","","","","","html-slider-response","82","301126","0.0-76.0","bdsyvyk18e","23","NaN","<div style=""width:500px;"">
                            <p style=""font-size:50px; font-weight:bold;""
                            >happy</p>
                            <div style=""width:240px; margin: auto;"">
                                <img src=""images/map10_cividis_scaleDef_orientMir_270.png"" style= ""width:200px""alt=""img"">
                            </div>
                        </div>","-198","","0","","","","images/map10_cividis_scaleDef_orientMir_270.png","happy","1","10","10","cividis","orientMir","scaleDef","270","",""
"","","","","","html-slider-response","83","303525","0.0-77.0","bdsyvyk18e","23","NaN","<div style=""width:500px;"">
                            <p style=""font-size:50px; font-weight:bold;""
                            >happy</p>
                            <div style=""width:240px; margin: auto;"">
                                <img src=""images/map02_RdYlGn_scaleDef_orientDef_270.png"" style= ""width:200px""alt=""img"">
                            </div>
                        </div>","-100","","0","","","","images/map02_RdYlGn_scaleDef_orientDef_270.png","happy","1","02","02","RdYlGn","orientDef","scaleDef","270","",""
"","","","","","html-slider-response","84","306211","0.0-78.0","bdsyvyk18e","23","NaN","<div style=""width:500px;"">
                            <p style=""font-size:50px; font-weight:bold;""
                            >happy</p>
                            <div style=""width:240px; margin: auto;"">
                                <img src=""images/map07_gist_earth_scaleRev_orientMir_000.png"" style= ""width:200px""alt=""img"">
                            </div>
                        </div>","9","","0","","","","images/map07_gist_earth_scaleRev_orientMir_000.png","happy","1","07","07","gist","scaleRev","earth","orientMir","",""
"","","","","","html-slider-response","85","308876","0.0-79.0","bdsyvyk18e","23","NaN","<div style=""width:500px;"">
                            <p style=""font-size:50px; font-weight:bold;""
                            >happy</p>
                            <div style=""width:240px; margin: auto;"">
                                <img src=""images/map26_PRGn_scaleDef_orientMir_270.png"" style= ""width:200px""alt=""img"">
                            </div>
                        </div>","21","","0","","","","images/map26_PRGn_scaleDef_orientMir_270.png","happy","1","26","26","PRGn","orientMir","scaleDef","270","",""
"","","","","","html-slider-response","86","311343","0.0-80.0","bdsyvyk18e","23","NaN","<div style=""width:500px;"">
                            <p style=""font-size:50px; font-weight:bold;""
                            >happy</p>
                            <div style=""width:240px; margin: auto;"">
                                <img src=""images/map13_YlOrBr_scaleRev_orientMir_180.png"" style= ""width:200px""alt=""img"">
                            </div>
                        </div>","-119","","0","","","","images/map13_YlOrBr_scaleRev_orientMir_180.png","happy","1","13","13","YlOrBr","orientMir","scaleRev","180","",""
"","","","","","html-slider-response","87","316410","0.0-81.0","bdsyvyk18e","23","NaN","<div style=""width:500px;"">
                            <p style=""font-size:50px; font-weight:bold;""
                            >happy</p>
                            <div style=""width:240px; margin: auto;"">
                                <img src=""images/map12_Purples_scaleRev_orientMir_000.png"" style= ""width:200px""alt=""img"">
                            </div>
                        </div>","2","","0","","","","images/map12_Purples_scaleRev_orientMir_000.png","happy","1","12","12","Purples","orientMir","scaleRev","000","",""
"","","","","","html-slider-response","88","319110","0.0-82.0","bdsyvyk18e","23","NaN","<div style=""width:500px;"">
                            <p style=""font-size:50px; font-weight:bold;""
                            >happy</p>
                            <div style=""width:240px; margin: auto;"">
                                <img src=""images/map15_BuPu_scaleDef_orientMir_270.png"" style= ""width:200px""alt=""img"">
                            </div>
                        </div>","2","","0","","","","images/map15_BuPu_scaleDef_orientMir_270.png","happy","1","15","15","BuPu","orientMir","scaleDef","270","",""
"","","","","","html-slider-response","89","321442","0.0-83.0","bdsyvyk18e","23","NaN","<div style=""width:500px;"">
                            <p style=""font-size:50px; font-weight:bold;""
                            >happy</p>
                            <div style=""width:240px; margin: auto;"">
                                <img src=""images/map26_PiYG_scaleRev_orientMir_180.png"" style= ""width:200px""alt=""img"">
                            </div>
                        </div>","23","","0","","","","images/map26_PiYG_scaleRev_orientMir_180.png","happy","1","26","26","PiYG","orientMir","scaleRev","180","",""
"","","","","","html-slider-response","90","324159","0.0-84.0","bdsyvyk18e","23","NaN","<div style=""width:500px;"">
                            <p style=""font-size:50px; font-weight:bold;""
                            >happy</p>
                            <div style=""width:240px; margin: auto;"">
                                <img src=""images/map05_berlin_scaleDef_orientMir_090.png"" style= ""width:200px""alt=""img"">
                            </div>
                        </div>","-34","","0","","","","images/map05_berlin_scaleDef_orientMir_090.png","happy","1","05","05","berlin","orientMir","scaleDef","090","",""
"","","","","","html-slider-response","91","326541","0.0-85.0","bdsyvyk18e","23","NaN","<div style=""width:500px;"">
                            <p style=""font-size:50px; font-weight:bold;""
                            >happy</p>
                            <div style=""width:240px; margin: auto;"">
                                <img src=""images/map23_PuBu_scaleRev_orientMir_000.png"" style= ""width:200px""alt=""img"">
                            </div>
                        </div>","-151","","0","","","","images/map23_PuBu_scaleRev_orientMir_000.png","happy","1","23","23","PuBu","orientMir","scaleRev","000","",""
"","","","","","html-slider-response","92","328491","0.0-86.0","bdsyvyk18e","23","NaN","<div style=""width:500px;"">
                            <p style=""font-size:50px; font-weight:bold;""
                            >happy</p>
                            <div style=""width:240px; margin: auto;"">
                                <img src=""images/map15_RdPu_scaleRev_orientMir_180.png"" style= ""width:200px""alt=""img"">
                            </div>
                        </div>","140","","0","","","","images/map15_RdPu_scaleRev_orientMir_180.png","happy","1","15","15","RdPu","orientMir","scaleRev","180","",""
"","","","","","html-slider-response","93","330809","0.0-87.0","bdsyvyk18e","23","NaN","<div style=""width:500px;"">
                            <p style=""font-size:50px; font-weight:bold;""
                            >happy</p>
                            <div style=""width:240px; margin: auto;"">
                                <img src=""images/map12_Greys_scaleRev_orientDef_180.png"" style= ""width:200px""alt=""img"">
                            </div>
                        </div>","-185","","0","","","","images/map12_Greys_scaleRev_orientDef_180.png","happy","1","12","12","Greys","orientDef","scaleRev","180","",""
"","","","","","html-slider-response","94","333008","0.0-88.0","bdsyvyk18e","23","NaN","<div style=""width:500px;"">
                            <p style=""font-size:50px; font-weight:bold;""
                            >happy</p>
                            <div style=""width:240px; margin: auto;"">
                                <img src=""images/map26_PiYG_scaleDef_orientMir_090.png"" style= ""width:200px""alt=""img"">
                            </div>
                        </div>","47","","0","","","","images/map26_PiYG_scaleDef_orientMir_090.png","happy","1","26","26","PiYG","orientMir","scaleDef","090","",""
"","","","","","html-slider-response","95","336693","0.0-89.0","bdsyvyk18e","23","NaN","<div style=""width:500px;"">
                            <p style=""font-size:50px; font-weight:bold;""
                            >happy</p>
                            <div style=""width:240px; margin: auto;"">
                                <img src=""images/map05_coolwarm_scaleRev_orientDef_000.png"" style= ""width:200px""alt=""img"">
                            </div>
                        </div>","12","","0","","","","images/map05_coolwarm_scaleRev_orientDef_000.png","happy","1","05","05","coolwarm","orientDef","scaleRev","000","",""
"","","","","","html-slider-response","96","339277","0.0-90.0","bdsyvyk18e","23","NaN","<div style=""width:500px;"">
                            <p style=""font-size:50px; font-weight:bold;""
                            >happy</p>
                            <div style=""width:240px; margin: auto;"">
                                <img src=""images/map12_Purples_scaleDef_orientDef_270.png"" style= ""width:200px""alt=""img"">
                            </div>
                        </div>","15","","0","","","","images/map12_Purples_scaleDef_orientDef_270.png","happy","1","12","12","Purples","orientDef","scaleDef","270","",""
"","","","","","html-slider-response","97","341276","0.0-91.0","bdsyvyk18e","23","NaN","<div style=""width:500px;"">
                            <p style=""font-size:50px; font-weight:bold;""
                            >happy</p>
                            <div style=""width:240px; margin: auto;"">
                                <img src=""images/map15_RdPu_scaleDef_orientMir_090.png"" style= ""width:200px""alt=""img"">
                            </div>
                        </div>","86","","0","","","","images/map15_RdPu_scaleDef_orientMir_090.png","happy","1","15","15","RdPu","orientMir","scaleDef","090","",""
"","","","","","html-slider-response","98","343609","0.0-92.0","bdsyvyk18e","23","NaN","<div style=""width:500px;"">
                            <p style=""font-size:50px; font-weight:bold;""
                            >happy</p>
                            <div style=""width:240px; margin: auto;"">
                                <img src=""images/map27_PuOr_scaleDef_orientDef_270.png"" style= ""width:200px""alt=""img"">
                            </div>
                        </div>","106","","0","","","","images/map27_PuOr_scaleDef_orientDef_270.png","happy","1","27","27","PuOr","orientDef","scaleDef","270","",""
"","","","","","html-slider-response","99","346325","0.0-93.0","bdsyvyk18e","23","NaN","<div style=""width:500px;"">
                            <p style=""font-size:50px; font-weight:bold;""
                            >happy</p>
                            <div style=""width:240px; margin: auto;"">
                                <img src=""images/map02_RdYlBu_scaleRev_orientDef_180.png"" style= ""width:200px""alt=""img"">
                            </div>
                        </div>","98","","0","","","","images/map02_RdYlBu_scaleRev_orientDef_180.png","happy","1","02","02","RdYlBu","orientDef","scaleRev","180","",""
"","","","","","html-slider-response","100","348142","0.0-94.0","bdsyvyk18e","23","NaN","<div style=""width:500px;"">
                            <p style=""font-size:50px; font-weight:bold;""
                            >happy</p>
                            <div style=""width:240px; margin: auto;"">
                                <img src=""images/map26_BuGn_scaleDef_orientDef_090.png"" style= ""width:200px""alt=""img"">
                            </div>
                        </div>","10","","0","","","","images/map26_BuGn_scaleDef_orientDef_090.png","happy","1","26","26","BuGn","orientDef","scaleDef","090","",""
"","","","","","html-button-response","101","351830","0.0-95.0","bdsyvyk18e","23","3186","<p>Great Job! You've finished block 1.<br></br> You have 4 block(s) left to go.<br></br></p>","0","","","","","","","","","","","","","","","",""
"","","","","","html-button-response","102","353947","0.0-96.0","bdsyvyk18e","23","2116","<p>In this block of trials, you will be asked to rate how much you associate each map with:</p > <p style = 'font-size:150%; font-weight: bold'>fearful</p><br></br>","0","","","","","","","","","","","","","","","",""
"","","","","","html-slider-response","103","357775","0.0-97.0","bdsyvyk18e","23","NaN","<div style=""width:500px;"">
                            <p style=""font-size:50px; font-weight:bold;""
                            >fearful</p>
                            <div style=""width:240px; margin: auto;"">
                                <img src=""images/map02_coolwarm_scaleDef_orientMir_270.png"" style= ""width:200px""alt=""img"">
                            </div>
                        </div>","157","","0","","","","images/map02_coolwarm_scaleDef_orientMir_270.png","fearful","1","02","02","coolwarm","orientMir","scaleDef","270","",""
"","","","","","html-slider-response","104","360258","0.0-98.0","bdsyvyk18e","23","NaN","<div style=""width:500px;"">
                            <p style=""font-size:50px; font-weight:bold;""
                            >fearful</p>
                            <div style=""width:240px; margin: auto;"">
                                <img src=""images/map02_RdYlGn_scaleRev_orientMir_000.png"" style= ""width:200px""alt=""img"">
                            </div>
                        </div>","-79","","0","","","","images/map02_RdYlGn_scaleRev_orientMir_000.png","fearful","1","02","02","RdYlGn","orientMir","scaleRev","000","",""
"","","","","","html-slider-response","105","362658","0.0-99.0","bdsyvyk18e","23","NaN","<div style=""width:500px;"">
                            <p style=""font-size:50px; font-weight:bold;""
                            >fearful</p>
                            <div style=""width:240px; margin: auto;"">
                                <img src=""images/map23_PuBu_scaleRev_orientMir_000.png"" style= ""width:200px""alt=""img"">
                            </div>
                        </div>","152","","0","","","","images/map23_PuBu_scaleRev_orientMir_000.png","fearful","1","23","23","PuBu","orientMir","scaleRev","000","",""
"","","","","","html-slider-response","106","365026","0.0-100.0","bdsyvyk18e","23","NaN","<div style=""width:500px;"">
                            <p style=""font-size:50px; font-weight:bold;""
                            >fearful</p>
                            <div style=""width:240px; margin: auto;"">
                                <img src=""images/map27_RdBu_scaleDef_orientMir_270.png"" style= ""width:200px""alt=""img"">
                            </div>
                        </div>","167","","0","","","","images/map27_RdBu_scaleDef_orientMir_270.png","fearful","1","27","27","RdBu","orientMir","scaleDef","270","",""
"","","","","","html-slider-response","107","368725","0.0-101.0","bdsyvyk18e","23","NaN","<div style=""width:500px;"">
                            <p style=""font-size:50px; font-weight:bold;""
                            >fearful</p>
                            <div style=""width:240px; margin: auto;"">
                                <img src=""images/map26_PuBuGn_scaleRev_orientDef_000.png"" style= ""width:200px""alt=""img"">
                            </div>
                        </div>","150","","0","","","","images/map26_PuBuGn_scaleRev_orientDef_000.png","fearful","1","26","26","PuBuGn","orientDef","scaleRev","000","",""
"","","","","","html-slider-response","108","372192","0.0-102.0","bdsyvyk18e","23","NaN","<div style=""width:500px;"">
                            <p style=""font-size:50px; font-weight:bold;""
                            >fearful</p>
                            <div style=""width:240px; margin: auto;"">
                                <img src=""images/map10_cividis_scaleDef_orientMir_270.png"" style= ""width:200px""alt=""img"">
                            </div>
                        </div>","129","","0","","","","images/map10_cividis_scaleDef_orientMir_270.png","fearful","1","10","10","cividis","orientMir","scaleDef","270","",""
"","","","","","html-slider-response","109","374875","0.0-103.0","bdsyvyk18e","23","NaN","<div style=""width:500px;"">
                            <p style=""font-size:50px; font-weight:bold;""
                            >fearful</p>
                            <div style=""width:240px; margin: auto;"">
                                <img src=""images/map07_vanimo_scaleDef_orientDef_090.png"" style= ""width:200px""alt=""img"">
                            </div>
                        </div>","-190","","0","","","","images/map07_vanimo_scaleDef_orientDef_090.png","fearful","1","07","07","vanimo","orientDef","scaleDef","090","",""
"","","","","","html-slider-response","110","377526","0.0-104.0","bdsyvyk18e","23","NaN","<div style=""width:500px;"">
                            <p style=""font-size:50px; font-weight:bold;""
                            >fearful</p>
                            <div style=""width:240px; margin: auto;"">
                                <img src=""images/map12_cividis_scaleRev_orientDef_000.png"" style= ""width:200px""alt=""img"">
                            </div>
                        </div>","158","","0","","","","images/map12_cividis_scaleRev_orientDef_000.png","fearful","1","12","12","cividis","orientDef","scaleRev","000","",""
"","","","","","html-slider-response","111","380491","0.0-105.0","bdsyvyk18e","23","NaN","<div style=""width:500px;"">
                            <p style=""font-size:50px; font-weight:bold;""
                            >fearful</p>
                            <div style=""width:240px; margin: auto;"">
                                <img src=""images/map02_RdBu_scaleRev_orientDef_000.png"" style= ""width:200px""alt=""img"">
                            </div>
                        </div>","138","","0","","","","images/map02_RdBu_scaleRev_orientDef_000.png","fearful","1","02","02","RdBu","orientDef","scaleRev","000","",""
"","","","","","html-slider-response","112","382625","0.0-106.0","bdsyvyk18e","23","NaN","<div style=""width:500px;"">
                            <p style=""font-size:50px; font-weight:bold;""
                            >fearful</p>
                            <div style=""width:240px; margin: auto;"">
                                <img src=""images/map05_berlin_scaleDef_orientMir_090.png"" style= ""width:200px""alt=""img"">
                            </div>
                        </div>","92","","0","","","","images/map05_berlin_scaleDef_orientMir_090.png","fearful","1","05","05","berlin","orientMir","scaleDef","090","",""
"","","","","","html-slider-response","113","384859","0.0-107.0","bdsyvyk18e","23","NaN","<div style=""width:500px;"">
                            <p style=""font-size:50px; font-weight:bold;""
                            >fearful</p>
                            <div style=""width:240px; margin: auto;"">
                                <img src=""images/map13_Reds_scaleRev_orientMir_000.png"" style= ""width:200px""alt=""img"">
                            </div>
                        </div>","132","","0","","","","images/map13_Reds_scaleRev_orientMir_000.png","fearful","1","13","13","Reds","orientMir","scaleRev","000","",""
"","","","","","html-slider-response","114","386891","0.0-108.0","bdsyvyk18e","23","NaN","<div style=""width:500px;"">
                            <p style=""font-size:50px; font-weight:bold;""
                            >fearful</p>
                            <div style=""width:240px; margin: auto;"">
                                <img src=""images/map02_RdYlBu_scaleDef_orientDef_090.png"" style= ""width:200px""alt=""img"">
                            </div>
                        </div>","129","","0","","","","images/map02_RdYlBu_scaleDef_orientDef_090.png","fearful","1","02","02","RdYlBu","orientDef","scaleDef","090","",""
"","","","","","html-slider-response","115","389858","0.0-109.0","bdsyvyk18e","23","NaN","<div style=""width:500px;"">
                            <p style=""font-size:50px; font-weight:bold;""
                            >fearful</p>
                            <div style=""width:240px; margin: auto;"">
                                <img src=""images/map27_BrBG_scaleDef_orientDef_090.png"" style= ""width:200px""alt=""img"">
                            </div>
                        </div>","122","","0","","","","images/map27_BrBG_scaleDef_orientDef_090.png","fearful","1","27","27","BrBG","orientDef","scaleDef","090","",""
"","","","","","html-slider-response","116","392574","0.0-110.0","bdsyvyk18e","23","NaN","<div style=""width:500px;"">
                            <p style=""font-size:50px; font-weight:bold;""
                            >fearful</p>
                            <div style=""width:240px; margin: auto;"">
                                <img src=""images/map07_turbo_scaleRev_orientMir_180.png"" style= ""width:200px""alt=""img"">
                            </div>
                        </div>","-158","","0","","","","images/map07_turbo_scaleRev_orientMir_180.png","fearful","1","07","07","turbo","orientMir","scaleRev","180","",""
"","","","","","html-slider-response","117","395241","0.0-111.0","bdsyvyk18e","23","NaN","<div style=""width:500px;"">
                            <p style=""font-size:50px; font-weight:bold;""
                            >fearful</p>
                            <div style=""width:240px; margin: auto;"">
                                <img src=""images/map15_RdPu_scaleRev_orientMir_180.png"" style= ""width:200px""alt=""img"">
                            </div>
                        </div>","-137","","0","","","","images/map15_RdPu_scaleRev_orientMir_180.png","fearful","1","15","15","RdPu","orientMir","scaleRev","180","",""
"","","","","","html-slider-response","118","398575","0.0-112.0","bdsyvyk18e","23","NaN","<div style=""width:500px;"">
                            <p style=""font-size:50px; font-weight:bold;""
                            >fearful</p>
                            <div style=""width:240px; margin: auto;"">
                                <img src=""images/map02_RdYlBu_scaleRev_orientDef_180.png"" style= ""width:200px""alt=""img"">
                            </div>
                        </div>","-114","","0","","","","images/map02_RdYlBu_scaleRev_orientDef_180.png","fearful","1","02","02","RdYlBu","orientDef","scaleRev","180","",""
"","","","","","html-slider-response","119","400724","0.0-113.0","bdsyvyk18e","23","NaN","<div style=""width:500px;"">
                            <p style=""font-size:50px; font-weight:bold;""
                            >fearful</p>
                            <div style=""width:240px; margin: auto;"">
                                <img src=""images/map07_gist_earth_scaleRev_orientMir_000.png"" style= ""width:200px""alt=""img"">
                            </div>
                        </div>","-126","","0","","","","images/map07_gist_earth_scaleRev_orientMir_000.png","fearful","1","07","07","gist","scaleRev","earth","orientMir","",""
"","","","","","html-slider-response","120","404874","0.0-114.0","bdsyvyk18e","23","NaN","<div style=""width:500px;"">
                            <p style=""font-size:50px; font-weight:bold;""
                            >fearful</p>
                            <div style=""width:240px; margin: auto;"">
                                <img src=""images/map27_PRGn_scaleRev_orientDef_000.png"" style= ""width:200px""alt=""img"">
                            </div>
                        </div>","-32","","0","","","","images/map27_PRGn_scaleRev_orientDef_000.png","fearful","1","27","27","PRGn","orientDef","scaleRev","000","",""
"","","","","","html-slider-response","121","408841","0.0-115.0","bdsyvyk18e","23","NaN","<div style=""width:500px;"">
                            <p style=""font-size:50px; font-weight:bold;""
                            >fearful</p>
                            <div style=""width:240px; margin: auto;"">
                                <img src=""images/map23_YlGnBu_scaleDef_orientMir_090.png"" style= ""width:200px""alt=""img"">
                            </div>
                        </div>","138","","0","","","","images/map23_YlGnBu_scaleDef_orientMir_090.png","fearful","1","23","23","YlGnBu","orientMir","scaleDef","090","",""
"","","","","","html-slider-response","122","411291","0.0-116.0","bdsyvyk18e","23","NaN","<div style=""width:500px;"">
                            <p style=""font-size:50px; font-weight:bold;""
                            >fearful</p>
                            <div style=""width:240px; margin: auto;"">
                                <img src=""images/map13_Oranges_scaleRev_orientDef_180.png"" style= ""width:200px""alt=""img"">
                            </div>
                        </div>","162","","0","","","","images/map13_Oranges_scaleRev_orientDef_180.png","fearful","1","13","13","Oranges","orientDef","scaleRev","180","",""
"","","","","","html-slider-response","123","415407","0.0-117.0","bdsyvyk18e","23","NaN","<div style=""width:500px;"">
                            <p style=""font-size:50px; font-weight:bold;""
                            >fearful</p>
                            <div style=""width:240px; margin: auto;"">
                                <img src=""images/map26_PiYG_scaleDef_orientMir_090.png"" style= ""width:200px""alt=""img"">
                            </div>
                        </div>","-99","","0","","","","images/map26_PiYG_scaleDef_orientMir_090.png","fearful","1","26","26","PiYG","orientMir","scaleDef","090","",""
"","","","","","html-slider-response","124","417709","0.0-118.0","bdsyvyk18e","23","NaN","<div style=""width:500px;"">
                            <p style=""font-size:50px; font-weight:bold;""
                            >fearful</p>
                            <div style=""width:240px; margin: auto;"">
                                <img src=""images/map27_PuOr_scaleDef_orientDef_270.png"" style= ""width:200px""alt=""img"">
                            </div>
                        </div>","-112","","0","","","","images/map27_PuOr_scaleDef_orientDef_270.png","fearful","1","27","27","PuOr","orientDef","scaleDef","270","",""
"","","","","","html-slider-response","125","419657","0.0-119.0","bdsyvyk18e","23","NaN","<div style=""width:500px;"">
                            <p style=""font-size:50px; font-weight:bold;""
                            >fearful</p>
                            <div style=""width:240px; margin: auto;"">
                                <img src=""images/map02_Spectral_scaleDef_orientMir_090.png"" style= ""width:200px""alt=""img"">
                            </div>
                        </div>","-127","","0","","","","images/map02_Spectral_scaleDef_orientMir_090.png","fearful","1","02","02","Spectral","orientMir","scaleDef","090","",""
"","","","","","html-slider-response","126","421707","0.0-120.0","bdsyvyk18e","23","NaN","<div style=""width:500px;"">
                            <p style=""font-size:50px; font-weight:bold;""
                            >fearful</p>
                            <div style=""width:240px; margin: auto;"">
                                <img src=""images/map05_coolwarm_scaleRev_orientDef_000.png"" style= ""width:200px""alt=""img"">
                            </div>
                        </div>","136","","0","","","","images/map05_coolwarm_scaleRev_orientDef_000.png","fearful","1","05","05","coolwarm","orientDef","scaleRev","000","",""
"","","","","","html-slider-response","127","424991","0.0-121.0","bdsyvyk18e","23","NaN","<div style=""width:500px;"">
                            <p style=""font-size:50px; font-weight:bold;""
                            >fearful</p>
                            <div style=""width:240px; margin: auto;"">
                                <img src=""images/map02_Spectral_scaleRev_orientMir_180.png"" style= ""width:200px""alt=""img"">
                            </div>
                        </div>","-192","","0","","","","images/map02_Spectral_scaleRev_orientMir_180.png","fearful","1","02","02","Spectral","orientMir","scaleRev","180","",""
"","","","","","html-slider-response","128","427458","0.0-122.0","bdsyvyk18e","23","NaN","<div style=""width:500px;"">
                            <p style=""font-size:50px; font-weight:bold;""
                            >fearful</p>
                            <div style=""width:240px; margin: auto;"">
                                <img src=""images/map05_seismic_scaleRev_orientMir_000.png"" style= ""width:200px""alt=""img"">
                            </div>
                        </div>","-126","","0","","","","images/map05_seismic_scaleRev_orientMir_000.png","fearful","1","05","05","seismic","orientMir","scaleRev","000","",""
"","","","","","html-slider-response","129","429774","0.0-123.0","bdsyvyk18e","23","NaN","<div style=""width:500px;"">
                            <p style=""font-size:50px; font-weight:bold;""
                            >fearful</p>
                            <div style=""width:240px; margin: auto;"">
                                <img src=""images/map12_Greys_scaleDef_orientDef_090.png"" style= ""width:200px""alt=""img"">
                            </div>
                        </div>","180","","0","","","","images/map12_Greys_scaleDef_orientDef_090.png","fearful","1","12","12","Greys","orientDef","scaleDef","090","",""
"","","","","","html-slider-response","130","432874","0.0-124.0","bdsyvyk18e","23","NaN","<div style=""width:500px;"">
                            <p style=""font-size:50px; font-weight:bold;""
                            >fearful</p>
                            <div style=""width:240px; margin: auto;"">
                                <img src=""images/map23_PuBu_scaleDef_orientDef_270.png"" style= ""width:200px""alt=""img"">
                            </div>
                        </div>","186","","0","","","","images/map23_PuBu_scaleDef_orientDef_270.png","fearful","1","23","23","PuBu","orientDef","scaleDef","270","",""
"","","","","","html-slider-response","131","436323","0.0-125.0","bdsyvyk18e","23","NaN","<div style=""width:500px;"">
                            <p style=""font-size:50px; font-weight:bold;""
                            >fearful</p>
                            <div style=""width:240px; margin: auto;"">
                                <img src=""images/map27_RdGy_scaleDef_orientMir_090.png"" style= ""width:200px""alt=""img"">
                            </div>
                        </div>","182","","0","","","","images/map27_RdGy_scaleDef_orientMir_090.png","fearful","1","27","27","RdGy","orientMir","scaleDef","090","",""
"","","","","","html-slider-response","132","458974","0.0-126.0","bdsyvyk18e","23","NaN","<div style=""width:500px;"">
                            <p style=""font-size:50px; font-weight:bold;""
                            >fearful</p>
                            <div style=""width:240px; margin: auto;"">
                                <img src=""images/map26_BuGn_scaleRev_orientDef_180.png"" style= ""width:200px""alt=""img"">
                            </div>
                        </div>","-136","","0","","","","images/map26_BuGn_scaleRev_orientDef_180.png","fearful","1","26","26","BuGn","orientDef","scaleRev","180","",""
"","","","","","html-slider-response","133","466789","0.0-127.0","bdsyvyk18e","23","NaN","<div style=""width:500px;"">
                            <p style=""font-size:50px; font-weight:bold;""
                            >fearful</p>
                            <div style=""width:240px; margin: auto;"">
                                <img src=""images/map26_PRGn_scaleDef_orientMir_270.png"" style= ""width:200px""alt=""img"">
                            </div>
                        </div>","-156","","0","","","","images/map26_PRGn_scaleDef_orientMir_270.png","fearful","1","26","26","PRGn","orientMir","scaleDef","270","",""
"","","","","","html-slider-response","134","481306","0.0-128.0","bdsyvyk18e","23","NaN","<div style=""width:500px;"">
                            <p style=""font-size:50px; font-weight:bold;""
                            >fearful</p>
                            <div style=""width:240px; margin: auto;"">
                                <img src=""images/map05_bwr_scaleDef_orientDef_090.png"" style= ""width:200px""alt=""img"">
                            </div>
                        </div>","-146","","0","","","","images/map05_bwr_scaleDef_orientDef_090.png","fearful","1","05","05","bwr","orientDef","scaleDef","090","",""
"","","","","","html-slider-response","135","484106","0.0-129.0","bdsyvyk18e","23","NaN","<div style=""width:500px;"">
                            <p style=""font-size:50px; font-weight:bold;""
                            >fearful</p>
                            <div style=""width:240px; margin: auto;"">
                                <img src=""images/map12_Purples_scaleDef_orientDef_270.png"" style= ""width:200px""alt=""img"">
                            </div>
                        </div>","186","","0","","","","images/map12_Purples_scaleDef_orientDef_270.png","fearful","1","12","12","Purples","orientDef","scaleDef","270","",""
"","","","","","html-slider-response","136","487906","0.0-130.0","bdsyvyk18e","23","NaN","<div style=""width:500px;"">
                            <p style=""font-size:50px; font-weight:bold;""
                            >fearful</p>
                            <div style=""width:240px; margin: auto;"">
                                <img src=""images/map23_GnBu_scaleRev_orientDef_180.png"" style= ""width:200px""alt=""img"">
                            </div>
                        </div>","189","","0","","","","images/map23_GnBu_scaleRev_orientDef_180.png","fearful","1","23","23","GnBu","orientDef","scaleRev","180","",""
"","","","","","html-slider-response","137","490772","0.0-131.0","bdsyvyk18e","23","NaN","<div style=""width:500px;"">
                            <p style=""font-size:50px; font-weight:bold;""
                            >fearful</p>
                            <div style=""width:240px; margin: auto;"">
                                <img src=""images/map26_YlGn_scaleRev_orientMir_000.png"" style= ""width:200px""alt=""img"">
                            </div>
                        </div>","-10","","0","","","","images/map26_YlGn_scaleRev_orientMir_000.png","fearful","1","26","26","YlGn","orientMir","scaleRev","000","",""
"","","","","","html-slider-response","138","492755","0.0-132.0","bdsyvyk18e","23","NaN","<div style=""width:500px;"">
                            <p style=""font-size:50px; font-weight:bold;""
                            >fearful</p>
                            <div style=""width:240px; margin: auto;"">
                                <img src=""images/map26_PiYG_scaleRev_orientMir_180.png"" style= ""width:200px""alt=""img"">
                            </div>
                        </div>","-22","","0","","","","images/map26_PiYG_scaleRev_orientMir_180.png","fearful","1","26","26","PiYG","orientMir","scaleRev","180","",""
"","","","","","html-slider-response","139","497905","0.0-133.0","bdsyvyk18e","23","NaN","<div style=""width:500px;"">
                            <p style=""font-size:50px; font-weight:bold;""
                            >fearful</p>
                            <div style=""width:240px; margin: auto;"">
                                <img src=""images/map26_YlGn_scaleDef_orientDef_270.png"" style= ""width:200px""alt=""img"">
                            </div>
                        </div>","-12","","0","","","","images/map26_YlGn_scaleDef_orientDef_270.png","fearful","1","26","26","YlGn","orientDef","scaleDef","270","",""
"","","","","","html-slider-response","140","500738","0.0-134.0","bdsyvyk18e","23","NaN","<div style=""width:500px;"">
                            <p style=""font-size:50px; font-weight:bold;""
                            >fearful</p>
                            <div style=""width:240px; margin: auto;"">
                                <img src=""images/map23_PuBuGn_scaleDef_orientMir_270.png"" style= ""width:200px""alt=""img"">
                            </div>
                        </div>","152","","0","","","","images/map23_PuBuGn_scaleDef_orientMir_270.png","fearful","1","23","23","PuBuGn","orientMir","scaleDef","270","",""
"","","","","","html-slider-response","141","508456","0.0-135.0","bdsyvyk18e","23","NaN","<div style=""width:500px;"">
                            <p style=""font-size:50px; font-weight:bold;""
                            >fearful</p>
                            <div style=""width:240px; margin: auto;"">
                                <img src=""images/map02_RdYlGn_scaleDef_orientDef_270.png"" style= ""width:200px""alt=""img"">
                            </div>
                        </div>","-174","","0","","","","images/map02_RdYlGn_scaleDef_orientDef_270.png","fearful","1","02","02","RdYlGn","orientDef","scaleDef","270","",""
"","","","","","html-slider-response","142","510574","0.0-136.0","bdsyvyk18e","23","NaN","<div style=""width:500px;"">
                            <p style=""font-size:50px; font-weight:bold;""
                            >fearful</p>
                            <div style=""width:240px; margin: auto;"">
                                <img src=""images/map05_berlin_scaleRev_orientMir_180.png"" style= ""width:200px""alt=""img"">
                            </div>
                        </div>","-162","","0","","","","images/map05_berlin_scaleRev_orientMir_180.png","fearful","1","05","05","berlin","orientMir","scaleRev","180","",""
"","","","","","html-button-response","143","515211","0.0-137.0","bdsyvyk18e","23","4135","<p>You are doing great!<br></br> You are halway done with the current block. When you are ready to continue, click the 'Continue' button.</p>","0","","","","","","","","","","","","","","","",""
"","","","","","html-slider-response","144","518057","0.0-138.0","bdsyvyk18e","23","NaN","<div style=""width:500px;"">
                            <p style=""font-size:50px; font-weight:bold;""
                            >fearful</p>
                            <div style=""width:240px; margin: auto;"">
                                <img src=""images/map15_PuRd_scaleDef_orientDef_270.png"" style= ""width:200px""alt=""img"">
                            </div>
                        </div>","-185","","0","","","","images/map15_PuRd_scaleDef_orientDef_270.png","fearful","1","15","15","PuRd","orientDef","scaleDef","270","",""
"","","","","","html-slider-response","145","520355","0.0-139.0","bdsyvyk18e","23","NaN","<div style=""width:500px;"">
                            <p style=""font-size:50px; font-weight:bold;""
                            >fearful</p>
                            <div style=""width:240px; margin: auto;"">
                                <img src=""images/map07_vanimo_scaleRev_orientDef_180.png"" style= ""width:200px""alt=""img"">
                            </div>
                        </div>","-200","","0","","","","images/map07_vanimo_scaleRev_orientDef_180.png","fearful","1","07","07","vanimo","orientDef","scaleRev","180","",""
"","","","","","html-slider-response","146","522738","0.0-140.0","bdsyvyk18e","23","NaN","<div style=""width:500px;"">
                            <p style=""font-size:50px; font-weight:bold;""
                            >fearful</p>
                            <div style=""width:240px; margin: auto;"">
                                <img src=""images/map13_Oranges_scaleDef_orientDef_090.png"" style= ""width:200px""alt=""img"">
                            </div>
                        </div>","182","","0","","","","images/map13_Oranges_scaleDef_orientDef_090.png","fearful","1","13","13","Oranges","orientDef","scaleDef","090","",""
"","","","","","html-slider-response","147","525391","0.0-141.0","bdsyvyk18e","23","NaN","<div style=""width:500px;"">
                            <p style=""font-size:50px; font-weight:bold;""
                            >fearful</p>
                            <div style=""width:240px; margin: auto;"">
                                <img src=""images/map23_YlGnBu_scaleRev_orientMir_180.png"" style= ""width:200px""alt=""img"">
                            </div>
                        </div>","128","","0","","","","images/map23_YlGnBu_scaleRev_orientMir_180.png","fearful","1","23","23","YlGnBu","orientMir","scaleRev","180","",""
"","","","","","html-slider-response","148","527639","0.0-142.0","bdsyvyk18e","23","NaN","<div style=""width:500px;"">
                            <p style=""font-size:50px; font-weight:bold;""
                            >fearful</p>
                            <div style=""width:240px; margin: auto;"">
                                <img src=""images/map27_BrBG_scaleRev_orientDef_180.png"" style= ""width:200px""alt=""img"">
                            </div>
                        </div>","-154","","0","","","","images/map27_BrBG_scaleRev_orientDef_180.png","fearful","1","27","27","BrBG","orientDef","scaleRev","180","",""
"","","","","","html-slider-response","149","529605","0.0-143.0","bdsyvyk18e","23","NaN","<div style=""width:500px;"">
                            <p style=""font-size:50px; font-weight:bold;""
                            >fearful</p>
                            <div style=""width:240px; margin: auto;"">
                                <img src=""images/map15_OrRd_scaleRev_orientDef_180.png"" style= ""width:200px""alt=""img"">
                            </div>
                        </div>","165","","0","","","","images/map15_OrRd_scaleRev_orientDef_180.png","fearful","1","15","15","OrRd","orientDef","scaleRev","180","",""
"","","","","","html-slider-response","150","532039","0.0-144.0","bdsyvyk18e","23","NaN","<div style=""width:500px;"">
                            <p style=""font-size:50px; font-weight:bold;""
                            >fearful</p>
                            <div style=""width:240px; margin: auto;"">
                                <img src=""images/map10_plasma_scaleRev_orientDef_180.png"" style= ""width:200px""alt=""img"">
                            </div>
                        </div>","151","","0","","","","images/map10_plasma_scaleRev_orientDef_180.png","fearful","1","10","10","plasma","orientDef","scaleRev","180","",""
"","","","","","html-slider-response","151","534073","0.0-145.0","bdsyvyk18e","23","NaN","<div style=""width:500px;"">
                            <p style=""font-size:50px; font-weight:bold;""
                            >fearful</p>
                            <div style=""width:240px; margin: auto;"">
                                <img src=""images/map23_GnBu_scaleDef_orientDef_090.png"" style= ""width:200px""alt=""img"">
                            </div>
                        </div>","172","","0","","","","images/map23_GnBu_scaleDef_orientDef_090.png","fearful","1","23","23","GnBu","orientDef","scaleDef","090","",""
"","","","","","html-slider-response","152","535956","0.0-146.0","bdsyvyk18e","23","NaN","<div style=""width:500px;"">
                            <p style=""font-size:50px; font-weight:bold;""
                            >fearful</p>
                            <div style=""width:240px; margin: auto;"">
                                <img src=""images/map13_YlOrBr_scaleRev_orientMir_180.png"" style= ""width:200px""alt=""img"">
                            </div>
                        </div>","146","","0","","","","images/map13_YlOrBr_scaleRev_orientMir_180.png","fearful","1","13","13","YlOrBr","orientMir","scaleRev","180","",""
"","","","","","html-slider-response","153","537990","0.0-147.0","bdsyvyk18e","23","NaN","<div style=""width:500px;"">
                            <p style=""font-size:50px; font-weight:bold;""
                            >fearful</p>
                            <div style=""width:240px; margin: auto;"">
                                <img src=""images/map10_magma_scaleRev_orientMir_180.png"" style= ""width:200px""alt=""img"">
                            </div>
                        </div>","146","","0","","","","images/map10_magma_scaleRev_orientMir_180.png","fearful","1","10","10","magma","orientMir","scaleRev","180","",""
"","","","","","html-slider-response","154","539755","0.0-148.0","bdsyvyk18e","23","NaN","<div style=""width:500px;"">
                            <p style=""font-size:50px; font-weight:bold;""
                            >fearful</p>
                            <div style=""width:240px; margin: auto;"">
                                <img src=""images/map10_inferno_scaleRev_orientMir_000.png"" style= ""width:200px""alt=""img"">
                            </div>
                        </div>","148","","0","","","","images/map10_inferno_scaleRev_orientMir_000.png","fearful","1","10","10","inferno","orientMir","scaleRev","000","",""
"","","","","","html-slider-response","155","541823","0.0-149.0","bdsyvyk18e","23","NaN","<div style=""width:500px;"">
                            <p style=""font-size:50px; font-weight:bold;""
                            >fearful</p>
                            <div style=""width:240px; margin: auto;"">
                                <img src=""images/map07_viridis_scaleDef_orientMir_270.png"" style= ""width:200px""alt=""img"">
                            </div>
                        </div>","-5","","0","","","","images/map07_viridis_scaleDef_orientMir_270.png","fearful","1","07","07","viridis","orientMir","scaleDef","270","",""
"","","","","","html-slider-response","156","544671","0.0-150.0","bdsyvyk18e","23","NaN","<div style=""width:500px;"">
                            <p style=""font-size:50px; font-weight:bold;""
                            >fearful</p>
                            <div style=""width:240px; margin: auto;"">
                                <img src=""images/map15_BuPu_scaleDef_orientMir_270.png"" style= ""width:200px""alt=""img"">
                            </div>
                        </div>","168","","0","","","","images/map15_BuPu_scaleDef_orientMir_270.png","fearful","1","15","15","BuPu","orientMir","scaleDef","270","",""
"","","","","","html-slider-response","157","546737","0.0-151.0","bdsyvyk18e","23","NaN","<div style=""width:500px;"">
                            <p style=""font-size:50px; font-weight:bold;""
                            >fearful</p>
                            <div style=""width:240px; margin: auto;"">
                                <img src=""images/map10_inferno_scaleDef_orientDef_270.png"" style= ""width:200px""alt=""img"">
                            </div>
                        </div>","181","","0","","","","images/map10_inferno_scaleDef_orientDef_270.png","fearful","1","10","10","inferno","orientDef","scaleDef","270","",""
"","","","","","html-slider-response","158","549855","0.0-152.0","bdsyvyk18e","23","NaN","<div style=""width:500px;"">
                            <p style=""font-size:50px; font-weight:bold;""
                            >fearful</p>
                            <div style=""width:240px; margin: auto;"">
                                <img src=""images/map12_Blues_scaleDef_orientMir_090.png"" style= ""width:200px""alt=""img"">
                            </div>
