"success","timeout","failed_images","failed_audio","failed_video","trial_type","trial_index","time_elapsed","internal_node_id","subject_id","condition_num","rt","stimulus","response","question_order","slider_start","practiceTrial","practiceTrialNum","correct","image_path","concept","repetition","map_id","map_num","scale_name","orientation_code","mapping_code","rotation_code","ishihara_plate","correct_response"
"true","false","[]","[]","[]","preload","0","409","0.0-0.0","cgx44jdud1","22","","","","","","","","","","","","","","","","","","",""
"","","","","","html-button-response","1","3663","0.0-1.0","cgx44jdud1","22","3253","Welcome to our experiment!<p>At the bottom of this screen, you will see a button that says ""Begin Experiment"".<br>Please only click that button when you are ready to complete the 30 minute experiment in one sitting.</p><p> Once you click that button, it will not be possible to restart the experiment.","0","","","","","","","","","","","","","","","",""
"true","","","","","fullscreen","2","5882","0.0-2.0","cgx44jdud1","22","1216","","","","","","","","","","","","","","","","","",""
"","","","","","survey-multi-select","3","9615","0.0-3.0","cgx44jdud1","22","3728","","{""Consent"":[""<strong>I consent</strong>""]}","[0]","","","","","","","","","","","","","","",""
"","","","","","html-button-response","4","16880","0.0-4.0","cgx44jdud1","22","7263","Welcome! <p> This experiment involves two parts: demographic information, followed by the experimental task.<p> It will take about 30 minutes to complete both parts.","0","","","","","","","","","","","","","","","",""
"","","","","","survey-text","5","29348","0.0-5.0","cgx44jdud1","22","12462","","{""Age"":""18"",""Gender"":""Female"",""Race/ethnicity"":""White"",""Languages"":""English""}","","","","","","","","","","","","","","","",""
"","","","","","html-slider-response","6","101863","0.0-6.0","cgx44jdud1","22","72511","<div style='text-align:left; font-size:20px; line-height:25px; width: 1000px;'>
                                During this experiment you will be asked to rate how much you associate maps with                    different concepts.<br> Below, you can see some examples of the maps you will be asked to rate. Above the maps
                    is the list of concepts.<br>You will be asked                    to rate how much you associate each map with each concept on a scale from 'not at all' to 'very much' like the
                    one below. <br><br>
                    Now, please look at the list of concepts and maps. For each concept, think about the map you associate 'very
                    much' with the concept.<br>                     When you see that map during the experiment, please rate it near the 'very much' endpoint of the
                    scale.<br>Now, please think about which map you associate 'not at all'                     with each concept. When you see that map during the experiment, please rate it near the 'not at all' endpoint
                    of the scale.<br>
                    Please use the full range of the scale. That is, if a map is somewhat associated with the concept, you would
                    click partway between the middle point and right side of the scale.                    You will be asked to rate each map for a given concept before moving on to the next concept.<br>Press the
                    'Continue' button for instructions on how to use the slider.                    <br>
                </div>

                <div style=""width: 500px; margin: 0 auto;"">
                    <!-- Centered text paragraphs -->
                    <div style=""text-align: center; width: 500px;"">
                        <p style=""font-size:25px; line-height:15px;"">
                            disgust&nbsp;&nbsp;&nbsp;&nbsp;
                            happy&nbsp;&nbsp;&nbsp;&nbsp;
                            sad&nbsp;&nbsp;&nbsp;&nbsp;
                            fearful&nbsp;&nbsp;&nbsp;&nbsp;
                            angry
                        </p>
                        <!-- <p style=""font-size:20px; line-height:15px;"">happy</p>
                        <p style=""font-size:20px;line-height:15px;"">sad</p>
                        <p style=""font-size:20px;line-height:15px;"">fearful</p>
                        <p style=""font-size:20px;line-height:15px;"">angry</p> -->
                    </div>
            

                    <!-- Grid section -->
                   <div style=""display: flex; justify-content: center; padding-top: 15px;"">
                    <div style=""display: grid; grid-template-columns: repeat(10, 55px); grid-gap: 5px; width: auto;"">
                        <img src=""images/map07_turbo_scaleDef_orientMir_000.png"" alt=""map"" style=""width: 100%;""><img src=""images/map10_inferno_scaleRev_orientDef_270.png"" alt=""map"" style=""width: 100%;""><img src=""images/map02_coolwarm_scaleRev_orientMir_270.png"" alt=""map"" style=""width: 100%;""><img src=""images/map23_PuBuGn_scaleRev_orientMir_270.png"" alt=""map"" style=""width: 100%;""><img src=""images/map02_RdYlGn_scaleRev_orientDef_270.png"" alt=""map"" style=""width: 100%;""><img src=""images/map02_Spectral_scaleDef_orientMir_000.png"" alt=""map"" style=""width: 100%;""><img src=""images/map27_PuOr_scaleRev_orientDef_270.png"" alt=""map"" style=""width: 100%;""><img src=""images/map07_vanimo_scaleRev_orientDef_090.png"" alt=""map"" style=""width: 100%;""><img src=""images/map26_BuGn_scaleRev_orientDef_090.png"" alt=""map"" style=""width: 100%;""><img src=""images/map15_PuRd_scaleDef_orientDef_180.png"" alt=""map"" style=""width: 100%;""><img src=""images/map27_BrBG_scaleDef_orientDef_000.png"" alt=""map"" style=""width: 100%;""><img src=""images/map10_plasma_scaleDef_orientDef_000.png"" alt=""map"" style=""width: 100%;""><img src=""images/map13_YlOrRd_scaleRev_orientMir_270.png"" alt=""map"" style=""width: 100%;""><img src=""images/map12_Blues_scaleDef_orientMir_000.png"" alt=""map"" style=""width: 100%;""><img src=""images/map05_berlin_scaleDef_orientMir_000.png"" alt=""map"" style=""width: 100%;""><img src=""images/map15_BuPu_scaleDef_orientMir_180.png"" alt=""map"" style=""width: 100%;""><img src=""images/map05_bwr_scaleDef_orientDef_000.png"" alt=""map"" style=""width: 100%;""><img src=""images/map12_Greys_scaleRev_orientDef_090.png"" alt=""map"" style=""width: 100%;""><img src=""images/map23_PuBu_scaleDef_orientDef_180.png"" alt=""map"" style=""width: 100%;""><img src=""images/map05_seismic_scaleDef_orientDef_180.png"" alt=""map"" style=""width: 100%;""><img src=""images/map10_cividis_scaleDef_orientMir_180.png"" alt=""map"" style=""width: 100%;""><img src=""images/map23_GnBu_scaleRev_orientDef_090.png"" alt=""map"" style=""width: 100%;""><img src=""images/map23_YlGnBu_scaleRev_orientMir_090.png"" alt=""map"" style=""width: 100%;""><img src=""images/map07_viridis_scaleRev_orientMir_270.png"" alt=""map"" style=""width: 100%;""><img src=""images/map26_PRGn_scaleDef_orientMir_180.png"" alt=""map"" style=""width: 100%;""><img src=""images/map15_RdPu_scaleDef_orientMir_000.png"" alt=""map"" style=""width: 100%;""><img src=""images/map26_YlGn_scaleRev_orientDef_270.png"" alt=""map"" style=""width: 100%;""><img src=""images/map12_Greens_scaleRev_orientMir_270.png"" alt=""map"" style=""width: 100%;""><img src=""images/map26_PiYG_scaleDef_orientMir_000.png"" alt=""map"" style=""width: 100%;""><img src=""images/map05_managua_scaleDef_orientMir_180.png"" alt=""map"" style=""width: 100%;""><img src=""images/map02_RdYlBu_scaleRev_orientDef_090.png"" alt=""map"" style=""width: 100%;""><img src=""images/map13_Oranges_scaleRev_orientDef_090.png"" alt=""map"" style=""width: 100%;""><img src=""images/map13_YlOrBr_scaleDef_orientMir_000.png"" alt=""map"" style=""width: 100%;""><img src=""images/map07_gist_earth_scaleDef_orientDef_180.png"" alt=""map"" style=""width: 100%;""><img src=""images/map13_Reds_scaleDef_orientDef_180.png"" alt=""map"" style=""width: 100%;""><img src=""images/map15_OrRd_scaleRev_orientDef_090.png"" alt=""map"" style=""width: 100%;""><img src=""images/map27_RdBu_scaleDef_orientMir_180.png"" alt=""map"" style=""width: 100%;""><img src=""images/map12_Purples_scaleRev_orientDef_270.png"" alt=""map"" style=""width: 100%;""><img src=""images/map10_magma_scaleRev_orientMir_090.png"" alt=""map"" style=""width: 100%;""><img src=""images/map27_RdGy_scaleDef_orientMir_000.png"" alt=""map"" style=""width: 100%;"">
                    </div>
                </div>

                    <!-- Clear floats -->
                    <div style=""clear: both;""></div>
                </div>
                            ","null","","0","true","","","","","","","","","","","","",""
"","","","","","html-button-response","7","106246","0.0-7.0","cgx44jdud1","22","4383","<div style=""width:800px;""><p style=""text-align:left"">To move the slider, click and drag your cursor to the location of the scale where you would like to make your rating and then let go. When you let go of the slider, your response will be recorded and the next trial will begin. <br>
                    We are interested in your initial impressions of each map for the given concept, so please go with your first intuition. <br>
                    Before you begin the experiment, there will be four training trials for you to practice using the scale. <br>
                     When you are ready to start the training trials, please click ""Continue"".</p><br></div>","0","","","","","","","","","","","","","","","",""
"","","","","","html-slider-response","8","109143","0.0-8.0-0.0","cgx44jdud1","22","NaN","<div style=""width:500px;"">
                                    <p style=""font-size:25px;"">Please move the slider all the way to the <br> right endpoint of the scale</p>

                                    </div>
                                </div>","200","","0","true","0","true","","","","","","","","","","",""
"","","","","","html-button-response","9","110596","0.0-8.0-1.0","cgx44jdud1","22","951","<p align='center'><b>Good job!</b> Click on 'Continue' to proceed.</p>","0","","","","","","","","","","","","","","","",""
"","","","","","html-slider-response","10","113424","0.0-9.0-0.0","cgx44jdud1","22","NaN","<div style=""width:500px;"">
                                    <p style=""font-size:25px;"">Please move the slider all the way to the <br> left endpoint of the scale</p>

                                    </div>
                                </div>","-200","","0","true","1","true","","","","","","","","","","",""
"","","","","","html-button-response","11","114680","0.0-9.0-1.0","cgx44jdud1","22","753","<p align='center'><b>Good job!</b> Click on 'Continue' to proceed.</p>","0","","","","","","","","","","","","","","","",""
"","","","","","html-slider-response","12","117475","0.0-10.0-0.0","cgx44jdud1","22","NaN","<div style=""width:500px;"">
                                    <p style=""font-size:25px;"">Please move the slider halfway between the center and right endpoint of the scale</p>

                                    </div>
                                </div>","-1","","0","true","2","false","","","","","","","","","","",""
"","","","","","html-button-response","13","123346","0.0-10.0-1.0","cgx44jdud1","22","5369","<p align='center'><b>Not quite!</b> The slider was not placed near the instructed located. Click on 'Continue' to try again. </p>","0","","","","","","","","","","","","","","","",""
"","","","","","html-slider-response","14","128890","0.0-10.1-0.1","cgx44jdud1","22","NaN","<div style=""width:500px;"">
                                    <p style=""font-size:25px;"">Please move the slider halfway between the center and right endpoint of the scale</p>

                                    </div>
                                </div>","108","","0","true","2","true","","","","","","","","","","",""
"","","","","","html-button-response","15","130079","0.0-10.1-1.1","cgx44jdud1","22","686","<p align='center'><b>Good job!</b> Click on 'Continue' to proceed.</p>","0","","","","","","","","","","","","","","","",""
"","","","","","html-slider-response","16","137724","0.0-11.0-0.0","cgx44jdud1","22","NaN","<div style=""width:500px;"">
                                    <p style=""font-size:25px;"">Please move the slider halfway between the center and left endpoint of the scale</p>

                                    </div>
                                </div>","-108","","0","true","3","true","","","","","","","","","","",""
"","","","","","html-button-response","17","139346","0.0-11.0-1.0","cgx44jdud1","22","1119","<p align='center'><b>Good job!</b> Click on 'Continue' to proceed.</p>","0","","","","","","","","","","","","","","","",""
"","","","","","html-button-response","18","140696","0.0-12.0","cgx44jdud1","22","1349","<p>Great job! You've completed the practice trials. Now you will begin the main task.</p>","0","","","","","","","","","","","","","","","",""
"","","","","","html-button-response","19","145396","0.0-13.0","cgx44jdud1","22","4698","<p>In this block of trials, you will be asked to rate how much you associate each map with:</p > <p style = 'font-size:150%; font-weight: bold'>disgust</p><br></br>","0","","","","","","","","","","","","","","","",""
"","","","","","html-slider-response","20","148157","0.0-14.0","cgx44jdud1","22","NaN","<div style=""width:500px;"">
                            <p style=""font-size:50px; font-weight:bold;""
                            >disgust</p>
                            <div style=""width:240px; margin: auto;"">
                                <img src=""images/map23_GnBu_scaleRev_orientDef_090.png"" style= ""width:200px""alt=""img"">
                            </div>
                        </div>","43","","0","","","","images/map23_GnBu_scaleRev_orientDef_090.png","disgust","1","23","23","GnBu","orientDef","scaleRev","090","",""
"","","","","","html-slider-response","21","152058","0.0-15.0","cgx44jdud1","22","NaN","<div style=""width:500px;"">
                            <p style=""font-size:50px; font-weight:bold;""
                            >disgust</p>
                            <div style=""width:240px; margin: auto;"">
                                <img src=""images/map07_gist_earth_scaleDef_orientDef_180.png"" style= ""width:200px""alt=""img"">
                            </div>
                        </div>","-84","","0","","","","images/map07_gist_earth_scaleDef_orientDef_180.png","disgust","1","07","07","gist","scaleDef","earth","orientDef","",""
"","","","","","html-slider-response","22","155125","0.0-16.0","cgx44jdud1","22","NaN","<div style=""width:500px;"">
                            <p style=""font-size:50px; font-weight:bold;""
                            >disgust</p>
                            <div style=""width:240px; margin: auto;"">
                                <img src=""images/map26_PiYG_scaleRev_orientMir_090.png"" style= ""width:200px""alt=""img"">
                            </div>
                        </div>","-102","","0","","","","images/map26_PiYG_scaleRev_orientMir_090.png","disgust","1","26","26","PiYG","orientMir","scaleRev","090","",""
"","","","","","html-slider-response","23","157491","0.0-17.0","cgx44jdud1","22","NaN","<div style=""width:500px;"">
                            <p style=""font-size:50px; font-weight:bold;""
                            >disgust</p>
                            <div style=""width:240px; margin: auto;"">
                                <img src=""images/map15_OrRd_scaleDef_orientDef_000.png"" style= ""width:200px""alt=""img"">
                            </div>
                        </div>","91","","0","","","","images/map15_OrRd_scaleDef_orientDef_000.png","disgust","1","15","15","OrRd","orientDef","scaleDef","000","",""
"","","","","","html-slider-response","24","160057","0.0-18.0","cgx44jdud1","22","NaN","<div style=""width:500px;"">
                            <p style=""font-size:50px; font-weight:bold;""
                            >disgust</p>
                            <div style=""width:240px; margin: auto;"">
                                <img src=""images/map10_cividis_scaleRev_orientMir_270.png"" style= ""width:200px""alt=""img"">
                            </div>
                        </div>","68","","0","","","","images/map10_cividis_scaleRev_orientMir_270.png","disgust","1","10","10","cividis","orientMir","scaleRev","270","",""
"","","","","","html-slider-response","25","163276","0.0-19.0","cgx44jdud1","22","NaN","<div style=""width:500px;"">
                            <p style=""font-size:50px; font-weight:bold;""
                            >disgust</p>
                            <div style=""width:240px; margin: auto;"">
                                <img src=""images/map27_RdGy_scaleRev_orientMir_090.png"" style= ""width:200px""alt=""img"">
                            </div>
                        </div>","87","","0","","","","images/map27_RdGy_scaleRev_orientMir_090.png","disgust","1","27","27","RdGy","orientMir","scaleRev","090","",""
"","","","","","html-slider-response","26","165241","0.0-20.0","cgx44jdud1","22","NaN","<div style=""width:500px;"">
                            <p style=""font-size:50px; font-weight:bold;""
                            >disgust</p>
                            <div style=""width:240px; margin: auto;"">
                                <img src=""images/map12_Blues_scaleRev_orientMir_090.png"" style= ""width:200px""alt=""img"">
                            </div>
                        </div>","-97","","0","","","","images/map12_Blues_scaleRev_orientMir_090.png","disgust","1","12","12","Blues","orientMir","scaleRev","090","",""
"","","","","","html-slider-response","27","167457","0.0-21.0","cgx44jdud1","22","NaN","<div style=""width:500px;"">
                            <p style=""font-size:50px; font-weight:bold;""
                            >disgust</p>
                            <div style=""width:240px; margin: auto;"">
                                <img src=""images/map27_RdGy_scaleDef_orientMir_000.png"" style= ""width:200px""alt=""img"">
                            </div>
                        </div>","96","","0","","","","images/map27_RdGy_scaleDef_orientMir_000.png","disgust","1","27","27","RdGy","orientMir","scaleDef","000","",""
"","","","","","html-slider-response","28","170941","0.0-22.0","cgx44jdud1","22","NaN","<div style=""width:500px;"">
                            <p style=""font-size:50px; font-weight:bold;""
                            >disgust</p>
                            <div style=""width:240px; margin: auto;"">
                                <img src=""images/map26_PRGn_scaleRev_orientMir_270.png"" style= ""width:200px""alt=""img"">
                            </div>
                        </div>","-73","","0","","","","images/map26_PRGn_scaleRev_orientMir_270.png","disgust","1","26","26","PRGn","orientMir","scaleRev","270","",""
"","","","","","html-slider-response","29","173240","0.0-23.0","cgx44jdud1","22","NaN","<div style=""width:500px;"">
                            <p style=""font-size:50px; font-weight:bold;""
                            >disgust</p>
                            <div style=""width:240px; margin: auto;"">
                                <img src=""images/map07_gist_earth_scaleRev_orientDef_270.png"" style= ""width:200px""alt=""img"">
                            </div>
                        </div>","86","","0","","","","images/map07_gist_earth_scaleRev_orientDef_270.png","disgust","1","07","07","gist","scaleRev","earth","orientDef","",""
"","","","","","html-slider-response","30","177858","0.0-24.0","cgx44jdud1","22","NaN","<div style=""width:500px;"">
                            <p style=""font-size:50px; font-weight:bold;""
                            >disgust</p>
                            <div style=""width:240px; margin: auto;"">
                                <img src=""images/map10_magma_scaleRev_orientMir_090.png"" style= ""width:200px""alt=""img"">
                            </div>
                        </div>","2","","0","","","","images/map10_magma_scaleRev_orientMir_090.png","disgust","1","10","10","magma","orientMir","scaleRev","090","",""
"","","","","","html-slider-response","31","179992","0.0-25.0","cgx44jdud1","22","NaN","<div style=""width:500px;"">
                            <p style=""font-size:50px; font-weight:bold;""
                            >disgust</p>
                            <div style=""width:240px; margin: auto;"">
                                <img src=""images/map27_PuOr_scaleRev_orientDef_270.png"" style= ""width:200px""alt=""img"">
                            </div>
                        </div>","75","","0","","","","images/map27_PuOr_scaleRev_orientDef_270.png","disgust","1","27","27","PuOr","orientDef","scaleRev","270","",""
"","","","","","html-slider-response","32","182357","0.0-26.0","cgx44jdud1","22","NaN","<div style=""width:500px;"">
                            <p style=""font-size:50px; font-weight:bold;""
                            >disgust</p>
                            <div style=""width:240px; margin: auto;"">
                                <img src=""images/map05_managua_scaleRev_orientMir_270.png"" style= ""width:200px""alt=""img"">
                            </div>
                        </div>","-91","","0","","","","images/map05_managua_scaleRev_orientMir_270.png","disgust","1","05","05","managua","orientMir","scaleRev","270","",""
"","","","","","html-slider-response","33","184892","0.0-27.0","cgx44jdud1","22","NaN","<div style=""width:500px;"">
                            <p style=""font-size:50px; font-weight:bold;""
                            >disgust</p>
                            <div style=""width:240px; margin: auto;"">
                                <img src=""images/map26_YlGn_scaleRev_orientDef_270.png"" style= ""width:200px""alt=""img"">
                            </div>
                        </div>","-85","","0","","","","images/map26_YlGn_scaleRev_orientDef_270.png","disgust","1","26","26","YlGn","orientDef","scaleRev","270","",""
"","","","","","html-slider-response","34","187190","0.0-28.0","cgx44jdud1","22","NaN","<div style=""width:500px;"">
                            <p style=""font-size:50px; font-weight:bold;""
                            >disgust</p>
                            <div style=""width:240px; margin: auto;"">
                                <img src=""images/map15_PuRd_scaleDef_orientDef_180.png"" style= ""width:200px""alt=""img"">
                            </div>
                        </div>","-83","","0","","","","images/map15_PuRd_scaleDef_orientDef_180.png","disgust","1","15","15","PuRd","orientDef","scaleDef","180","",""
"","","","","","html-slider-response","35","189507","0.0-29.0","cgx44jdud1","22","NaN","<div style=""width:500px;"">
                            <p style=""font-size:50px; font-weight:bold;""
                            >disgust</p>
                            <div style=""width:240px; margin: auto;"">
                                <img src=""images/map27_RdBu_scaleRev_orientMir_270.png"" style= ""width:200px""alt=""img"">
                            </div>
                        </div>","58","","0","","","","images/map27_RdBu_scaleRev_orientMir_270.png","disgust","1","27","27","RdBu","orientMir","scaleRev","270","",""
"","","","","","html-slider-response","36","191708","0.0-30.0","cgx44jdud1","22","NaN","<div style=""width:500px;"">
                            <p style=""font-size:50px; font-weight:bold;""
                            >disgust</p>
                            <div style=""width:240px; margin: auto;"">
                                <img src=""images/map07_viridis_scaleDef_orientMir_180.png"" style= ""width:200px""alt=""img"">
                            </div>
                        </div>","6","","0","","","","images/map07_viridis_scaleDef_orientMir_180.png","disgust","1","07","07","viridis","orientMir","scaleDef","180","",""
"","","","","","html-slider-response","37","193808","0.0-31.0","cgx44jdud1","22","NaN","<div style=""width:500px;"">
                            <p style=""font-size:50px; font-weight:bold;""
                            >disgust</p>
                            <div style=""width:240px; margin: auto;"">
                                <img src=""images/map05_bwr_scaleDef_orientDef_000.png"" style= ""width:200px""alt=""img"">
                            </div>
                        </div>","65","","0","","","","images/map05_bwr_scaleDef_orientDef_000.png","disgust","1","05","05","bwr","orientDef","scaleDef","000","",""
"","","","","","html-slider-response","38","196275","0.0-32.0","cgx44jdud1","22","NaN","<div style=""width:500px;"">
                            <p style=""font-size:50px; font-weight:bold;""
                            >disgust</p>
                            <div style=""width:240px; margin: auto;"">
                                <img src=""images/map13_YlOrRd_scaleRev_orientMir_270.png"" style= ""width:200px""alt=""img"">
                            </div>
                        </div>","58","","0","","","","images/map13_YlOrRd_scaleRev_orientMir_270.png","disgust","1","13","13","YlOrRd","orientMir","scaleRev","270","",""
"","","","","","html-slider-response","39","198342","0.0-33.0","cgx44jdud1","22","NaN","<div style=""width:500px;"">
                            <p style=""font-size:50px; font-weight:bold;""
                            >disgust</p>
                            <div style=""width:240px; margin: auto;"">
                                <img src=""images/map27_BrBG_scaleRev_orientDef_090.png"" style= ""width:200px""alt=""img"">
                            </div>
                        </div>","55","","0","","","","images/map27_BrBG_scaleRev_orientDef_090.png","disgust","1","27","27","BrBG","orientDef","scaleRev","090","",""
"","","","","","html-slider-response","40","200641","0.0-34.0","cgx44jdud1","22","NaN","<div style=""width:500px;"">
                            <p style=""font-size:50px; font-weight:bold;""
                            >disgust</p>
                            <div style=""width:240px; margin: auto;"">
                                <img src=""images/map15_RdPu_scaleDef_orientMir_000.png"" style= ""width:200px""alt=""img"">
                            </div>
                        </div>","-74","","0","","","","images/map15_RdPu_scaleDef_orientMir_000.png","disgust","1","15","15","RdPu","orientMir","scaleDef","000","",""
"","","","","","html-slider-response","41","203611","0.0-35.0","cgx44jdud1","22","NaN","<div style=""width:500px;"">
                            <p style=""font-size:50px; font-weight:bold;""
                            >disgust</p>
                            <div style=""width:240px; margin: auto;"">
                                <img src=""images/map10_cividis_scaleDef_orientMir_180.png"" style= ""width:200px""alt=""img"">
                            </div>
                        </div>","59","","0","","","","images/map10_cividis_scaleDef_orientMir_180.png","disgust","1","10","10","cividis","orientMir","scaleDef","180","",""
"","","","","","html-slider-response","42","206124","0.0-36.0","cgx44jdud1","22","NaN","<div style=""width:500px;"">
                            <p style=""font-size:50px; font-weight:bold;""
                            >disgust</p>
                            <div style=""width:240px; margin: auto;"">
                                <img src=""images/map23_PuBuGn_scaleDef_orientMir_180.png"" style= ""width:200px""alt=""img"">
                            </div>
                        </div>","-126","","0","","","","images/map23_PuBuGn_scaleDef_orientMir_180.png","disgust","1","23","23","PuBuGn","orientMir","scaleDef","180","",""
"","","","","","html-slider-response","43","209273","0.0-37.0","cgx44jdud1","22","NaN","<div style=""width:500px;"">
                            <p style=""font-size:50px; font-weight:bold;""
                            >disgust</p>
                            <div style=""width:240px; margin: auto;"">
                                <img src=""images/map02_Spectral_scaleRev_orientMir_090.png"" style= ""width:200px""alt=""img"">
                            </div>
                        </div>","68","","0","","","","images/map02_Spectral_scaleRev_orientMir_090.png","disgust","1","02","02","Spectral","orientMir","scaleRev","090","",""
"","","","","","html-slider-response","44","211224","0.0-38.0","cgx44jdud1","22","NaN","<div style=""width:500px;"">
                            <p style=""font-size:50px; font-weight:bold;""
                            >disgust</p>
                            <div style=""width:240px; margin: auto;"">
                                <img src=""images/map13_YlOrRd_scaleDef_orientMir_180.png"" style= ""width:200px""alt=""img"">
                            </div>
                        </div>","82","","0","","","","images/map13_YlOrRd_scaleDef_orientMir_180.png","disgust","1","13","13","YlOrRd","orientMir","scaleDef","180","",""
"","","","","","html-slider-response","45","213258","0.0-39.0","cgx44jdud1","22","NaN","<div style=""width:500px;"">
                            <p style=""font-size:50px; font-weight:bold;""
                            >disgust</p>
                            <div style=""width:240px; margin: auto;"">
                                <img src=""images/map26_BuGn_scaleDef_orientDef_000.png"" style= ""width:200px""alt=""img"">
                            </div>
                        </div>","-58","","0","","","","images/map26_BuGn_scaleDef_orientDef_000.png","disgust","1","26","26","BuGn","orientDef","scaleDef","000","",""
"","","","","","html-slider-response","46","214790","0.0-40.0","cgx44jdud1","22","NaN","<div style=""width:500px;"">
                            <p style=""font-size:50px; font-weight:bold;""
                            >disgust</p>
                            <div style=""width:240px; margin: auto;"">
                                <img src=""images/map13_Oranges_scaleRev_orientDef_090.png"" style= ""width:200px""alt=""img"">
                            </div>
                        </div>","44","","0","","","","images/map13_Oranges_scaleRev_orientDef_090.png","disgust","1","13","13","Oranges","orientDef","scaleRev","090","",""
"","","","","","html-slider-response","47","216257","0.0-41.0","cgx44jdud1","22","NaN","<div style=""width:500px;"">
                            <p style=""font-size:50px; font-weight:bold;""
                            >disgust</p>
                            <div style=""width:240px; margin: auto;"">
                                <img src=""images/map23_YlGnBu_scaleRev_orientMir_090.png"" style= ""width:200px""alt=""img"">
                            </div>
                        </div>","2","","0","","","","images/map23_YlGnBu_scaleRev_orientMir_090.png","disgust","1","23","23","YlGnBu","orientMir","scaleRev","090","",""
"","","","","","html-slider-response","48","218974","0.0-42.0","cgx44jdud1","22","NaN","<div style=""width:500px;"">
                            <p style=""font-size:50px; font-weight:bold;""
                            >disgust</p>
                            <div style=""width:240px; margin: auto;"">
                                <img src=""images/map10_inferno_scaleDef_orientDef_180.png"" style= ""width:200px""alt=""img"">
                            </div>
                        </div>","35","","0","","","","images/map10_inferno_scaleDef_orientDef_180.png","disgust","1","10","10","inferno","orientDef","scaleDef","180","",""
"","","","","","html-slider-response","49","221174","0.0-43.0","cgx44jdud1","22","NaN","<div style=""width:500px;"">
                            <p style=""font-size:50px; font-weight:bold;""
                            >disgust</p>
                            <div style=""width:240px; margin: auto;"">
                                <img src=""images/map26_BuGn_scaleRev_orientDef_090.png"" style= ""width:200px""alt=""img"">
                            </div>
                        </div>","-58","","0","","","","images/map26_BuGn_scaleRev_orientDef_090.png","disgust","1","26","26","BuGn","orientDef","scaleRev","090","",""
"","","","","","html-slider-response","50","224607","0.0-44.0","cgx44jdud1","22","NaN","<div style=""width:500px;"">
                            <p style=""font-size:50px; font-weight:bold;""
                            >disgust</p>
                            <div style=""width:240px; margin: auto;"">
                                <img src=""images/map15_BuPu_scaleRev_orientMir_270.png"" style= ""width:200px""alt=""img"">
                            </div>
                        </div>","54","","0","","","","images/map15_BuPu_scaleRev_orientMir_270.png","disgust","1","15","15","BuPu","orientMir","scaleRev","270","",""
"","","","","","html-slider-response","51","226692","0.0-45.0","cgx44jdud1","22","NaN","<div style=""width:500px;"">
                            <p style=""font-size:50px; font-weight:bold;""
                            >disgust</p>
                            <div style=""width:240px; margin: auto;"">
                                <img src=""images/map26_PiYG_scaleDef_orientMir_000.png"" style= ""width:200px""alt=""img"">
                            </div>
                        </div>","-43","","0","","","","images/map26_PiYG_scaleDef_orientMir_000.png","disgust","1","26","26","PiYG","orientMir","scaleDef","000","",""
"","","","","","html-slider-response","52","228390","0.0-46.0","cgx44jdud1","22","NaN","<div style=""width:500px;"">
                            <p style=""font-size:50px; font-weight:bold;""
                            >disgust</p>
                            <div style=""width:240px; margin: auto;"">
                                <img src=""images/map12_Blues_scaleDef_orientMir_000.png"" style= ""width:200px""alt=""img"">
                            </div>
                        </div>","-84","","0","","","","images/map12_Blues_scaleDef_orientMir_000.png","disgust","1","12","12","Blues","orientMir","scaleDef","000","",""
"","","","","","html-slider-response","53","230490","0.0-47.0","cgx44jdud1","22","NaN","<div style=""width:500px;"">
                            <p style=""font-size:50px; font-weight:bold;""
                            >disgust</p>
                            <div style=""width:240px; margin: auto;"">
                                <img src=""images/map10_magma_scaleDef_orientMir_000.png"" style= ""width:200px""alt=""img"">
                            </div>
                        </div>","50","","0","","","","images/map10_magma_scaleDef_orientMir_000.png","disgust","1","10","10","magma","orientMir","scaleDef","000","",""
"","","","","","html-slider-response","54","232226","0.0-48.0","cgx44jdud1","22","NaN","<div style=""width:500px;"">
                            <p style=""font-size:50px; font-weight:bold;""
                            >disgust</p>
                            <div style=""width:240px; margin: auto;"">
                                <img src=""images/map26_PRGn_scaleDef_orientMir_180.png"" style= ""width:200px""alt=""img"">
                            </div>
                        </div>","-68","","0","","","","images/map26_PRGn_scaleDef_orientMir_180.png","disgust","1","26","26","PRGn","orientMir","scaleDef","180","",""
"","","","","","html-slider-response","55","234194","0.0-49.0","cgx44jdud1","22","NaN","<div style=""width:500px;"">
                            <p style=""font-size:50px; font-weight:bold;""
                            >disgust</p>
                            <div style=""width:240px; margin: auto;"">
                                <img src=""images/map23_PuBu_scaleDef_orientDef_180.png"" style= ""width:200px""alt=""img"">
                            </div>
                        </div>","-115","","0","","","","images/map23_PuBu_scaleDef_orientDef_180.png","disgust","1","23","23","PuBu","orientDef","scaleDef","180","",""
"","","","","","html-slider-response","56","235940","0.0-50.0","cgx44jdud1","22","NaN","<div style=""width:500px;"">
                            <p style=""font-size:50px; font-weight:bold;""
                            >disgust</p>
                            <div style=""width:240px; margin: auto;"">
                                <img src=""images/map10_inferno_scaleRev_orientDef_270.png"" style= ""width:200px""alt=""img"">
                            </div>
                        </div>","50","","0","","","","images/map10_inferno_scaleRev_orientDef_270.png","disgust","1","10","10","inferno","orientDef","scaleRev","270","",""
"","","","","","html-slider-response","57","237657","0.0-51.0","cgx44jdud1","22","NaN","<div style=""width:500px;"">
                            <p style=""font-size:50px; font-weight:bold;""
                            >disgust</p>
                            <div style=""width:240px; margin: auto;"">
                                <img src=""images/map07_viridis_scaleRev_orientMir_270.png"" style= ""width:200px""alt=""img"">
                            </div>
                        </div>","-1","","0","","","","images/map07_viridis_scaleRev_orientMir_270.png","disgust","1","07","07","viridis","orientMir","scaleRev","270","",""
"","","","","","html-slider-response","58","240824","0.0-52.0","cgx44jdud1","22","NaN","<div style=""width:500px;"">
                            <p style=""font-size:50px; font-weight:bold;""
                            >disgust</p>
                            <div style=""width:240px; margin: auto;"">
                                <img src=""images/map12_Greys_scaleRev_orientDef_090.png"" style= ""width:200px""alt=""img"">
                            </div>
                        </div>","106","","0","","","","images/map12_Greys_scaleRev_orientDef_090.png","disgust","1","12","12","Greys","orientDef","scaleRev","090","",""
"","","","","","html-slider-response","59","243276","0.0-53.0","cgx44jdud1","22","NaN","<div style=""width:500px;"">
                            <p style=""font-size:50px; font-weight:bold;""
                            >disgust</p>
                            <div style=""width:240px; margin: auto;"">
                                <img src=""images/map23_PuBuGn_scaleRev_orientMir_270.png"" style= ""width:200px""alt=""img"">
                            </div>
                        </div>","-81","","0","","","","images/map23_PuBuGn_scaleRev_orientMir_270.png","disgust","1","23","23","PuBuGn","orientMir","scaleRev","270","",""
"","","","","","html-button-response","60","247530","0.0-54.0","cgx44jdud1","22","3752","<p>You are doing great!<br></br> You are halway done with the current block. When you are ready to continue, click the 'Continue' button.</p>","0","","","","","","","","","","","","","","","",""
"","","","","","html-slider-response","61","249209","0.0-55.0","cgx44jdud1","22","NaN","<div style=""width:500px;"">
                            <p style=""font-size:50px; font-weight:bold;""
                            >disgust</p>
                            <div style=""width:240px; margin: auto;"">
                                <img src=""images/map13_Reds_scaleDef_orientDef_180.png"" style= ""width:200px""alt=""img"">
                            </div>
                        </div>","90","","0","","","","images/map13_Reds_scaleDef_orientDef_180.png","disgust","1","13","13","Reds","orientDef","scaleDef","180","",""
"","","","","","html-slider-response","62","250974","0.0-56.0","cgx44jdud1","22","NaN","<div style=""width:500px;"">
                            <p style=""font-size:50px; font-weight:bold;""
                            >disgust</p>
                            <div style=""width:240px; margin: auto;"">
                                <img src=""images/map26_YlGn_scaleDef_orientDef_180.png"" style= ""width:200px""alt=""img"">
                            </div>
                        </div>","-65","","0","","","","images/map26_YlGn_scaleDef_orientDef_180.png","disgust","1","26","26","YlGn","orientDef","scaleDef","180","",""
"","","","","","html-slider-response","63","253040","0.0-57.0","cgx44jdud1","22","NaN","<div style=""width:500px;"">
                            <p style=""font-size:50px; font-weight:bold;""
                            >disgust</p>
                            <div style=""width:240px; margin: auto;"">
                                <img src=""images/map02_coolwarm_scaleDef_orientMir_180.png"" style= ""width:200px""alt=""img"">
                            </div>
                        </div>","70","","0","","","","images/map02_coolwarm_scaleDef_orientMir_180.png","disgust","1","02","02","coolwarm","orientMir","scaleDef","180","",""
"","","","","","html-slider-response","64","254841","0.0-58.0","cgx44jdud1","22","NaN","<div style=""width:500px;"">
                            <p style=""font-size:50px; font-weight:bold;""
                            >disgust</p>
                            <div style=""width:240px; margin: auto;"">
                                <img src=""images/map13_YlOrBr_scaleDef_orientMir_000.png"" style= ""width:200px""alt=""img"">
                            </div>
                        </div>","49","","0","","","","images/map13_YlOrBr_scaleDef_orientMir_000.png","disgust","1","13","13","YlOrBr","orientMir","scaleDef","000","",""
"","","","","","html-slider-response","65","256575","0.0-59.0","cgx44jdud1","22","NaN","<div style=""width:500px;"">
                            <p style=""font-size:50px; font-weight:bold;""
                            >disgust</p>
                            <div style=""width:240px; margin: auto;"">
                                <img src=""images/map02_RdYlBu_scaleDef_orientDef_000.png"" style= ""width:200px""alt=""img"">
                            </div>
                        </div>","60","","0","","","","images/map02_RdYlBu_scaleDef_orientDef_000.png","disgust","1","02","02","RdYlBu","orientDef","scaleDef","000","",""
"","","","","","html-slider-response","66","258275","0.0-60.0","cgx44jdud1","22","NaN","<div style=""width:500px;"">
                            <p style=""font-size:50px; font-weight:bold;""
                            >disgust</p>
                            <div style=""width:240px; margin: auto;"">
                                <img src=""images/map12_Greens_scaleRev_orientMir_270.png"" style= ""width:200px""alt=""img"">
                            </div>
                        </div>","-73","","0","","","","images/map12_Greens_scaleRev_orientMir_270.png","disgust","1","12","12","Greens","orientMir","scaleRev","270","",""
"","","","","","html-slider-response","67","260058","0.0-61.0","cgx44jdud1","22","NaN","<div style=""width:500px;"">
                            <p style=""font-size:50px; font-weight:bold;""
                            >disgust</p>
                            <div style=""width:240px; margin: auto;"">
                                <img src=""images/map12_Purples_scaleDef_orientDef_180.png"" style= ""width:200px""alt=""img"">
                            </div>
                        </div>","2","","0","","","","images/map12_Purples_scaleDef_orientDef_180.png","disgust","1","12","12","Purples","orientDef","scaleDef","180","",""
"","","","","","html-slider-response","68","261707","0.0-62.0","cgx44jdud1","22","NaN","<div style=""width:500px;"">
                            <p style=""font-size:50px; font-weight:bold;""
                            >disgust</p>
                            <div style=""width:240px; margin: auto;"">
                                <img src=""images/map27_PuOr_scaleDef_orientDef_180.png"" style= ""width:200px""alt=""img"">
                            </div>
                        </div>","52","","0","","","","images/map27_PuOr_scaleDef_orientDef_180.png","disgust","1","27","27","PuOr","orientDef","scaleDef","180","",""
"","","","","","html-slider-response","69","264025","0.0-63.0","cgx44jdud1","22","NaN","<div style=""width:500px;"">
                            <p style=""font-size:50px; font-weight:bold;""
                            >disgust</p>
                            <div style=""width:240px; margin: auto;"">
                                <img src=""images/map12_Greens_scaleDef_orientMir_180.png"" style= ""width:200px""alt=""img"">
                            </div>
                        </div>","-39","","0","","","","images/map12_Greens_scaleDef_orientMir_180.png","disgust","1","12","12","Greens","orientMir","scaleDef","180","",""
"","","","","","html-slider-response","70","266191","0.0-64.0","cgx44jdud1","22","NaN","<div style=""width:500px;"">
                            <p style=""font-size:50px; font-weight:bold;""
                            >disgust</p>
                            <div style=""width:240px; margin: auto;"">
                                <img src=""images/map07_vanimo_scaleDef_orientDef_000.png"" style= ""width:200px""alt=""img"">
                            </div>
                        </div>","109","","0","","","","images/map07_vanimo_scaleDef_orientDef_000.png","disgust","1","07","07","vanimo","orientDef","scaleDef","000","",""
"","","","","","html-slider-response","71","268559","0.0-65.0","cgx44jdud1","22","NaN","<div style=""width:500px;"">
                            <p style=""font-size:50px; font-weight:bold;""
                            >disgust</p>
                            <div style=""width:240px; margin: auto;"">
                                <img src=""images/map05_managua_scaleDef_orientMir_180.png"" style= ""width:200px""alt=""img"">
                            </div>
                        </div>","63","","0","","","","images/map05_managua_scaleDef_orientMir_180.png","disgust","1","05","05","managua","orientMir","scaleDef","180","",""
"","","","","","html-slider-response","72","271375","0.0-66.0","cgx44jdud1","22","NaN","<div style=""width:500px;"">
                            <p style=""font-size:50px; font-weight:bold;""
                            >disgust</p>
                            <div style=""width:240px; margin: auto;"">
                                <img src=""images/map23_YlGnBu_scaleDef_orientMir_000.png"" style= ""width:200px""alt=""img"">
                            </div>
                        </div>","27","","0","","","","images/map23_YlGnBu_scaleDef_orientMir_000.png","disgust","1","23","23","YlGnBu","orientMir","scaleDef","000","",""
"","","","","","html-slider-response","73","273474","0.0-67.0","cgx44jdud1","22","NaN","<div style=""width:500px;"">
                            <p style=""font-size:50px; font-weight:bold;""
                            >disgust</p>
                            <div style=""width:240px; margin: auto;"">
                                <img src=""images/map02_coolwarm_scaleRev_orientMir_270.png"" style= ""width:200px""alt=""img"">
                            </div>
                        </div>","42","","0","","","","images/map02_coolwarm_scaleRev_orientMir_270.png","disgust","1","02","02","coolwarm","orientMir","scaleRev","270","",""
"","","","","","html-slider-response","74","275709","0.0-68.0","cgx44jdud1","22","NaN","<div style=""width:500px;"">
                            <p style=""font-size:50px; font-weight:bold;""
                            >disgust</p>
                            <div style=""width:240px; margin: auto;"">
                                <img src=""images/map23_PuBu_scaleRev_orientDef_270.png"" style= ""width:200px""alt=""img"">
                            </div>
                        </div>","-137","","0","","","","images/map23_PuBu_scaleRev_orientDef_270.png","disgust","1","23","23","PuBu","orientDef","scaleRev","270","",""
"","","","","","html-slider-response","75","277792","0.0-69.0","cgx44jdud1","22","NaN","<div style=""width:500px;"">
                            <p style=""font-size:50px; font-weight:bold;""
                            >disgust</p>
                            <div style=""width:240px; margin: auto;"">
                                <img src=""images/map13_YlOrBr_scaleRev_orientMir_090.png"" style= ""width:200px""alt=""img"">
                            </div>
                        </div>","60","","0","","","","images/map13_YlOrBr_scaleRev_orientMir_090.png","disgust","1","13","13","YlOrBr","orientMir","scaleRev","090","",""
"","","","","","html-slider-response","76","280224","0.0-70.0","cgx44jdud1","22","NaN","<div style=""width:500px;"">
                            <p style=""font-size:50px; font-weight:bold;""
                            >disgust</p>
                            <div style=""width:240px; margin: auto;"">
                                <img src=""images/map02_RdYlGn_scaleDef_orientDef_180.png"" style= ""width:200px""alt=""img"">
                            </div>
                        </div>","-47","","0","","","","images/map02_RdYlGn_scaleDef_orientDef_180.png","disgust","1","02","02","RdYlGn","orientDef","scaleDef","180","",""
"","","","","","html-slider-response","77","283057","0.0-71.0","cgx44jdud1","22","NaN","<div style=""width:500px;"">
                            <p style=""font-size:50px; font-weight:bold;""
                            >disgust</p>
                            <div style=""width:240px; margin: auto;"">
                                <img src=""images/map07_turbo_scaleRev_orientMir_090.png"" style= ""width:200px""alt=""img"">
                            </div>
                        </div>","-109","","0","","","","images/map07_turbo_scaleRev_orientMir_090.png","disgust","1","07","07","turbo","orientMir","scaleRev","090","",""
"","","","","","html-slider-response","78","284957","0.0-72.0","cgx44jdud1","22","NaN","<div style=""width:500px;"">
                            <p style=""font-size:50px; font-weight:bold;""
                            >disgust</p>
                            <div style=""width:240px; margin: auto;"">
                                <img src=""images/map02_RdYlBu_scaleRev_orientDef_090.png"" style= ""width:200px""alt=""img"">
                            </div>
                        </div>","34","","0","","","","images/map02_RdYlBu_scaleRev_orientDef_090.png","disgust","1","02","02","RdYlBu","orientDef","scaleRev","090","",""
"","","","","","html-slider-response","79","287192","0.0-73.0","cgx44jdud1","22","NaN","<div style=""width:500px;"">
                            <p style=""font-size:50px; font-weight:bold;""
                            >disgust</p>
                            <div style=""width:240px; margin: auto;"">
                                <img src=""images/map13_Reds_scaleRev_orientDef_270.png"" style= ""width:200px""alt=""img"">
                            </div>
                        </div>","86","","0","","","","images/map13_Reds_scaleRev_orientDef_270.png","disgust","1","13","13","Reds","orientDef","scaleRev","270","",""
"","","","","","html-slider-response","80","289525","0.0-74.0","cgx44jdud1","22","NaN","<div style=""width:500px;"">
                            <p style=""font-size:50px; font-weight:bold;""
                            >disgust</p>
                            <div style=""width:240px; margin: auto;"">
                                <img src=""images/map13_Oranges_scaleDef_orientDef_000.png"" style= ""width:200px""alt=""img"">
                            </div>
                        </div>","29","","0","","","","images/map13_Oranges_scaleDef_orientDef_000.png","disgust","1","13","13","Oranges","orientDef","scaleDef","000","",""
"","","","","","html-slider-response","81","291158","0.0-75.0","cgx44jdud1","22","NaN","<div style=""width:500px;"">
                            <p style=""font-size:50px; font-weight:bold;""
                            >disgust</p>
                            <div style=""width:240px; margin: auto;"">
                                <img src=""images/map02_Spectral_scaleDef_orientMir_000.png"" style= ""width:200px""alt=""img"">
                            </div>
                        </div>","79","","0","","","","images/map02_Spectral_scaleDef_orientMir_000.png","disgust","1","02","02","Spectral","orientMir","scaleDef","000","",""
"","","","","","html-slider-response","82","293225","0.0-76.0","cgx44jdud1","22","NaN","<div style=""width:500px;"">
                            <p style=""font-size:50px; font-weight:bold;""
                            >disgust</p>
                            <div style=""width:240px; margin: auto;"">
                                <img src=""images/map15_BuPu_scaleDef_orientMir_180.png"" style= ""width:200px""alt=""img"">
                            </div>
                        </div>","77","","0","","","","images/map15_BuPu_scaleDef_orientMir_180.png","disgust","1","15","15","BuPu","orientMir","scaleDef","180","",""
"","","","","","html-slider-response","83","295307","0.0-77.0","cgx44jdud1","22","NaN","<div style=""width:500px;"">
                            <p style=""font-size:50px; font-weight:bold;""
                            >disgust</p>
                            <div style=""width:240px; margin: auto;"">
                                <img src=""images/map15_RdPu_scaleRev_orientMir_090.png"" style= ""width:200px""alt=""img"">
                            </div>
                        </div>","-58","","0","","","","images/map15_RdPu_scaleRev_orientMir_090.png","disgust","1","15","15","RdPu","orientMir","scaleRev","090","",""
"","","","","","html-slider-response","84","297557","0.0-78.0","cgx44jdud1","22","NaN","<div style=""width:500px;"">
                            <p style=""font-size:50px; font-weight:bold;""
                            >disgust</p>
                            <div style=""width:240px; margin: auto;"">
                                <img src=""images/map27_RdBu_scaleDef_orientMir_180.png"" style= ""width:200px""alt=""img"">
                            </div>
                        </div>","11","","0","","","","images/map27_RdBu_scaleDef_orientMir_180.png","disgust","1","27","27","RdBu","orientMir","scaleDef","180","",""
"","","","","","html-slider-response","85","299623","0.0-79.0","cgx44jdud1","22","NaN","<div style=""width:500px;"">
                            <p style=""font-size:50px; font-weight:bold;""
                            >disgust</p>
                            <div style=""width:240px; margin: auto;"">
                                <img src=""images/map02_RdYlGn_scaleRev_orientDef_270.png"" style= ""width:200px""alt=""img"">
                            </div>
                        </div>","2","","0","","","","images/map02_RdYlGn_scaleRev_orientDef_270.png","disgust","1","02","02","RdYlGn","orientDef","scaleRev","270","",""
"","","","","","html-slider-response","86","300974","0.0-80.0","cgx44jdud1","22","NaN","<div style=""width:500px;"">
                            <p style=""font-size:50px; font-weight:bold;""
                            >disgust</p>
                            <div style=""width:240px; margin: auto;"">
                                <img src=""images/map23_GnBu_scaleDef_orientDef_000.png"" style= ""width:200px""alt=""img"">
                            </div>
                        </div>","1","","0","","","","images/map23_GnBu_scaleDef_orientDef_000.png","disgust","1","23","23","GnBu","orientDef","scaleDef","000","",""
"","","","","","html-slider-response","87","303107","0.0-81.0","cgx44jdud1","22","NaN","<div style=""width:500px;"">
                            <p style=""font-size:50px; font-weight:bold;""
                            >disgust</p>
                            <div style=""width:240px; margin: auto;"">
                                <img src=""images/map05_berlin_scaleRev_orientMir_090.png"" style= ""width:200px""alt=""img"">
                            </div>
                        </div>","121","","0","","","","images/map05_berlin_scaleRev_orientMir_090.png","disgust","1","05","05","berlin","orientMir","scaleRev","090","",""
"","","","","","html-slider-response","88","305173","0.0-82.0","cgx44jdud1","22","NaN","<div style=""width:500px;"">
                            <p style=""font-size:50px; font-weight:bold;""
                            >disgust</p>
                            <div style=""width:240px; margin: auto;"">
                                <img src=""images/map27_BrBG_scaleDef_orientDef_000.png"" style= ""width:200px""alt=""img"">
                            </div>
                        </div>","-59","","0","","","","images/map27_BrBG_scaleDef_orientDef_000.png","disgust","1","27","27","BrBG","orientDef","scaleDef","000","",""
"","","","","","html-slider-response","89","307058","0.0-83.0","cgx44jdud1","22","NaN","<div style=""width:500px;"">
                            <p style=""font-size:50px; font-weight:bold;""
                            >disgust</p>
                            <div style=""width:240px; margin: auto;"">
                                <img src=""images/map15_OrRd_scaleRev_orientDef_090.png"" style= ""width:200px""alt=""img"">
                            </div>
                        </div>","46","","0","","","","images/map15_OrRd_scaleRev_orientDef_090.png","disgust","1","15","15","OrRd","orientDef","scaleRev","090","",""
"","","","","","html-slider-response","90","308990","0.0-84.0","cgx44jdud1","22","NaN","<div style=""width:500px;"">
                            <p style=""font-size:50px; font-weight:bold;""
                            >disgust</p>
                            <div style=""width:240px; margin: auto;"">
                                <img src=""images/map07_turbo_scaleDef_orientMir_000.png"" style= ""width:200px""alt=""img"">
                            </div>
                        </div>","-71","","0","","","","images/map07_turbo_scaleDef_orientMir_000.png","disgust","1","07","07","turbo","orientMir","scaleDef","000","",""
"","","","","","html-slider-response","91","311209","0.0-85.0","cgx44jdud1","22","NaN","<div style=""width:500px;"">
                            <p style=""font-size:50px; font-weight:bold;""
                            >disgust</p>
                            <div style=""width:240px; margin: auto;"">
                                <img src=""images/map07_vanimo_scaleRev_orientDef_090.png"" style= ""width:200px""alt=""img"">
                            </div>
                        </div>","118","","0","","","","images/map07_vanimo_scaleRev_orientDef_090.png","disgust","1","07","07","vanimo","orientDef","scaleRev","090","",""
"","","","","","html-slider-response","92","313242","0.0-86.0","cgx44jdud1","22","NaN","<div style=""width:500px;"">
                            <p style=""font-size:50px; font-weight:bold;""
                            >disgust</p>
                            <div style=""width:240px; margin: auto;"">
                                <img src=""images/map12_Greys_scaleDef_orientDef_000.png"" style= ""width:200px""alt=""img"">
                            </div>
                        </div>","114","","0","","","","images/map12_Greys_scaleDef_orientDef_000.png","disgust","1","12","12","Greys","orientDef","scaleDef","000","",""
"","","","","","html-slider-response","93","316558","0.0-87.0","cgx44jdud1","22","NaN","<div style=""width:500px;"">
                            <p style=""font-size:50px; font-weight:bold;""
                            >disgust</p>
                            <div style=""width:240px; margin: auto;"">
                                <img src=""images/map10_plasma_scaleRev_orientDef_090.png"" style= ""width:200px""alt=""img"">
                            </div>
                        </div>","37","","0","","","","images/map10_plasma_scaleRev_orientDef_090.png","disgust","1","10","10","plasma","orientDef","scaleRev","090","",""
"","","","","","html-slider-response","94","318640","0.0-88.0","cgx44jdud1","22","NaN","<div style=""width:500px;"">
                            <p style=""font-size:50px; font-weight:bold;""
                            >disgust</p>
                            <div style=""width:240px; margin: auto;"">
                                <img src=""images/map12_Purples_scaleRev_orientDef_270.png"" style= ""width:200px""alt=""img"">
                            </div>
                        </div>","132","","0","","","","images/map12_Purples_scaleRev_orientDef_270.png","disgust","1","12","12","Purples","orientDef","scaleRev","270","",""
"","","","","","html-slider-response","95","320375","0.0-89.0","cgx44jdud1","22","NaN","<div style=""width:500px;"">
                            <p style=""font-size:50px; font-weight:bold;""
                            >disgust</p>
                            <div style=""width:240px; margin: auto;"">
                                <img src=""images/map10_plasma_scaleDef_orientDef_000.png"" style= ""width:200px""alt=""img"">
                            </div>
                        </div>","22","","0","","","","images/map10_plasma_scaleDef_orientDef_000.png","disgust","1","10","10","plasma","orientDef","scaleDef","000","",""
"","","","","","html-slider-response","96","322307","0.0-90.0","cgx44jdud1","22","NaN","<div style=""width:500px;"">
                            <p style=""font-size:50px; font-weight:bold;""
                            >disgust</p>
                            <div style=""width:240px; margin: auto;"">
                                <img src=""images/map05_bwr_scaleRev_orientDef_090.png"" style= ""width:200px""alt=""img"">
                            </div>
                        </div>","-58","","0","","","","images/map05_bwr_scaleRev_orientDef_090.png","disgust","1","05","05","bwr","orientDef","scaleRev","090","",""
"","","","","","html-slider-response","97","323957","0.0-91.0","cgx44jdud1","22","NaN","<div style=""width:500px;"">
                            <p style=""font-size:50px; font-weight:bold;""
                            >disgust</p>
                            <div style=""width:240px; margin: auto;"">
                                <img src=""images/map05_seismic_scaleDef_orientDef_180.png"" style= ""width:200px""alt=""img"">
                            </div>
                        </div>","-72","","0","","","","images/map05_seismic_scaleDef_orientDef_180.png","disgust","1","05","05","seismic","orientDef","scaleDef","180","",""
"","","","","","html-slider-response","98","325490","0.0-92.0","cgx44jdud1","22","NaN","<div style=""width:500px;"">
                            <p style=""font-size:50px; font-weight:bold;""
                            >disgust</p>
                            <div style=""width:240px; margin: auto;"">
                                <img src=""images/map15_PuRd_scaleRev_orientDef_270.png"" style= ""width:200px""alt=""img"">
                            </div>
                        </div>","-51","","0","","","","images/map15_PuRd_scaleRev_orientDef_270.png","disgust","1","15","15","PuRd","orientDef","scaleRev","270","",""
"","","","","","html-slider-response","99","327191","0.0-93.0","cgx44jdud1","22","NaN","<div style=""width:500px;"">
                            <p style=""font-size:50px; font-weight:bold;""
                            >disgust</p>
                            <div style=""width:240px; margin: auto;"">
                                <img src=""images/map05_seismic_scaleRev_orientDef_270.png"" style= ""width:200px""alt=""img"">
                            </div>
                        </div>","-58","","0","","","","images/map05_seismic_scaleRev_orientDef_270.png","disgust","1","05","05","seismic","orientDef","scaleRev","270","",""
"","","","","","html-slider-response","100","328892","0.0-94.0","cgx44jdud1","22","NaN","<div style=""width:500px;"">
                            <p style=""font-size:50px; font-weight:bold;""
                            >disgust</p>
                            <div style=""width:240px; margin: auto;"">
                                <img src=""images/map05_berlin_scaleDef_orientMir_000.png"" style= ""width:200px""alt=""img"">
                            </div>
                        </div>","127","","0","","","","images/map05_berlin_scaleDef_orientMir_000.png","disgust","1","05","05","berlin","orientMir","scaleDef","000","",""
"","","","","","html-button-response","101","344229","0.0-95.0","cgx44jdud1","22","14834","<p>Great Job! You've finished block 1.<br></br> You have 4 block(s) left to go.<br></br></p>","0","","","","","","","","","","","","","","","",""
"","","","","","html-button-response","102","345379","0.0-96.0","cgx44jdud1","22","1149","<p>In this block of trials, you will be asked to rate how much you associate each map with:</p > <p style = 'font-size:150%; font-weight: bold'>happy</p><br></br>","0","","","","","","","","","","","","","","","",""
"","","","","","html-slider-response","103","347142","0.0-97.0","cgx44jdud1","22","NaN","<div style=""width:500px;"">
                            <p style=""font-size:50px; font-weight:bold;""
                            >happy</p>
                            <div style=""width:240px; margin: auto;"">
                                <img src=""images/map13_YlOrRd_scaleRev_orientMir_270.png"" style= ""width:200px""alt=""img"">
                            </div>
                        </div>","-95","","0","","","","images/map13_YlOrRd_scaleRev_orientMir_270.png","happy","1","13","13","YlOrRd","orientMir","scaleRev","270","",""
"","","","","","html-slider-response","104","348742","0.0-98.0","cgx44jdud1","22","NaN","<div style=""width:500px;"">
                            <p style=""font-size:50px; font-weight:bold;""
                            >happy</p>
                            <div style=""width:240px; margin: auto;"">
                                <img src=""images/map26_PRGn_scaleRev_orientMir_270.png"" style= ""width:200px""alt=""img"">
                            </div>
                        </div>","-71","","0","","","","images/map26_PRGn_scaleRev_orientMir_270.png","happy","1","26","26","PRGn","orientMir","scaleRev","270","",""
"","","","","","html-slider-response","105","350292","0.0-99.0","cgx44jdud1","22","NaN","<div style=""width:500px;"">
                            <p style=""font-size:50px; font-weight:bold;""
                            >happy</p>
                            <div style=""width:240px; margin: auto;"">
                                <img src=""images/map05_seismic_scaleRev_orientDef_270.png"" style= ""width:200px""alt=""img"">
                            </div>
                        </div>","-63","","0","","","","images/map05_seismic_scaleRev_orientDef_270.png","happy","1","05","05","seismic","orientDef","scaleRev","270","",""
"","","","","","html-slider-response","106","351826","0.0-100.0","cgx44jdud1","22","NaN","<div style=""width:500px;"">
                            <p style=""font-size:50px; font-weight:bold;""
                            >happy</p>
                            <div style=""width:240px; margin: auto;"">
                                <img src=""images/map23_PuBuGn_scaleRev_orientMir_270.png"" style= ""width:200px""alt=""img"">
                            </div>
                        </div>","73","","0","","","","images/map23_PuBuGn_scaleRev_orientMir_270.png","happy","1","23","23","PuBuGn","orientMir","scaleRev","270","",""
"","","","","","html-slider-response","107","353309","0.0-101.0","cgx44jdud1","22","NaN","<div style=""width:500px;"">
                            <p style=""font-size:50px; font-weight:bold;""
                            >happy</p>
                            <div style=""width:240px; margin: auto;"">
                                <img src=""images/map23_GnBu_scaleDef_orientDef_000.png"" style= ""width:200px""alt=""img"">
                            </div>
                        </div>","77","","0","","","","images/map23_GnBu_scaleDef_orientDef_000.png","happy","1","23","23","GnBu","orientDef","scaleDef","000","",""
"","","","","","html-slider-response","108","354841","0.0-102.0","cgx44jdud1","22","NaN","<div style=""width:500px;"">
                            <p style=""font-size:50px; font-weight:bold;""
                            >happy</p>
                            <div style=""width:240px; margin: auto;"">
                                <img src=""images/map07_viridis_scaleRev_orientMir_270.png"" style= ""width:200px""alt=""img"">
                            </div>
                        </div>","-86","","0","","","","images/map07_viridis_scaleRev_orientMir_270.png","happy","1","07","07","viridis","orientMir","scaleRev","270","",""
"","","","","","html-slider-response","109","356459","0.0-103.0","cgx44jdud1","22","NaN","<div style=""width:500px;"">
                            <p style=""font-size:50px; font-weight:bold;""
                            >happy</p>
                            <div style=""width:240px; margin: auto;"">
                                <img src=""images/map13_YlOrRd_scaleDef_orientMir_180.png"" style= ""width:200px""alt=""img"">
                            </div>
                        </div>","-78","","0","","","","images/map13_YlOrRd_scaleDef_orientMir_180.png","happy","1","13","13","YlOrRd","orientMir","scaleDef","180","",""
"","","","","","html-slider-response","110","358175","0.0-104.0","cgx44jdud1","22","NaN","<div style=""width:500px;"">
                            <p style=""font-size:50px; font-weight:bold;""
                            >happy</p>
                            <div style=""width:240px; margin: auto;"">
                                <img src=""images/map23_YlGnBu_scaleDef_orientMir_000.png"" style= ""width:200px""alt=""img"">
                            </div>
                        </div>","56","","0","","","","images/map23_YlGnBu_scaleDef_orientMir_000.png","happy","1","23","23","YlGnBu","orientMir","scaleDef","000","",""
"","","","","","html-slider-response","111","360658","0.0-105.0","cgx44jdud1","22","NaN","<div style=""width:500px;"">
                            <p style=""font-size:50px; font-weight:bold;""
                            >happy</p>
                            <div style=""width:240px; margin: auto;"">
                                <img src=""images/map12_Purples_scaleRev_orientDef_270.png"" style= ""width:200px""alt=""img"">
                            </div>
                        </div>","-58","","0","","","","images/map12_Purples_scaleRev_orientDef_270.png","happy","1","12","12","Purples","orientDef","scaleRev","270","",""
"","","","","","html-slider-response","112","361923","0.0-106.0","cgx44jdud1","22","NaN","<div style=""width:500px;"">
                            <p style=""font-size:50px; font-weight:bold;""
                            >happy</p>
                            <div style=""width:240px; margin: auto;"">
                                <img src=""images/map23_PuBu_scaleDef_orientDef_180.png"" style= ""width:200px""alt=""img"">
                            </div>
                        </div>","17","","0","","","","images/map23_PuBu_scaleDef_orientDef_180.png","happy","1","23","23","PuBu","orientDef","scaleDef","180","",""
"","","","","","html-slider-response","113","363592","0.0-107.0","cgx44jdud1","22","NaN","<div style=""width:500px;"">
                            <p style=""font-size:50px; font-weight:bold;""
                            >happy</p>
                            <div style=""width:240px; margin: auto;"">
                                <img src=""images/map05_managua_scaleDef_orientMir_180.png"" style= ""width:200px""alt=""img"">
                            </div>
                        </div>","-82","","0","","","","images/map05_managua_scaleDef_orientMir_180.png","happy","1","05","05","managua","orientMir","scaleDef","180","",""
"","","","","","html-slider-response","114","365559","0.0-108.0","cgx44jdud1","22","NaN","<div style=""width:500px;"">
                            <p style=""font-size:50px; font-weight:bold;""
                            >happy</p>
                            <div style=""width:240px; margin: auto;"">
                                <img src=""images/map15_PuRd_scaleDef_orientDef_180.png"" style= ""width:200px""alt=""img"">
                            </div>
                        </div>","109","","0","","","","images/map15_PuRd_scaleDef_orientDef_180.png","happy","1","15","15","PuRd","orientDef","scaleDef","180","",""
"","","","","","html-slider-response","115","367474","0.0-109.0","cgx44jdud1","22","NaN","<div style=""width:500px;"">
                            <p style=""font-size:50px; font-weight:bold;""
                            >happy</p>
                            <div style=""width:240px; margin: auto;"">
                                <img src=""images/map05_managua_scaleRev_orientMir_270.png"" style= ""width:200px""alt=""img"">
                            </div>
                        </div>","-69","","0","","","","images/map05_managua_scaleRev_orientMir_270.png","happy","1","05","05","managua","orientMir","scaleRev","270","",""
"","","","","","html-slider-response","116","369240","0.0-110.0","cgx44jdud1","22","NaN","<div style=""width:500px;"">
                            <p style=""font-size:50px; font-weight:bold;""
                            >happy</p>
                            <div style=""width:240px; margin: auto;"">
                                <img src=""images/map27_BrBG_scaleDef_orientDef_000.png"" style= ""width:200px""alt=""img"">
                            </div>
                        </div>","111","","0","","","","images/map27_BrBG_scaleDef_orientDef_000.png","happy","1","27","27","BrBG","orientDef","scaleDef","000","",""
"","","","","","html-slider-response","117","370992","0.0-111.0","cgx44jdud1","22","NaN","<div style=""width:500px;"">
                            <p style=""font-size:50px; font-weight:bold;""
                            >happy</p>
                            <div style=""width:240px; margin: auto;"">
                                <img src=""images/map10_plasma_scaleDef_orientDef_000.png"" style= ""width:200px""alt=""img"">
                            </div>
                        </div>","-80","","0","","","","images/map10_plasma_scaleDef_orientDef_000.png","happy","1","10","10","plasma","orientDef","scaleDef","000","",""
"","","","","","html-slider-response","118","374109","0.0-112.0","cgx44jdud1","22","NaN","<div style=""width:500px;"">
                            <p style=""font-size:50px; font-weight:bold;""
                            >happy</p>
                            <div style=""width:240px; margin: auto;"">
                                <img src=""images/map02_coolwarm_scaleRev_orientMir_270.png"" style= ""width:200px""alt=""img"">
                            </div>
                        </div>","14","","0","","","","images/map02_coolwarm_scaleRev_orientMir_270.png","happy","1","02","02","coolwarm","orientMir","scaleRev","270","",""
"","","","","","html-slider-response","119","375974","0.0-113.0","cgx44jdud1","22","NaN","<div style=""width:500px;"">
                            <p style=""font-size:50px; font-weight:bold;""
                            >happy</p>
                            <div style=""width:240px; margin: auto;"">
                                <img src=""images/map10_inferno_scaleDef_orientDef_180.png"" style= ""width:200px""alt=""img"">
                            </div>
                        </div>","-38","","0","","","","images/map10_inferno_scaleDef_orientDef_180.png","happy","1","10","10","inferno","orientDef","scaleDef","180","",""
"","","","","","html-slider-response","120","377825","0.0-114.0","cgx44jdud1","22","NaN","<div style=""width:500px;"">
                            <p style=""font-size:50px; font-weight:bold;""
                            >happy</p>
                            <div style=""width:240px; margin: auto;"">
                                <img src=""images/map02_RdYlBu_scaleDef_orientDef_000.png"" style= ""width:200px""alt=""img"">
                            </div>
                        </div>","27","","0","","","","images/map02_RdYlBu_scaleDef_orientDef_000.png","happy","1","02","02","RdYlBu","orientDef","scaleDef","000","",""
"","","","","","html-slider-response","121","379924","0.0-115.0","cgx44jdud1","22","NaN","<div style=""width:500px;"">
                            <p style=""font-size:50px; font-weight:bold;""
                            >happy</p>
                            <div style=""width:240px; margin: auto;"">
                                <img src=""images/map26_YlGn_scaleDef_orientDef_180.png"" style= ""width:200px""alt=""img"">
                            </div>
                        </div>","-105","","0","","","","images/map26_YlGn_scaleDef_orientDef_180.png","happy","1","26","26","YlGn","orientDef","scaleDef","180","",""
"","","","","","html-slider-response","122","381708","0.0-116.0","cgx44jdud1","22","NaN","<div style=""width:500px;"">
                            <p style=""font-size:50px; font-weight:bold;""
                            >happy</p>
                            <div style=""width:240px; margin: auto;"">
                                <img src=""images/map26_BuGn_scaleDef_orientDef_000.png"" style= ""width:200px""alt=""img"">
                            </div>
                        </div>","-65","","0","","","","images/map26_BuGn_scaleDef_orientDef_000.png","happy","1","26","26","BuGn","orientDef","scaleDef","000","",""
"","","","","","html-slider-response","123","383424","0.0-117.0","cgx44jdud1","22","NaN","<div style=""width:500px;"">
                            <p style=""font-size:50px; font-weight:bold;""
                            >happy</p>
                            <div style=""width:240px; margin: auto;"">
                                <img src=""images/map26_PRGn_scaleDef_orientMir_180.png"" style= ""width:200px""alt=""img"">
                            </div>
                        </div>","-103","","0","","","","images/map26_PRGn_scaleDef_orientMir_180.png","happy","1","26","26","PRGn","orientMir","scaleDef","180","",""
"","","","","","html-slider-response","124","386674","0.0-118.0","cgx44jdud1","22","NaN","<div style=""width:500px;"">
                            <p style=""font-size:50px; font-weight:bold;""
                            >happy</p>
                            <div style=""width:240px; margin: auto;"">
                                <img src=""images/map26_PiYG_scaleRev_orientMir_090.png"" style= ""width:200px""alt=""img"">
                            </div>
                        </div>","6","","0","","","","images/map26_PiYG_scaleRev_orientMir_090.png","happy","1","26","26","PiYG","orientMir","scaleRev","090","",""
"","","","","","html-slider-response","125","389308","0.0-119.0","cgx44jdud1","22","NaN","<div style=""width:500px;"">
                            <p style=""font-size:50px; font-weight:bold;""
                            >happy</p>
                            <div style=""width:240px; margin: auto;"">
                                <img src=""images/map27_RdGy_scaleDef_orientMir_000.png"" style= ""width:200px""alt=""img"">
                            </div>
                        </div>","-118","","0","","","","images/map27_RdGy_scaleDef_orientMir_000.png","happy","1","27","27","RdGy","orientMir","scaleDef","000","",""
"","","","","","html-slider-response","126","391317","0.0-120.0","cgx44jdud1","22","NaN","<div style=""width:500px;"">
                            <p style=""font-size:50px; font-weight:bold;""
                            >happy</p>
                            <div style=""width:240px; margin: auto;"">
                                <img src=""images/map10_cividis_scaleRev_orientMir_270.png"" style= ""width:200px""alt=""img"">
                            </div>
                        </div>","-105","","0","","","","images/map10_cividis_scaleRev_orientMir_270.png","happy","1","10","10","cividis","orientMir","scaleRev","270","",""
"","","","","","html-slider-response","127","393059","0.0-121.0","cgx44jdud1","22","NaN","<div style=""width:500px;"">
                            <p style=""font-size:50px; font-weight:bold;""
                            >happy</p>
                            <div style=""width:240px; margin: auto;"">
                                <img src=""images/map26_BuGn_scaleRev_orientDef_090.png"" style= ""width:200px""alt=""img"">
                            </div>
                        </div>","-73","","0","","","","images/map26_BuGn_scaleRev_orientDef_090.png","happy","1","26","26","BuGn","orientDef","scaleRev","090","",""
"","","","","","html-slider-response","128","395025","0.0-122.0","cgx44jdud1","22","NaN","<div style=""width:500px;"">
                            <p style=""font-size:50px; font-weight:bold;""
                            >happy</p>
                            <div style=""width:240px; margin: auto;"">
                                <img src=""images/map15_OrRd_scaleRev_orientDef_090.png"" style= ""width:200px""alt=""img"">
                            </div>
                        </div>","-78","","0","","","","images/map15_OrRd_scaleRev_orientDef_090.png","happy","1","15","15","OrRd","orientDef","scaleRev","090","",""
"","","","","","html-slider-response","129","396973","0.0-123.0","cgx44jdud1","22","NaN","<div style=""width:500px;"">
                            <p style=""font-size:50px; font-weight:bold;""
                            >happy</p>
                            <div style=""width:240px; margin: auto;"">
                                <img src=""images/map12_Blues_scaleDef_orientMir_000.png"" style= ""width:200px""alt=""img"">
                            </div>
                        </div>","-101","","0","","","","images/map12_Blues_scaleDef_orientMir_000.png","happy","1","12","12","Blues","orientMir","scaleDef","000","",""
"","","","","","html-slider-response","130","398844","0.0-124.0","cgx44jdud1","22","NaN","<div style=""width:500px;"">
                            <p style=""font-size:50px; font-weight:bold;""
                            >happy</p>
                            <div style=""width:240px; margin: auto;"">
                                <img src=""images/map05_berlin_scaleRev_orientMir_090.png"" style= ""width:200px""alt=""img"">
                            </div>
                        </div>","-103","","0","","","","images/map05_berlin_scaleRev_orientMir_090.png","happy","1","05","05","berlin","orientMir","scaleRev","090","",""
"","","","","","html-slider-response","131","401045","0.0-125.0","cgx44jdud1","22","NaN","<div style=""width:500px;"">
                            <p style=""font-size:50px; font-weight:bold;""
                            >happy</p>
                            <div style=""width:240px; margin: auto;"">
                                <img src=""images/map07_vanimo_scaleDef_orientDef_000.png"" style= ""width:200px""alt=""img"">
                            </div>
                        </div>","-162","","0","","","","images/map07_vanimo_scaleDef_orientDef_000.png","happy","1","07","07","vanimo","orientDef","scaleDef","000","",""
"","","","","","html-slider-response","132","402858","0.0-126.0","cgx44jdud1","22","NaN","<div style=""width:500px;"">
                            <p style=""font-size:50px; font-weight:bold;""
                            >happy</p>
                            <div style=""width:240px; margin: auto;"">
                                <img src=""images/map15_RdPu_scaleRev_orientMir_090.png"" style= ""width:200px""alt=""img"">
                            </div>
                        </div>","113","","0","","","","images/map15_RdPu_scaleRev_orientMir_090.png","happy","1","15","15","RdPu","orientMir","scaleRev","090","",""
"","","","","","html-slider-response","133","404540","0.0-127.0","cgx44jdud1","22","NaN","<div style=""width:500px;"">
                            <p style=""font-size:50px; font-weight:bold;""
                            >happy</p>
                            <div style=""width:240px; margin: auto;"">
                                <img src=""images/map15_BuPu_scaleDef_orientMir_180.png"" style= ""width:200px""alt=""img"">
                            </div>
                        </div>","-66","","0","","","","images/map15_BuPu_scaleDef_orientMir_180.png","happy","1","15","15","BuPu","orientMir","scaleDef","180","",""
"","","","","","html-slider-response","134","406492","0.0-128.0","cgx44jdud1","22","NaN","<div style=""width:500px;"">
                            <p style=""font-size:50px; font-weight:bold;""
                            >happy</p>
                            <div style=""width:240px; margin: auto;"">
                                <img src=""images/map27_BrBG_scaleRev_orientDef_090.png"" style= ""width:200px""alt=""img"">
                            </div>
                        </div>","93","","0","","","","images/map27_BrBG_scaleRev_orientDef_090.png","happy","1","27","27","BrBG","orientDef","scaleRev","090","",""
"","","","","","html-slider-response","135","410057","0.0-129.0","cgx44jdud1","22","NaN","<div style=""width:500px;"">
                            <p style=""font-size:50px; font-weight:bold;""
                            >happy</p>
                            <div style=""width:240px; margin: auto;"">
                                <img src=""images/map10_inferno_scaleRev_orientDef_270.png"" style= ""width:200px""alt=""img"">
                            </div>
                        </div>","-65","","0","","","","images/map10_inferno_scaleRev_orientDef_270.png","happy","1","10","10","inferno","orientDef","scaleRev","270","",""
"","","","","","html-slider-response","136","413442","0.0-130.0","cgx44jdud1","22","NaN","<div style=""width:500px;"">
                            <p style=""font-size:50px; font-weight:bold;""
                            >happy</p>
                            <div style=""width:240px; margin: auto;"">
                                <img src=""images/map07_viridis_scaleDef_orientMir_180.png"" style= ""width:200px""alt=""img"">
                            </div>
                        </div>","48","","0","","","","images/map07_viridis_scaleDef_orientMir_180.png","happy","1","07","07","viridis","orientMir","scaleDef","180","",""
"","","","","","html-slider-response","137","415140","0.0-131.0","cgx44jdud1","22","NaN","<div style=""width:500px;"">
                            <p style=""font-size:50px; font-weight:bold;""
                            >happy</p>
                            <div style=""width:240px; margin: auto;"">
                                <img src=""images/map27_RdBu_scaleDef_orientMir_180.png"" style= ""width:200px""alt=""img"">
                            </div>
                        </div>","66","","0","","","","images/map27_RdBu_scaleDef_orientMir_180.png","happy","1","27","27","RdBu","orientMir","scaleDef","180","",""
"","","","","","html-slider-response","138","417175","0.0-132.0","cgx44jdud1","22","NaN","<div style=""width:500px;"">
                            <p style=""font-size:50px; font-weight:bold;""
                            >happy</p>
                            <div style=""width:240px; margin: auto;"">
                                <img src=""images/map12_Purples_scaleDef_orientDef_180.png"" style= ""width:200px""alt=""img"">
                            </div>
                        </div>","-66","","0","","","","images/map12_Purples_scaleDef_orientDef_180.png","happy","1","12","12","Purples","orientDef","scaleDef","180","",""
"","","","","","html-slider-response","139","418958","0.0-133.0","cgx44jdud1","22","NaN","<div style=""width:500px;"">
                            <p style=""font-size:50px; font-weight:bold;""
                            >happy</p>
                            <div style=""width:240px; margin: auto;"">
                                <img src=""images/map13_YlOrBr_scaleRev_orientMir_090.png"" style= ""width:200px""alt=""img"">
                            </div>
                        </div>","-34","","0","","","","images/map13_YlOrBr_scaleRev_orientMir_090.png","happy","1","13","13","YlOrBr","orientMir","scaleRev","090","",""
"","","","","","html-slider-response","140","420557","0.0-134.0","cgx44jdud1","22","NaN","<div style=""width:500px;"">
                            <p style=""font-size:50px; font-weight:bold;""
                            >happy</p>
                            <div style=""width:240px; margin: auto;"">
                                <img src=""images/map02_RdYlGn_scaleRev_orientDef_270.png"" style= ""width:200px""alt=""img"">
                            </div>
                        </div>","-54","","0","","","","images/map02_RdYlGn_scaleRev_orientDef_270.png","happy","1","02","02","RdYlGn","orientDef","scaleRev","270","",""
"","","","","","html-slider-response","141","422107","0.0-135.0","cgx44jdud1","22","NaN","<div style=""width:500px;"">
                            <p style=""font-size:50px; font-weight:bold;""
                            >happy</p>
                            <div style=""width:240px; margin: auto;"">
                                <img src=""images/map07_gist_earth_scaleRev_orientDef_270.png"" style= ""width:200px""alt=""img"">
                            </div>
                        </div>","-66","","0","","","","images/map07_gist_earth_scaleRev_orientDef_270.png","happy","1","07","07","gist","scaleRev","earth","orientDef","",""
"","","","","","html-slider-response","142","423674","0.0-136.0","cgx44jdud1","22","NaN","<div style=""width:500px;"">
                            <p style=""font-size:50px; font-weight:bold;""
                            >happy</p>
                            <div style=""width:240px; margin: auto;"">
                                <img src=""images/map15_BuPu_scaleRev_orientMir_270.png"" style= ""width:200px""alt=""img"">
                            </div>
                        </div>","-72","","0","","","","images/map15_BuPu_scaleRev_orientMir_270.png","happy","1","15","15","BuPu","orientMir","scaleRev","270","",""
"","","","","","html-button-response","143","425546","0.0-137.0","cgx44jdud1","22","1369","<p>You are doing great!<br></br> You are halway done with the current block. When you are ready to continue, click the 'Continue' button.</p>","0","","","","","","","","","","","","","","","",""
"","","","","","html-slider-response","144","427174","0.0-138.0","cgx44jdud1","22","NaN","<div style=""width:500px;"">
                            <p style=""font-size:50px; font-weight:bold;""
                            >happy</p>
                            <div style=""width:240px; margin: auto;"">
                                <img src=""images/map13_Reds_scaleDef_orientDef_180.png"" style= ""width:200px""alt=""img"">
                            </div>
                        </div>","-36","","0","","","","images/map13_Reds_scaleDef_orientDef_180.png","happy","1","13","13","Reds","orientDef","scaleDef","180","",""
"","","","","","html-slider-response","145","429374","0.0-139.0","cgx44jdud1","22","NaN","<div style=""width:500px;"">
                            <p style=""font-size:50px; font-weight:bold;""
                            >happy</p>
                            <div style=""width:240px; margin: auto;"">
                                <img src=""images/map02_RdYlGn_scaleDef_orientDef_180.png"" style= ""width:200px""alt=""img"">
                            </div>
                        </div>","80","","0","","","","images/map02_RdYlGn_scaleDef_orientDef_180.png","happy","1","02","02","RdYlGn","orientDef","scaleDef","180","",""
"","","","","","html-slider-response","146","430924","0.0-140.0","cgx44jdud1","22","NaN","<div style=""width:500px;"">
                            <p style=""font-size:50px; font-weight:bold;""
                            >happy</p>
                            <div style=""width:240px; margin: auto;"">
                                <img src=""images/map12_Greens_scaleRev_orientMir_270.png"" style= ""width:200px""alt=""img"">
                            </div>
                        </div>","-50","","0","","","","images/map12_Greens_scaleRev_orientMir_270.png","happy","1","12","12","Greens","orientMir","scaleRev","270","",""
"","","","","","html-slider-response","147","432541","0.0-141.0","cgx44jdud1","22","NaN","<div style=""width:500px;"">
                            <p style=""font-size:50px; font-weight:bold;""
                            >happy</p>
                            <div style=""width:240px; margin: auto;"">
                                <img src=""images/map15_PuRd_scaleRev_orientDef_270.png"" style= ""width:200px""alt=""img"">
                            </div>
                        </div>","59","","0","","","","images/map15_PuRd_scaleRev_orientDef_270.png","happy","1","15","15","PuRd","orientDef","scaleRev","270","",""
"","","","","","html-slider-response","148","434707","0.0-142.0","cgx44jdud1","22","NaN","<div style=""width:500px;"">
                            <p style=""font-size:50px; font-weight:bold;""
                            >happy</p>
                            <div style=""width:240px; margin: auto;"">
                                <img src=""images/map05_bwr_scaleDef_orientDef_000.png"" style= ""width:200px""alt=""img"">
                            </div>
                        </div>","92","","0","","","","images/map05_bwr_scaleDef_orientDef_000.png","happy","1","05","05","bwr","orientDef","scaleDef","000","",""
"","","","","","html-slider-response","149","436825","0.0-143.0","cgx44jdud1","22","NaN","<div style=""width:500px;"">
                            <p style=""font-size:50px; font-weight:bold;""
                            >happy</p>
                            <div style=""width:240px; margin: auto;"">
                                <img src=""images/map23_YlGnBu_scaleRev_orientMir_090.png"" style= ""width:200px""alt=""img"">
                            </div>
                        </div>","-62","","0","","","","images/map23_YlGnBu_scaleRev_orientMir_090.png","happy","1","23","23","YlGnBu","orientMir","scaleRev","090","",""
"","","","","","html-slider-response","150","438675","0.0-144.0","cgx44jdud1","22","NaN","<div style=""width:500px;"">
                            <p style=""font-size:50px; font-weight:bold;""
                            >happy</p>
                            <div style=""width:240px; margin: auto;"">
                                <img src=""images/map26_PiYG_scaleDef_orientMir_000.png"" style= ""width:200px""alt=""img"">
                            </div>
                        </div>","-72","","0","","","","images/map26_PiYG_scaleDef_orientMir_000.png","happy","1","26","26","PiYG","orientMir","scaleDef","000","",""
"","","","","","html-slider-response","151","441091","0.0-145.0","cgx44jdud1","22","NaN","<div style=""width:500px;"">
                            <p style=""font-size:50px; font-weight:bold;""
                            >happy</p>
                            <div style=""width:240px; margin: auto;"">
                                <img src=""images/map15_OrRd_scaleDef_orientDef_000.png"" style= ""width:200px""alt=""img"">
                            </div>
                        </div>","-74","","0","","","","images/map15_OrRd_scaleDef_orientDef_000.png","happy","1","15","15","OrRd","orientDef","scaleDef","000","",""
"","","","","","html-slider-response","152","442757","0.0-146.0","cgx44jdud1","22","NaN","<div style=""width:500px;"">
                            <p style=""font-size:50px; font-weight:bold;""
                            >happy</p>
                            <div style=""width:240px; margin: auto;"">
                                <img src=""images/map02_coolwarm_scaleDef_orientMir_180.png"" style= ""width:200px""alt=""img"">
                            </div>
                        </div>","64","","0","","","","images/map02_coolwarm_scaleDef_orientMir_180.png","happy","1","02","02","coolwarm","orientMir","scaleDef","180","",""
"","","","","","html-slider-response","153","444292","0.0-147.0","cgx44jdud1","22","NaN","<div style=""width:500px;"">
                            <p style=""font-size:50px; font-weight:bold;""
                            >happy</p>
                            <div style=""width:240px; margin: auto;"">
                                <img src=""images/map05_bwr_scaleRev_orientDef_090.png"" style= ""width:200px""alt=""img"">
                            </div>
                        </div>","69","","0","","","","images/map05_bwr_scaleRev_orientDef_090.png","happy","1","05","05","bwr","orientDef","scaleRev","090","",""
"","","","","","html-slider-response","154","446040","0.0-148.0","cgx44jdud1","22","NaN","<div style=""width:500px;"">
                            <p style=""font-size:50px; font-weight:bold;""
                            >happy</p>
                            <div style=""width:240px; margin: auto;"">
                                <img src=""images/map23_PuBuGn_scaleDef_orientMir_180.png"" style= ""width:200px""alt=""img"">
                            </div>
                        </div>","115","","0","","","","images/map23_PuBuGn_scaleDef_orientMir_180.png","happy","1","23","23","PuBuGn","orientMir","scaleDef","180","",""
"","","","","","html-slider-response","155","447907","0.0-149.0","cgx44jdud1","22","NaN","<div style=""width:500px;"">
                            <p style=""font-size:50px; font-weight:bold;""
                            >happy</p>
                            <div style=""width:240px; margin: auto;"">
                                <img src=""images/map10_magma_scaleRev_orientMir_090.png"" style= ""width:200px""alt=""img"">
                            </div>
                        </div>","-122","","0","","","","images/map10_magma_scaleRev_orientMir_090.png","happy","1","10","10","magma","orientMir","scaleRev","090","",""
"","","","","","html-slider-response","156","449857","0.0-150.0","cgx44jdud1","22","NaN","<div style=""width:500px;"">
                            <p style=""font-size:50px; font-weight:bold;""
                            >happy</p>
                            <div style=""width:240px; margin: auto;"">
                                <img src=""images/map26_YlGn_scaleRev_orientDef_270.png"" style= ""width:200px""alt=""img"">
                            </div>
                        </div>","-71","","0","","","","images/map26_YlGn_scaleRev_orientDef_270.png","happy","1","26","26","YlGn","orientDef","scaleRev","270","",""
"","","","","","html-slider-response","157","451457","0.0-151.0","cgx44jdud1","22","NaN","<div style=""width:500px;"">
                            <p style=""font-size:50px; font-weight:bold;""
                            >happy</p>
                            <div style=""width:240px; margin: auto;"">
                                <img src=""images/map15_RdPu_scaleDef_orientMir_000.png"" style= ""width:200px""alt=""img"">
                            </div>
                        </div>","50","","0","","","","images/map15_RdPu_scaleDef_orientMir_000.png","happy","1","15","15","RdPu","orientMir","scaleDef","000","",""
"","","","","","html-slider-response","158","453523","0.0-152.0","cgx44jdud1","22","NaN","<div style=""width:500px;"">
                            <p style=""font-size:50px; font-weight:bold;""
                            >happy</p>
                            <div style=""width:240px; margin: auto;"">
                                <img src=""images/map12_Blues_scaleRev_orientMir_090.png"" style= ""width:200px""alt=""img"">
