"success","timeout","failed_images","failed_audio","failed_video","trial_type","trial_index","time_elapsed","internal_node_id","subject_id","condition_num","rt","stimulus","response","question_order","slider_start","practiceTrial","practiceTrialNum","correct","image_path","concept","repetition","map_id","map_num","scale_name","orientation_code","mapping_code","rotation_code","ishihara_plate","correct_response"
"true","false","[]","[]","[]","preload","0","1006","0.0-0.0","cvc8x74d77","65","","","","","","","","","","","","","","","","","","",""
"","","","","","html-button-response","1","2174","0.0-1.0","cvc8x74d77","65","1166","Welcome to our experiment!<p>At the bottom of this screen, you will see a button that says ""Begin Experiment"".<br>Please only click that button when you are ready to complete the 30 minute experiment in one sitting.</p><p> Once you click that button, it will not be possible to restart the experiment.","0","","","","","","","","","","","","","","","",""
"true","","","","","fullscreen","2","4843","0.0-2.0","cvc8x74d77","65","1665","","","","","","","","","","","","","","","","","",""
"","","","","","survey-multi-select","3","69423","0.0-3.0","cvc8x74d77","65","64577","","{""Consent"":[""<strong>I consent</strong>""]}","[0]","","","","","","","","","","","","","","",""
"","","","","","html-button-response","4","70804","0.0-4.0","cvc8x74d77","65","1379","Welcome! <p> This experiment involves two parts: demographic information, followed by the experimental task.<p> It will take about 30 minutes to complete both parts.","0","","","","","","","","","","","","","","","",""
"","","","","","survey-text","5","86690","0.0-5.0","cvc8x74d77","65","15871","","{""Age"":""20"",""Gender"":""Female"",""Race/ethnicity"":""White"",""Languages"":""English""}","","","","","","","","","","","","","","","",""
"","","","","","html-slider-response","6","143485","0.0-6.0","cvc8x74d77","65","56793","<div style='text-align:left; font-size:20px; line-height:25px; width: 1000px;'>
                                During this experiment you will be asked to rate how much you associate maps with                    different concepts.<br> Below, you can see some examples of the maps you will be asked to rate. Above the maps
                    is the list of concepts.<br>You will be asked                    to rate how much you associate each map with each concept on a scale from 'not at all' to 'very much' like the
                    one below. <br><br>
                    Now, please look at the list of concepts and maps. For each concept, think about the map you associate 'very
                    much' with the concept.<br>                     When you see that map during the experiment, please rate it near the 'very much' endpoint of the
                    scale.<br>Now, please think about which map you associate 'not at all'                     with each concept. When you see that map during the experiment, please rate it near the 'not at all' endpoint
                    of the scale.<br>
                    Please use the full range of the scale. That is, if a map is somewhat associated with the concept, you would
                    click partway between the middle point and right side of the scale.                    You will be asked to rate each map for a given concept before moving on to the next concept.<br>Press the
                    'Continue' button for instructions on how to use the slider.                    <br>
                </div>

                <div style=""width: 500px; margin: 0 auto;"">
                    <!-- Centered text paragraphs -->
                    <div style=""text-align: center; width: 500px;"">
                        <p style=""font-size:25px; line-height:15px;"">
                            disgust&nbsp;&nbsp;&nbsp;&nbsp;
                            angry&nbsp;&nbsp;&nbsp;&nbsp;
                            happy&nbsp;&nbsp;&nbsp;&nbsp;
                            fearful&nbsp;&nbsp;&nbsp;&nbsp;
                            sad
                        </p>
                        <!-- <p style=""font-size:20px; line-height:15px;"">angry</p>
                        <p style=""font-size:20px;line-height:15px;"">happy</p>
                        <p style=""font-size:20px;line-height:15px;"">fearful</p>
                        <p style=""font-size:20px;line-height:15px;"">sad</p> -->
                    </div>
            

                    <!-- Grid section -->
                   <div style=""display: flex; justify-content: center; padding-top: 15px;"">
                    <div style=""display: grid; grid-template-columns: repeat(10, 55px); grid-gap: 5px; width: auto;"">
                        <img src=""images/map27_Purples_scaleDef_orientMir_090.png"" alt=""map"" style=""width: 100%;""><img src=""images/map12_BrBG_scaleRev_orientMir_000.png"" alt=""map"" style=""width: 100%;""><img src=""images/map10_PuBuGn_scaleDef_orientDef_090.png"" alt=""map"" style=""width: 100%;""><img src=""images/map13_RdYlBu_scaleDef_orientDef_270.png"" alt=""map"" style=""width: 100%;""><img src=""images/map26_turbo_scaleRev_orientDef_000.png"" alt=""map"" style=""width: 100%;""><img src=""images/map02_Greens_scaleRev_orientDef_180.png"" alt=""map"" style=""width: 100%;""><img src=""images/map23_managua_scaleDef_orientDef_090.png"" alt=""map"" style=""width: 100%;""><img src=""images/map26_plasma_scaleRev_orientMir_000.png"" alt=""map"" style=""width: 100%;""><img src=""images/map26_viridis_scaleRev_orientDef_180.png"" alt=""map"" style=""width: 100%;""><img src=""images/map10_YlGnBu_scaleRev_orientDef_000.png"" alt=""map"" style=""width: 100%;""><img src=""images/map26_magma_scaleDef_orientMir_270.png"" alt=""map"" style=""width: 100%;""><img src=""images/map02_YlOrBr_scaleDef_orientMir_270.png"" alt=""map"" style=""width: 100%;""><img src=""images/map23_gist_earth_scaleRev_orientMir_180.png"" alt=""map"" style=""width: 100%;""><img src=""images/map15_coolwarm_scaleRev_orientDef_180.png"" alt=""map"" style=""width: 100%;""><img src=""images/map12_PuOr_scaleDef_orientMir_090.png"" alt=""map"" style=""width: 100%;""><img src=""images/map10_YlGn_scaleRev_orientMir_180.png"" alt=""map"" style=""width: 100%;""><img src=""images/map12_PRGn_scaleDef_orientDef_090.png"" alt=""map"" style=""width: 100%;""><img src=""images/map27_Blues_scaleDef_orientMir_270.png"" alt=""map"" style=""width: 100%;""><img src=""images/map13_RdBu_scaleDef_orientDef_090.png"" alt=""map"" style=""width: 100%;""><img src=""images/map02_Reds_scaleDef_orientMir_090.png"" alt=""map"" style=""width: 100%;""><img src=""images/map07_GnBu_scaleRev_orientMir_000.png"" alt=""map"" style=""width: 100%;""><img src=""images/map05_OrRd_scaleRev_orientMir_000.png"" alt=""map"" style=""width: 100%;""><img src=""images/map27_Greys_scaleDef_orientDef_270.png"" alt=""map"" style=""width: 100%;""><img src=""images/map02_Oranges_scaleDef_orientDef_270.png"" alt=""map"" style=""width: 100%;""><img src=""images/map26_inferno_scaleRev_orientMir_180.png"" alt=""map"" style=""width: 100%;""><img src=""images/map10_BuGn_scaleDef_orientDef_270.png"" alt=""map"" style=""width: 100%;""><img src=""images/map13_RdGy_scaleRev_orientDef_000.png"" alt=""map"" style=""width: 100%;""><img src=""images/map15_bwr_scaleRev_orientMir_000.png"" alt=""map"" style=""width: 100%;""><img src=""images/map07_RdPu_scaleRev_orientDef_000.png"" alt=""map"" style=""width: 100%;""><img src=""images/map10_PiYG_scaleDef_orientMir_270.png"" alt=""map"" style=""width: 100%;""><img src=""images/map13_RdYlGn_scaleRev_orientMir_180.png"" alt=""map"" style=""width: 100%;""><img src=""images/map05_PuRd_scaleRev_orientMir_180.png"" alt=""map"" style=""width: 100%;""><img src=""images/map23_vanimo_scaleDef_orientDef_270.png"" alt=""map"" style=""width: 100%;""><img src=""images/map15_seismic_scaleRev_orientMir_180.png"" alt=""map"" style=""width: 100%;""><img src=""images/map07_PuBu_scaleRev_orientMir_180.png"" alt=""map"" style=""width: 100%;""><img src=""images/map23_berlin_scaleRev_orientDef_000.png"" alt=""map"" style=""width: 100%;""><img src=""images/map05_YlOrRd_scaleRev_orientDef_180.png"" alt=""map"" style=""width: 100%;""><img src=""images/map27_cividis_scaleRev_orientDef_180.png"" alt=""map"" style=""width: 100%;""><img src=""images/map13_Spectral_scaleDef_orientMir_270.png"" alt=""map"" style=""width: 100%;""><img src=""images/map07_BuPu_scaleDef_orientDef_090.png"" alt=""map"" style=""width: 100%;"">
                    </div>
                </div>

                    <!-- Clear floats -->
                    <div style=""clear: both;""></div>
                </div>
                            ","null","","0","true","","","","","","","","","","","","",""
"","","","","","html-button-response","7","153117","0.0-7.0","cvc8x74d77","65","9630","<div style=""width:800px;""><p style=""text-align:left"">To move the slider, click and drag your cursor to the location of the scale where you would like to make your rating and then let go. When you let go of the slider, your response will be recorded and the next trial will begin. <br>
                    We are interested in your initial impressions of each map for the given concept, so please go with your first intuition. <br>
                    Before you begin the experiment, there will be four training trials for you to practice using the scale. <br>
                     When you are ready to start the training trials, please click ""Continue"".</p><br></div>","0","","","","","","","","","","","","","","","",""
"","","","","","html-slider-response","8","155929","0.0-8.0-0.0","cvc8x74d77","65","NaN","<div style=""width:500px;"">
                                    <p style=""font-size:25px;"">Please move the slider all the way to the <br> right endpoint of the scale</p>

                                    </div>
                                </div>","200","","0","true","0","true","","","","","","","","","","",""
"","","","","","html-button-response","9","157400","0.0-8.0-1.0","cvc8x74d77","65","967","<p align='center'><b>Good job!</b> Click on 'Continue' to proceed.</p>","0","","","","","","","","","","","","","","","",""
"","","","","","html-slider-response","10","159380","0.0-9.0-0.0","cvc8x74d77","65","NaN","<div style=""width:500px;"">
                                    <p style=""font-size:25px;"">Please move the slider all the way to the <br> left endpoint of the scale</p>

                                    </div>
                                </div>","-200","","0","true","1","true","","","","","","","","","","",""
"","","","","","html-button-response","11","160401","0.0-9.0-1.0","cvc8x74d77","65","517","<p align='center'><b>Good job!</b> Click on 'Continue' to proceed.</p>","0","","","","","","","","","","","","","","","",""
"","","","","","html-slider-response","12","164729","0.0-10.0-0.0","cvc8x74d77","65","NaN","<div style=""width:500px;"">
                                    <p style=""font-size:25px;"">Please move the slider halfway between the center and right endpoint of the scale</p>

                                    </div>
                                </div>","103","","0","true","2","true","","","","","","","","","","",""
"","","","","","html-button-response","13","165867","0.0-10.0-1.0","cvc8x74d77","65","635","<p align='center'><b>Good job!</b> Click on 'Continue' to proceed.</p>","0","","","","","","","","","","","","","","","",""
"","","","","","html-slider-response","14","167847","0.0-11.0-0.0","cvc8x74d77","65","NaN","<div style=""width:500px;"">
                                    <p style=""font-size:25px;"">Please move the slider halfway between the center and left endpoint of the scale</p>

                                    </div>
                                </div>","-102","","0","true","3","true","","","","","","","","","","",""
"","","","","","html-button-response","15","168999","0.0-11.0-1.0","cvc8x74d77","65","649","<p align='center'><b>Good job!</b> Click on 'Continue' to proceed.</p>","0","","","","","","","","","","","","","","","",""
"","","","","","html-button-response","16","169983","0.0-12.0","cvc8x74d77","65","983","<p>Great job! You've completed the practice trials. Now you will begin the main task.</p>","0","","","","","","","","","","","","","","","",""
"","","","","","html-button-response","17","172433","0.0-13.0","cvc8x74d77","65","2449","<p>In this block of trials, you will be asked to rate how much you associate each map with:</p > <p style = 'font-size:150%; font-weight: bold'>disgust</p><br></br>","0","","","","","","","","","","","","","","","",""
"","","","","","html-slider-response","18","175478","0.0-14.0","cvc8x74d77","65","NaN","<div style=""width:500px;"">
                            <p style=""font-size:50px; font-weight:bold;""
                            >disgust</p>
                            <div style=""width:240px; margin: auto;"">
                                <img src=""images/map02_Oranges_scaleRev_orientMir_000.png"" style= ""width:200px""alt=""img"">
                            </div>
                        </div>","54","","0","","","","images/map02_Oranges_scaleRev_orientMir_000.png","disgust","1","02","02","Oranges","orientMir","scaleRev","000","",""
"","","","","","html-slider-response","19","177995","0.0-15.0","cvc8x74d77","65","NaN","<div style=""width:500px;"">
                            <p style=""font-size:50px; font-weight:bold;""
                            >disgust</p>
                            <div style=""width:240px; margin: auto;"">
                                <img src=""images/map23_turbo_scaleDef_orientMir_270.png"" style= ""width:200px""alt=""img"">
                            </div>
                        </div>","103","","0","","","","images/map23_turbo_scaleDef_orientMir_270.png","disgust","1","23","23","turbo","orientMir","scaleDef","270","",""
"","","","","","html-slider-response","20","181878","0.0-16.0","cvc8x74d77","65","NaN","<div style=""width:500px;"">
                            <p style=""font-size:50px; font-weight:bold;""
                            >disgust</p>
                            <div style=""width:240px; margin: auto;"">
                                <img src=""images/map26_inferno_scaleRev_orientMir_180.png"" style= ""width:200px""alt=""img"">
                            </div>
                        </div>","114","","0","","","","images/map26_inferno_scaleRev_orientMir_180.png","disgust","1","26","26","inferno","orientMir","scaleRev","180","",""
"","","","","","html-slider-response","21","184293","0.0-17.0","cvc8x74d77","65","NaN","<div style=""width:500px;"">
                            <p style=""font-size:50px; font-weight:bold;""
                            >disgust</p>
                            <div style=""width:240px; margin: auto;"">
                                <img src=""images/map05_YlOrBr_scaleRev_orientDef_000.png"" style= ""width:200px""alt=""img"">
                            </div>
                        </div>","17","","0","","","","images/map05_YlOrBr_scaleRev_orientDef_000.png","disgust","1","05","05","YlOrBr","orientDef","scaleRev","000","",""
"","","","","","html-slider-response","22","186361","0.0-18.0","cvc8x74d77","65","NaN","<div style=""width:500px;"">
                            <p style=""font-size:50px; font-weight:bold;""
                            >disgust</p>
                            <div style=""width:240px; margin: auto;"">
                                <img src=""images/map10_BuGn_scaleDef_orientDef_270.png"" style= ""width:200px""alt=""img"">
                            </div>
                        </div>","200","","0","","","","images/map10_BuGn_scaleDef_orientDef_270.png","disgust","1","10","10","BuGn","orientDef","scaleDef","270","",""
"","","","","","html-slider-response","23","188978","0.0-19.0","cvc8x74d77","65","NaN","<div style=""width:500px;"">
                            <p style=""font-size:50px; font-weight:bold;""
                            >disgust</p>
                            <div style=""width:240px; margin: auto;"">
                                <img src=""images/map07_PuBu_scaleDef_orientMir_090.png"" style= ""width:200px""alt=""img"">
                            </div>
                        </div>","-139","","0","","","","images/map07_PuBu_scaleDef_orientMir_090.png","disgust","1","07","07","PuBu","orientMir","scaleDef","090","",""
"","","","","","html-slider-response","24","190794","0.0-20.0","cvc8x74d77","65","NaN","<div style=""width:500px;"">
                            <p style=""font-size:50px; font-weight:bold;""
                            >disgust</p>
                            <div style=""width:240px; margin: auto;"">
                                <img src=""images/map07_GnBu_scaleRev_orientMir_000.png"" style= ""width:200px""alt=""img"">
                            </div>
                        </div>","-66","","0","","","","images/map07_GnBu_scaleRev_orientMir_000.png","disgust","1","07","07","GnBu","orientMir","scaleRev","000","",""
"","","","","","html-slider-response","25","194409","0.0-21.0","cvc8x74d77","65","NaN","<div style=""width:500px;"">
                            <p style=""font-size:50px; font-weight:bold;""
                            >disgust</p>
                            <div style=""width:240px; margin: auto;"">
                                <img src=""images/map15_Spectral_scaleRev_orientDef_000.png"" style= ""width:200px""alt=""img"">
                            </div>
                        </div>","92","","0","","","","images/map15_Spectral_scaleRev_orientDef_000.png","disgust","1","15","15","Spectral","orientDef","scaleRev","000","",""
"","","","","","html-slider-response","26","197260","0.0-22.0","cvc8x74d77","65","NaN","<div style=""width:500px;"">
                            <p style=""font-size:50px; font-weight:bold;""
                            >disgust</p>
                            <div style=""width:240px; margin: auto;"">
                                <img src=""images/map12_PRGn_scaleRev_orientDef_180.png"" style= ""width:200px""alt=""img"">
                            </div>
                        </div>","176","","0","","","","images/map12_PRGn_scaleRev_orientDef_180.png","disgust","1","12","12","PRGn","orientDef","scaleRev","180","",""
"","","","","","html-slider-response","27","199686","0.0-23.0","cvc8x74d77","65","NaN","<div style=""width:500px;"">
                            <p style=""font-size:50px; font-weight:bold;""
                            >disgust</p>
                            <div style=""width:240px; margin: auto;"">
                                <img src=""images/map23_vanimo_scaleRev_orientMir_000.png"" style= ""width:200px""alt=""img"">
                            </div>
                        </div>","178","","0","","","","images/map23_vanimo_scaleRev_orientMir_000.png","disgust","1","23","23","vanimo","orientMir","scaleRev","000","",""
"","","","","","html-slider-response","28","202426","0.0-24.0","cvc8x74d77","65","NaN","<div style=""width:500px;"">
                            <p style=""font-size:50px; font-weight:bold;""
                            >disgust</p>
                            <div style=""width:240px; margin: auto;"">
                                <img src=""images/map13_RdGy_scaleRev_orientDef_000.png"" style= ""width:200px""alt=""img"">
                            </div>
                        </div>","-96","","0","","","","images/map13_RdGy_scaleRev_orientDef_000.png","disgust","1","13","13","RdGy","orientDef","scaleRev","000","",""
"","","","","","html-slider-response","29","204777","0.0-25.0","cvc8x74d77","65","NaN","<div style=""width:500px;"">
                            <p style=""font-size:50px; font-weight:bold;""
                            >disgust</p>
                            <div style=""width:240px; margin: auto;"">
                                <img src=""images/map27_Purples_scaleRev_orientMir_180.png"" style= ""width:200px""alt=""img"">
                            </div>
                        </div>","-42","","0","","","","images/map27_Purples_scaleRev_orientMir_180.png","disgust","1","27","27","Purples","orientMir","scaleRev","180","",""
"","","","","","html-slider-response","30","207625","0.0-26.0","cvc8x74d77","65","NaN","<div style=""width:500px;"">
                            <p style=""font-size:50px; font-weight:bold;""
                            >disgust</p>
                            <div style=""width:240px; margin: auto;"">
                                <img src=""images/map02_Oranges_scaleDef_orientDef_270.png"" style= ""width:200px""alt=""img"">
                            </div>
                        </div>","20","","0","","","","images/map02_Oranges_scaleDef_orientDef_270.png","disgust","1","02","02","Oranges","orientDef","scaleDef","270","",""
"","","","","","html-slider-response","31","216260","0.0-27.0","cvc8x74d77","65","NaN","<div style=""width:500px;"">
                            <p style=""font-size:50px; font-weight:bold;""
                            >disgust</p>
                            <div style=""width:240px; margin: auto;"">
                                <img src=""images/map10_PuBuGn_scaleRev_orientDef_180.png"" style= ""width:200px""alt=""img"">
                            </div>
                        </div>","-103","","0","","","","images/map10_PuBuGn_scaleRev_orientDef_180.png","disgust","1","10","10","PuBuGn","orientDef","scaleRev","180","",""
"","","","","","html-slider-response","32","218657","0.0-28.0","cvc8x74d77","65","NaN","<div style=""width:500px;"">
                            <p style=""font-size:50px; font-weight:bold;""
                            >disgust</p>
                            <div style=""width:240px; margin: auto;"">
                                <img src=""images/map12_PRGn_scaleDef_orientDef_090.png"" style= ""width:200px""alt=""img"">
                            </div>
                        </div>","154","","0","","","","images/map12_PRGn_scaleDef_orientDef_090.png","disgust","1","12","12","PRGn","orientDef","scaleDef","090","",""
"","","","","","html-slider-response","33","221325","0.0-29.0","cvc8x74d77","65","NaN","<div style=""width:500px;"">
                            <p style=""font-size:50px; font-weight:bold;""
                            >disgust</p>
                            <div style=""width:240px; margin: auto;"">
                                <img src=""images/map15_seismic_scaleDef_orientMir_090.png"" style= ""width:200px""alt=""img"">
                            </div>
                        </div>","15","","0","","","","images/map15_seismic_scaleDef_orientMir_090.png","disgust","1","15","15","seismic","orientMir","scaleDef","090","",""
"","","","","","html-slider-response","34","223524","0.0-30.0","cvc8x74d77","65","NaN","<div style=""width:500px;"">
                            <p style=""font-size:50px; font-weight:bold;""
                            >disgust</p>
                            <div style=""width:240px; margin: auto;"">
                                <img src=""images/map13_RdYlBu_scaleDef_orientDef_270.png"" style= ""width:200px""alt=""img"">
                            </div>
                        </div>","46","","0","","","","images/map13_RdYlBu_scaleDef_orientDef_270.png","disgust","1","13","13","RdYlBu","orientDef","scaleDef","270","",""
"","","","","","html-slider-response","35","226044","0.0-31.0","cvc8x74d77","65","NaN","<div style=""width:500px;"">
                            <p style=""font-size:50px; font-weight:bold;""
                            >disgust</p>
                            <div style=""width:240px; margin: auto;"">
                                <img src=""images/map02_YlOrBr_scaleDef_orientMir_270.png"" style= ""width:200px""alt=""img"">
                            </div>
                        </div>","22","","0","","","","images/map02_YlOrBr_scaleDef_orientMir_270.png","disgust","1","02","02","YlOrBr","orientMir","scaleDef","270","",""
"","","","","","html-slider-response","36","228568","0.0-32.0","cvc8x74d77","65","NaN","<div style=""width:500px;"">
                            <p style=""font-size:50px; font-weight:bold;""
                            >disgust</p>
                            <div style=""width:240px; margin: auto;"">
                                <img src=""images/map26_inferno_scaleDef_orientMir_090.png"" style= ""width:200px""alt=""img"">
                            </div>
                        </div>","131","","0","","","","images/map26_inferno_scaleDef_orientMir_090.png","disgust","1","26","26","inferno","orientMir","scaleDef","090","",""
"","","","","","html-slider-response","37","230825","0.0-33.0","cvc8x74d77","65","NaN","<div style=""width:500px;"">
                            <p style=""font-size:50px; font-weight:bold;""
                            >disgust</p>
                            <div style=""width:240px; margin: auto;"">
                                <img src=""images/map02_Greens_scaleRev_orientDef_180.png"" style= ""width:200px""alt=""img"">
                            </div>
                        </div>","170","","0","","","","images/map02_Greens_scaleRev_orientDef_180.png","disgust","1","02","02","Greens","orientDef","scaleRev","180","",""
"","","","","","html-slider-response","38","232991","0.0-34.0","cvc8x74d77","65","NaN","<div style=""width:500px;"">
                            <p style=""font-size:50px; font-weight:bold;""
                            >disgust</p>
                            <div style=""width:240px; margin: auto;"">
                                <img src=""images/map13_RdBu_scaleDef_orientDef_090.png"" style= ""width:200px""alt=""img"">
                            </div>
                        </div>","-56","","0","","","","images/map13_RdBu_scaleDef_orientDef_090.png","disgust","1","13","13","RdBu","orientDef","scaleDef","090","",""
"","","","","","html-slider-response","39","235375","0.0-35.0","cvc8x74d77","65","NaN","<div style=""width:500px;"">
                            <p style=""font-size:50px; font-weight:bold;""
                            >disgust</p>
                            <div style=""width:240px; margin: auto;"">
                                <img src=""images/map27_cividis_scaleDef_orientDef_090.png"" style= ""width:200px""alt=""img"">
                            </div>
                        </div>","-30","","0","","","","images/map27_cividis_scaleDef_orientDef_090.png","disgust","1","27","27","cividis","orientDef","scaleDef","090","",""
"","","","","","html-slider-response","40","237342","0.0-36.0","cvc8x74d77","65","NaN","<div style=""width:500px;"">
                            <p style=""font-size:50px; font-weight:bold;""
                            >disgust</p>
                            <div style=""width:240px; margin: auto;"">
                                <img src=""images/map05_OrRd_scaleDef_orientDef_270.png"" style= ""width:200px""alt=""img"">
                            </div>
                        </div>","19","","0","","","","images/map05_OrRd_scaleDef_orientDef_270.png","disgust","1","05","05","OrRd","orientDef","scaleDef","270","",""
"","","","","","html-slider-response","41","247243","0.0-37.0","cvc8x74d77","65","NaN","<div style=""width:500px;"">
                            <p style=""font-size:50px; font-weight:bold;""
                            >disgust</p>
                            <div style=""width:240px; margin: auto;"">
                                <img src=""images/map12_PiYG_scaleRev_orientDef_000.png"" style= ""width:200px""alt=""img"">
                            </div>
                        </div>","-18","","0","","","","images/map12_PiYG_scaleRev_orientDef_000.png","disgust","1","12","12","PiYG","orientDef","scaleRev","000","",""
"","","","","","html-slider-response","42","249725","0.0-38.0","cvc8x74d77","65","NaN","<div style=""width:500px;"">
                            <p style=""font-size:50px; font-weight:bold;""
                            >disgust</p>
                            <div style=""width:240px; margin: auto;"">
                                <img src=""images/map05_RdPu_scaleDef_orientMir_270.png"" style= ""width:200px""alt=""img"">
                            </div>
                        </div>","200","","0","","","","images/map05_RdPu_scaleDef_orientMir_270.png","disgust","1","05","05","RdPu","orientMir","scaleDef","270","",""
"","","","","","html-slider-response","43","251809","0.0-39.0","cvc8x74d77","65","NaN","<div style=""width:500px;"">
                            <p style=""font-size:50px; font-weight:bold;""
                            >disgust</p>
                            <div style=""width:240px; margin: auto;"">
                                <img src=""images/map23_managua_scaleRev_orientDef_180.png"" style= ""width:200px""alt=""img"">
                            </div>
                        </div>","-61","","0","","","","images/map23_managua_scaleRev_orientDef_180.png","disgust","1","23","23","managua","orientDef","scaleRev","180","",""
"","","","","","html-slider-response","44","254625","0.0-40.0","cvc8x74d77","65","NaN","<div style=""width:500px;"">
                            <p style=""font-size:50px; font-weight:bold;""
                            >disgust</p>
                            <div style=""width:240px; margin: auto;"">
                                <img src=""images/map26_viridis_scaleDef_orientDef_090.png"" style= ""width:200px""alt=""img"">
                            </div>
                        </div>","119","","0","","","","images/map26_viridis_scaleDef_orientDef_090.png","disgust","1","26","26","viridis","orientDef","scaleDef","090","",""
"","","","","","html-slider-response","45","258458","0.0-41.0","cvc8x74d77","65","NaN","<div style=""width:500px;"">
                            <p style=""font-size:50px; font-weight:bold;""
                            >disgust</p>
                            <div style=""width:240px; margin: auto;"">
                                <img src=""images/map02_Reds_scaleDef_orientMir_090.png"" style= ""width:200px""alt=""img"">
                            </div>
                        </div>","-46","","0","","","","images/map02_Reds_scaleDef_orientMir_090.png","disgust","1","02","02","Reds","orientMir","scaleDef","090","",""
"","","","","","html-slider-response","46","261158","0.0-42.0","cvc8x74d77","65","NaN","<div style=""width:500px;"">
                            <p style=""font-size:50px; font-weight:bold;""
                            >disgust</p>
                            <div style=""width:240px; margin: auto;"">
                                <img src=""images/map27_Greys_scaleDef_orientDef_270.png"" style= ""width:200px""alt=""img"">
                            </div>
                        </div>","-200","","0","","","","images/map27_Greys_scaleDef_orientDef_270.png","disgust","1","27","27","Greys","orientDef","scaleDef","270","",""
"","","","","","html-slider-response","47","268709","0.0-43.0","cvc8x74d77","65","NaN","<div style=""width:500px;"">
                            <p style=""font-size:50px; font-weight:bold;""
                            >disgust</p>
                            <div style=""width:240px; margin: auto;"">
                                <img src=""images/map10_PiYG_scaleDef_orientMir_270.png"" style= ""width:200px""alt=""img"">
                            </div>
                        </div>","18","","0","","","","images/map10_PiYG_scaleDef_orientMir_270.png","disgust","1","10","10","PiYG","orientMir","scaleDef","270","",""
"","","","","","html-slider-response","48","271090","0.0-44.0","cvc8x74d77","65","NaN","<div style=""width:500px;"">
                            <p style=""font-size:50px; font-weight:bold;""
                            >disgust</p>
                            <div style=""width:240px; margin: auto;"">
                                <img src=""images/map23_managua_scaleDef_orientDef_090.png"" style= ""width:200px""alt=""img"">
                            </div>
                        </div>","-94","","0","","","","images/map23_managua_scaleDef_orientDef_090.png","disgust","1","23","23","managua","orientDef","scaleDef","090","",""
"","","","","","html-slider-response","49","272924","0.0-45.0","cvc8x74d77","65","NaN","<div style=""width:500px;"">
                            <p style=""font-size:50px; font-weight:bold;""
                            >disgust</p>
                            <div style=""width:240px; margin: auto;"">
                                <img src=""images/map05_PuRd_scaleDef_orientMir_090.png"" style= ""width:200px""alt=""img"">
                            </div>
                        </div>","200","","0","","","","images/map05_PuRd_scaleDef_orientMir_090.png","disgust","1","05","05","PuRd","orientMir","scaleDef","090","",""
"","","","","","html-slider-response","50","275741","0.0-46.0","cvc8x74d77","65","NaN","<div style=""width:500px;"">
                            <p style=""font-size:50px; font-weight:bold;""
                            >disgust</p>
                            <div style=""width:240px; margin: auto;"">
                                <img src=""images/map12_PuOr_scaleDef_orientMir_090.png"" style= ""width:200px""alt=""img"">
                            </div>
                        </div>","-38","","0","","","","images/map12_PuOr_scaleDef_orientMir_090.png","disgust","1","12","12","PuOr","orientMir","scaleDef","090","",""
"","","","","","html-slider-response","51","278725","0.0-47.0","cvc8x74d77","65","NaN","<div style=""width:500px;"">
                            <p style=""font-size:50px; font-weight:bold;""
                            >disgust</p>
                            <div style=""width:240px; margin: auto;"">
                                <img src=""images/map23_berlin_scaleRev_orientDef_000.png"" style= ""width:200px""alt=""img"">
                            </div>
                        </div>","-50","","0","","","","images/map23_berlin_scaleRev_orientDef_000.png","disgust","1","23","23","berlin","orientDef","scaleRev","000","",""
"","","","","","html-slider-response","52","281674","0.0-48.0","cvc8x74d77","65","NaN","<div style=""width:500px;"">
                            <p style=""font-size:50px; font-weight:bold;""
                            >disgust</p>
                            <div style=""width:240px; margin: auto;"">
                                <img src=""images/map26_magma_scaleDef_orientMir_270.png"" style= ""width:200px""alt=""img"">
                            </div>
                        </div>","-69","","0","","","","images/map26_magma_scaleDef_orientMir_270.png","disgust","1","26","26","magma","orientMir","scaleDef","270","",""
"","","","","","html-slider-response","53","283675","0.0-49.0","cvc8x74d77","65","NaN","<div style=""width:500px;"">
                            <p style=""font-size:50px; font-weight:bold;""
                            >disgust</p>
                            <div style=""width:240px; margin: auto;"">
                                <img src=""images/map02_Reds_scaleRev_orientMir_180.png"" style= ""width:200px""alt=""img"">
                            </div>
                        </div>","22","","0","","","","images/map02_Reds_scaleRev_orientMir_180.png","disgust","1","02","02","Reds","orientMir","scaleRev","180","",""
"","","","","","html-slider-response","54","285608","0.0-50.0","cvc8x74d77","65","NaN","<div style=""width:500px;"">
                            <p style=""font-size:50px; font-weight:bold;""
                            >disgust</p>
                            <div style=""width:240px; margin: auto;"">
                                <img src=""images/map13_RdYlGn_scaleRev_orientMir_180.png"" style= ""width:200px""alt=""img"">
                            </div>
                        </div>","76","","0","","","","images/map13_RdYlGn_scaleRev_orientMir_180.png","disgust","1","13","13","RdYlGn","orientMir","scaleRev","180","",""
"","","","","","html-slider-response","55","288439","0.0-51.0","cvc8x74d77","65","NaN","<div style=""width:500px;"">
                            <p style=""font-size:50px; font-weight:bold;""
                            >disgust</p>
                            <div style=""width:240px; margin: auto;"">
                                <img src=""images/map12_PuOr_scaleRev_orientMir_180.png"" style= ""width:200px""alt=""img"">
                            </div>
                        </div>","-94","","0","","","","images/map12_PuOr_scaleRev_orientMir_180.png","disgust","1","12","12","PuOr","orientMir","scaleRev","180","",""
"","","","","","html-slider-response","56","290389","0.0-52.0","cvc8x74d77","65","NaN","<div style=""width:500px;"">
                            <p style=""font-size:50px; font-weight:bold;""
                            >disgust</p>
                            <div style=""width:240px; margin: auto;"">
                                <img src=""images/map15_coolwarm_scaleDef_orientDef_090.png"" style= ""width:200px""alt=""img"">
                            </div>
                        </div>","-138","","0","","","","images/map15_coolwarm_scaleDef_orientDef_090.png","disgust","1","15","15","coolwarm","orientDef","scaleDef","090","",""
"","","","","","html-slider-response","57","292473","0.0-53.0","cvc8x74d77","65","NaN","<div style=""width:500px;"">
                            <p style=""font-size:50px; font-weight:bold;""
                            >disgust</p>
                            <div style=""width:240px; margin: auto;"">
                                <img src=""images/map12_BrBG_scaleDef_orientDef_270.png"" style= ""width:200px""alt=""img"">
                            </div>
                        </div>","56","","0","","","","images/map12_BrBG_scaleDef_orientDef_270.png","disgust","1","12","12","BrBG","orientDef","scaleDef","270","",""
"","","","","","html-button-response","58","295028","0.0-54.0","cvc8x74d77","65","2052","<p>You are doing great!<br></br> You are halway done with the current block. When you are ready to continue, click the 'Continue' button.</p>","0","","","","","","","","","","","","","","","",""
"","","","","","html-slider-response","59","297389","0.0-55.0","cvc8x74d77","65","NaN","<div style=""width:500px;"">
                            <p style=""font-size:50px; font-weight:bold;""
                            >disgust</p>
                            <div style=""width:240px; margin: auto;"">
                                <img src=""images/map15_berlin_scaleDef_orientMir_270.png"" style= ""width:200px""alt=""img"">
                            </div>
                        </div>","27","","0","","","","images/map15_berlin_scaleDef_orientMir_270.png","disgust","1","15","15","berlin","orientMir","scaleDef","270","",""
"","","","","","html-slider-response","60","299489","0.0-56.0","cvc8x74d77","65","NaN","<div style=""width:500px;"">
                            <p style=""font-size:50px; font-weight:bold;""
                            >disgust</p>
                            <div style=""width:240px; margin: auto;"">
                                <img src=""images/map10_YlGn_scaleRev_orientMir_180.png"" style= ""width:200px""alt=""img"">
                            </div>
                        </div>","102","","0","","","","images/map10_YlGn_scaleRev_orientMir_180.png","disgust","1","10","10","YlGn","orientMir","scaleRev","180","",""
"","","","","","html-slider-response","61","301605","0.0-57.0","cvc8x74d77","65","NaN","<div style=""width:500px;"">
                            <p style=""font-size:50px; font-weight:bold;""
                            >disgust</p>
                            <div style=""width:240px; margin: auto;"">
                                <img src=""images/map02_Blues_scaleRev_orientDef_000.png"" style= ""width:200px""alt=""img"">
                            </div>
                        </div>","-84","","0","","","","images/map02_Blues_scaleRev_orientDef_000.png","disgust","1","02","02","Blues","orientDef","scaleRev","000","",""
"","","","","","html-slider-response","62","303456","0.0-58.0","cvc8x74d77","65","NaN","<div style=""width:500px;"">
                            <p style=""font-size:50px; font-weight:bold;""
                            >disgust</p>
                            <div style=""width:240px; margin: auto;"">
                                <img src=""images/map13_RdYlGn_scaleDef_orientMir_090.png"" style= ""width:200px""alt=""img"">
                            </div>
                        </div>","70","","0","","","","images/map13_RdYlGn_scaleDef_orientMir_090.png","disgust","1","13","13","RdYlGn","orientMir","scaleDef","090","",""
"","","","","","html-slider-response","63","305657","0.0-59.0","cvc8x74d77","65","NaN","<div style=""width:500px;"">
                            <p style=""font-size:50px; font-weight:bold;""
                            >disgust</p>
                            <div style=""width:240px; margin: auto;"">
                                <img src=""images/map27_cividis_scaleRev_orientDef_180.png"" style= ""width:200px""alt=""img"">
                            </div>
                        </div>","-102","","0","","","","images/map27_cividis_scaleRev_orientDef_180.png","disgust","1","27","27","cividis","orientDef","scaleRev","180","",""
"","","","","","html-slider-response","64","309039","0.0-60.0","cvc8x74d77","65","NaN","<div style=""width:500px;"">
                            <p style=""font-size:50px; font-weight:bold;""
                            >disgust</p>
                            <div style=""width:240px; margin: auto;"">
                                <img src=""images/map05_YlOrRd_scaleDef_orientDef_090.png"" style= ""width:200px""alt=""img"">
                            </div>
                        </div>","16","","0","","","","images/map05_YlOrRd_scaleDef_orientDef_090.png","disgust","1","05","05","YlOrRd","orientDef","scaleDef","090","",""
"","","","","","html-slider-response","65","311289","0.0-61.0","cvc8x74d77","65","NaN","<div style=""width:500px;"">
                            <p style=""font-size:50px; font-weight:bold;""
                            >disgust</p>
                            <div style=""width:240px; margin: auto;"">
                                <img src=""images/map23_gist_earth_scaleDef_orientMir_090.png"" style= ""width:200px""alt=""img"">
                            </div>
                        </div>","60","","0","","","","images/map23_gist_earth_scaleDef_orientMir_090.png","disgust","1","23","23","gist","scaleDef","earth","orientMir","",""
"","","","","","html-slider-response","66","313422","0.0-62.0","cvc8x74d77","65","NaN","<div style=""width:500px;"">
                            <p style=""font-size:50px; font-weight:bold;""
                            >disgust</p>
                            <div style=""width:240px; margin: auto;"">
                                <img src=""images/map13_RdBu_scaleRev_orientDef_180.png"" style= ""width:200px""alt=""img"">
                            </div>
                        </div>","-67","","0","","","","images/map13_RdBu_scaleRev_orientDef_180.png","disgust","1","13","13","RdBu","orientDef","scaleRev","180","",""
"","","","","","html-slider-response","67","315988","0.0-63.0","cvc8x74d77","65","NaN","<div style=""width:500px;"">
                            <p style=""font-size:50px; font-weight:bold;""
                            >disgust</p>
                            <div style=""width:240px; margin: auto;"">
                                <img src=""images/map10_BuGn_scaleRev_orientMir_000.png"" style= ""width:200px""alt=""img"">
                            </div>
                        </div>","153","","0","","","","images/map10_BuGn_scaleRev_orientMir_000.png","disgust","1","10","10","BuGn","orientMir","scaleRev","000","",""
"","","","","","html-slider-response","68","318087","0.0-64.0","cvc8x74d77","65","NaN","<div style=""width:500px;"">
                            <p style=""font-size:50px; font-weight:bold;""
                            >disgust</p>
                            <div style=""width:240px; margin: auto;"">
                                <img src=""images/map07_YlGnBu_scaleDef_orientMir_270.png"" style= ""width:200px""alt=""img"">
                            </div>
                        </div>","-76","","0","","","","images/map07_YlGnBu_scaleDef_orientMir_270.png","disgust","1","07","07","YlGnBu","orientMir","scaleDef","270","",""
"","","","","","html-slider-response","69","322038","0.0-65.0","cvc8x74d77","65","NaN","<div style=""width:500px;"">
                            <p style=""font-size:50px; font-weight:bold;""
                            >disgust</p>
                            <div style=""width:240px; margin: auto;"">
                                <img src=""images/map13_RdYlBu_scaleRev_orientMir_000.png"" style= ""width:200px""alt=""img"">
                            </div>
                        </div>","-38","","0","","","","images/map13_RdYlBu_scaleRev_orientMir_000.png","disgust","1","13","13","RdYlBu","orientMir","scaleRev","000","",""
"","","","","","html-slider-response","70","324687","0.0-66.0","cvc8x74d77","65","NaN","<div style=""width:500px;"">
                            <p style=""font-size:50px; font-weight:bold;""
                            >disgust</p>
                            <div style=""width:240px; margin: auto;"">
                                <img src=""images/map07_PuBu_scaleRev_orientMir_180.png"" style= ""width:200px""alt=""img"">
                            </div>
                        </div>","-126","","0","","","","images/map07_PuBu_scaleRev_orientMir_180.png","disgust","1","07","07","PuBu","orientMir","scaleRev","180","",""
"","","","","","html-slider-response","71","327355","0.0-67.0","cvc8x74d77","65","NaN","<div style=""width:500px;"">
                            <p style=""font-size:50px; font-weight:bold;""
                            >disgust</p>
                            <div style=""width:240px; margin: auto;"">
                                <img src=""images/map07_RdPu_scaleRev_orientDef_000.png"" style= ""width:200px""alt=""img"">
                            </div>
                        </div>","200","","0","","","","images/map07_RdPu_scaleRev_orientDef_000.png","disgust","1","07","07","RdPu","orientDef","scaleRev","000","",""
"","","","","","html-slider-response","72","335105","0.0-68.0","cvc8x74d77","65","NaN","<div style=""width:500px;"">
                            <p style=""font-size:50px; font-weight:bold;""
                            >disgust</p>
                            <div style=""width:240px; margin: auto;"">
                                <img src=""images/map05_OrRd_scaleRev_orientMir_000.png"" style= ""width:200px""alt=""img"">
                            </div>
                        </div>","20","","0","","","","images/map05_OrRd_scaleRev_orientMir_000.png","disgust","1","05","05","OrRd","orientMir","scaleRev","000","",""
"","","","","","html-slider-response","73","337204","0.0-69.0","cvc8x74d77","65","NaN","<div style=""width:500px;"">
                            <p style=""font-size:50px; font-weight:bold;""
                            >disgust</p>
                            <div style=""width:240px; margin: auto;"">
                                <img src=""images/map15_bwr_scaleRev_orientMir_000.png"" style= ""width:200px""alt=""img"">
                            </div>
                        </div>","47","","0","","","","images/map15_bwr_scaleRev_orientMir_000.png","disgust","1","15","15","bwr","orientMir","scaleRev","000","",""
"","","","","","html-slider-response","74","339787","0.0-70.0","cvc8x74d77","65","NaN","<div style=""width:500px;"">
                            <p style=""font-size:50px; font-weight:bold;""
                            >disgust</p>
                            <div style=""width:240px; margin: auto;"">
                                <img src=""images/map27_Greys_scaleRev_orientMir_000.png"" style= ""width:200px""alt=""img"">
                            </div>
                        </div>","-200","","0","","","","images/map27_Greys_scaleRev_orientMir_000.png","disgust","1","27","27","Greys","orientMir","scaleRev","000","",""
"","","","","","html-slider-response","75","342620","0.0-71.0","cvc8x74d77","65","NaN","<div style=""width:500px;"">
                            <p style=""font-size:50px; font-weight:bold;""
                            >disgust</p>
                            <div style=""width:240px; margin: auto;"">
                                <img src=""images/map23_vanimo_scaleDef_orientDef_270.png"" style= ""width:200px""alt=""img"">
                            </div>
                        </div>","178","","0","","","","images/map23_vanimo_scaleDef_orientDef_270.png","disgust","1","23","23","vanimo","orientDef","scaleDef","270","",""
"","","","","","html-slider-response","76","344621","0.0-72.0","cvc8x74d77","65","NaN","<div style=""width:500px;"">
                            <p style=""font-size:50px; font-weight:bold;""
                            >disgust</p>
                            <div style=""width:240px; margin: auto;"">
                                <img src=""images/map27_Blues_scaleDef_orientMir_270.png"" style= ""width:200px""alt=""img"">
                            </div>
                        </div>","-164","","0","","","","images/map27_Blues_scaleDef_orientMir_270.png","disgust","1","27","27","Blues","orientMir","scaleDef","270","",""
"","","","","","html-slider-response","77","346721","0.0-73.0","cvc8x74d77","65","NaN","<div style=""width:500px;"">
                            <p style=""font-size:50px; font-weight:bold;""
                            >disgust</p>
                            <div style=""width:240px; margin: auto;"">
                                <img src=""images/map10_PuBuGn_scaleDef_orientDef_090.png"" style= ""width:200px""alt=""img"">
                            </div>
                        </div>","-169","","0","","","","images/map10_PuBuGn_scaleDef_orientDef_090.png","disgust","1","10","10","PuBuGn","orientDef","scaleDef","090","",""
"","","","","","html-slider-response","78","348636","0.0-74.0","cvc8x74d77","65","NaN","<div style=""width:500px;"">
                            <p style=""font-size:50px; font-weight:bold;""
                            >disgust</p>
                            <div style=""width:240px; margin: auto;"">
                                <img src=""images/map27_magma_scaleRev_orientDef_000.png"" style= ""width:200px""alt=""img"">
                            </div>
                        </div>","19","","0","","","","images/map27_magma_scaleRev_orientDef_000.png","disgust","1","27","27","magma","orientDef","scaleRev","000","",""
"","","","","","html-slider-response","79","350619","0.0-75.0","cvc8x74d77","65","NaN","<div style=""width:500px;"">
                            <p style=""font-size:50px; font-weight:bold;""
                            >disgust</p>
                            <div style=""width:240px; margin: auto;"">
                                <img src=""images/map07_BuPu_scaleRev_orientDef_180.png"" style= ""width:200px""alt=""img"">
                            </div>
                        </div>","14","","0","","","","images/map07_BuPu_scaleRev_orientDef_180.png","disgust","1","07","07","BuPu","orientDef","scaleRev","180","",""
"","","","","","html-slider-response","80","353186","0.0-76.0","cvc8x74d77","65","NaN","<div style=""width:500px;"">
                            <p style=""font-size:50px; font-weight:bold;""
                            >disgust</p>
                            <div style=""width:240px; margin: auto;"">
                                <img src=""images/map15_bwr_scaleDef_orientDef_270.png"" style= ""width:200px""alt=""img"">
                            </div>
                        </div>","37","","0","","","","images/map15_bwr_scaleDef_orientDef_270.png","disgust","1","15","15","bwr","orientDef","scaleDef","270","",""
"","","","","","html-slider-response","81","354968","0.0-77.0","cvc8x74d77","65","NaN","<div style=""width:500px;"">
                            <p style=""font-size:50px; font-weight:bold;""
                            >disgust</p>
                            <div style=""width:240px; margin: auto;"">
                                <img src=""images/map07_GnBu_scaleDef_orientDef_270.png"" style= ""width:200px""alt=""img"">
                            </div>
                        </div>","-56","","0","","","","images/map07_GnBu_scaleDef_orientDef_270.png","disgust","1","07","07","GnBu","orientDef","scaleDef","270","",""
"","","","","","html-slider-response","82","357155","0.0-78.0","cvc8x74d77","65","NaN","<div style=""width:500px;"">
                            <p style=""font-size:50px; font-weight:bold;""
                            >disgust</p>
                            <div style=""width:240px; margin: auto;"">
                                <img src=""images/map27_Purples_scaleDef_orientMir_090.png"" style= ""width:200px""alt=""img"">
                            </div>
                        </div>","81","","0","","","","images/map27_Purples_scaleDef_orientMir_090.png","disgust","1","27","27","Purples","orientMir","scaleDef","090","",""
"","","","","","html-slider-response","83","359069","0.0-79.0","cvc8x74d77","65","NaN","<div style=""width:500px;"">
                            <p style=""font-size:50px; font-weight:bold;""
                            >disgust</p>
                            <div style=""width:240px; margin: auto;"">
                                <img src=""images/map07_BuPu_scaleDef_orientDef_090.png"" style= ""width:200px""alt=""img"">
                            </div>
                        </div>","112","","0","","","","images/map07_BuPu_scaleDef_orientDef_090.png","disgust","1","07","07","BuPu","orientDef","scaleDef","090","",""
"","","","","","html-slider-response","84","360486","0.0-80.0","cvc8x74d77","65","NaN","<div style=""width:500px;"">
                            <p style=""font-size:50px; font-weight:bold;""
                            >disgust</p>
                            <div style=""width:240px; margin: auto;"">
                                <img src=""images/map05_YlOrRd_scaleRev_orientDef_180.png"" style= ""width:200px""alt=""img"">
                            </div>
                        </div>","34","","0","","","","images/map05_YlOrRd_scaleRev_orientDef_180.png","disgust","1","05","05","YlOrRd","orientDef","scaleRev","180","",""
"","","","","","html-slider-response","85","362804","0.0-81.0","cvc8x74d77","65","NaN","<div style=""width:500px;"">
                            <p style=""font-size:50px; font-weight:bold;""
                            >disgust</p>
                            <div style=""width:240px; margin: auto;"">
                                <img src=""images/map26_turbo_scaleRev_orientDef_000.png"" style= ""width:200px""alt=""img"">
                            </div>
                        </div>","160","","0","","","","images/map26_turbo_scaleRev_orientDef_000.png","disgust","1","26","26","turbo","orientDef","scaleRev","000","",""
"","","","","","html-slider-response","86","364519","0.0-82.0","cvc8x74d77","65","NaN","<div style=""width:500px;"">
                            <p style=""font-size:50px; font-weight:bold;""
                            >disgust</p>
                            <div style=""width:240px; margin: auto;"">
                                <img src=""images/map05_PuRd_scaleRev_orientMir_180.png"" style= ""width:200px""alt=""img"">
                            </div>
                        </div>","200","","0","","","","images/map05_PuRd_scaleRev_orientMir_180.png","disgust","1","05","05","PuRd","orientMir","scaleRev","180","",""
"","","","","","html-slider-response","87","367602","0.0-83.0","cvc8x74d77","65","NaN","<div style=""width:500px;"">
                            <p style=""font-size:50px; font-weight:bold;""
                            >disgust</p>
                            <div style=""width:240px; margin: auto;"">
                                <img src=""images/map15_coolwarm_scaleRev_orientDef_180.png"" style= ""width:200px""alt=""img"">
                            </div>
                        </div>","42","","0","","","","images/map15_coolwarm_scaleRev_orientDef_180.png","disgust","1","15","15","coolwarm","orientDef","scaleRev","180","",""
"","","","","","html-slider-response","88","369520","0.0-84.0","cvc8x74d77","65","NaN","<div style=""width:500px;"">
                            <p style=""font-size:50px; font-weight:bold;""
                            >disgust</p>
                            <div style=""width:240px; margin: auto;"">
                                <img src=""images/map12_RdGy_scaleDef_orientMir_270.png"" style= ""width:200px""alt=""img"">
                            </div>
                        </div>","92","","0","","","","images/map12_RdGy_scaleDef_orientMir_270.png","disgust","1","12","12","RdGy","orientMir","scaleDef","270","",""
"","","","","","html-slider-response","89","373471","0.0-85.0","cvc8x74d77","65","NaN","<div style=""width:500px;"">
                            <p style=""font-size:50px; font-weight:bold;""
                            >disgust</p>
                            <div style=""width:240px; margin: auto;"">
                                <img src=""images/map26_viridis_scaleRev_orientDef_180.png"" style= ""width:200px""alt=""img"">
                            </div>
                        </div>","121","","0","","","","images/map26_viridis_scaleRev_orientDef_180.png","disgust","1","26","26","viridis","orientDef","scaleRev","180","",""
"","","","","","html-slider-response","90","375603","0.0-86.0","cvc8x74d77","65","NaN","<div style=""width:500px;"">
                            <p style=""font-size:50px; font-weight:bold;""
                            >disgust</p>
                            <div style=""width:240px; margin: auto;"">
                                <img src=""images/map02_Greens_scaleDef_orientDef_090.png"" style= ""width:200px""alt=""img"">
                            </div>
                        </div>","159","","0","","","","images/map02_Greens_scaleDef_orientDef_090.png","disgust","1","02","02","Greens","orientDef","scaleDef","090","",""
"","","","","","html-slider-response","91","377287","0.0-87.0","cvc8x74d77","65","NaN","<div style=""width:500px;"">
                            <p style=""font-size:50px; font-weight:bold;""
                            >disgust</p>
                            <div style=""width:240px; margin: auto;"">
                                <img src=""images/map12_BrBG_scaleRev_orientMir_000.png"" style= ""width:200px""alt=""img"">
                            </div>
                        </div>","77","","0","","","","images/map12_BrBG_scaleRev_orientMir_000.png","disgust","1","12","12","BrBG","orientMir","scaleRev","000","",""
"","","","","","html-slider-response","92","379153","0.0-88.0","cvc8x74d77","65","NaN","<div style=""width:500px;"">
                            <p style=""font-size:50px; font-weight:bold;""
                            >disgust</p>
                            <div style=""width:240px; margin: auto;"">
                                <img src=""images/map13_Spectral_scaleDef_orientMir_270.png"" style= ""width:200px""alt=""img"">
                            </div>
                        </div>","-56","","0","","","","images/map13_Spectral_scaleDef_orientMir_270.png","disgust","1","13","13","Spectral","orientMir","scaleDef","270","",""
"","","","","","html-slider-response","93","381434","0.0-89.0","cvc8x74d77","65","NaN","<div style=""width:500px;"">
                            <p style=""font-size:50px; font-weight:bold;""
                            >disgust</p>
                            <div style=""width:240px; margin: auto;"">
                                <img src=""images/map26_plasma_scaleDef_orientDef_270.png"" style= ""width:200px""alt=""img"">
                            </div>
                        </div>","-2","","0","","","","images/map26_plasma_scaleDef_orientDef_270.png","disgust","1","26","26","plasma","orientDef","scaleDef","270","",""
"","","","","","html-slider-response","94","383818","0.0-90.0","cvc8x74d77","65","NaN","<div style=""width:500px;"">
                            <p style=""font-size:50px; font-weight:bold;""
                            >disgust</p>
                            <div style=""width:240px; margin: auto;"">
                                <img src=""images/map26_plasma_scaleRev_orientMir_000.png"" style= ""width:200px""alt=""img"">
                            </div>
                        </div>","57","","0","","","","images/map26_plasma_scaleRev_orientMir_000.png","disgust","1","26","26","plasma","orientMir","scaleRev","000","",""
"","","","","","html-slider-response","95","385385","0.0-91.0","cvc8x74d77","65","NaN","<div style=""width:500px;"">
                            <p style=""font-size:50px; font-weight:bold;""
                            >disgust</p>
                            <div style=""width:240px; margin: auto;"">
                                <img src=""images/map10_YlGnBu_scaleRev_orientDef_000.png"" style= ""width:200px""alt=""img"">
                            </div>
                        </div>","-71","","0","","","","images/map10_YlGnBu_scaleRev_orientDef_000.png","disgust","1","10","10","YlGnBu","orientDef","scaleRev","000","",""
"","","","","","html-slider-response","96","388101","0.0-92.0","cvc8x74d77","65","NaN","<div style=""width:500px;"">
                            <p style=""font-size:50px; font-weight:bold;""
                            >disgust</p>
                            <div style=""width:240px; margin: auto;"">
                                <img src=""images/map23_gist_earth_scaleRev_orientMir_180.png"" style= ""width:200px""alt=""img"">
                            </div>
                        </div>","43","","0","","","","images/map23_gist_earth_scaleRev_orientMir_180.png","disgust","1","23","23","gist","scaleRev","earth","orientMir","",""
"","","","","","html-slider-response","97","389900","0.0-93.0","cvc8x74d77","65","NaN","<div style=""width:500px;"">
                            <p style=""font-size:50px; font-weight:bold;""
                            >disgust</p>
                            <div style=""width:240px; margin: auto;"">
                                <img src=""images/map15_seismic_scaleRev_orientMir_180.png"" style= ""width:200px""alt=""img"">
                            </div>
                        </div>","170","","0","","","","images/map15_seismic_scaleRev_orientMir_180.png","disgust","1","15","15","seismic","orientMir","scaleRev","180","",""
"","","","","","html-slider-response","98","392085","0.0-94.0","cvc8x74d77","65","NaN","<div style=""width:500px;"">
                            <p style=""font-size:50px; font-weight:bold;""
                            >disgust</p>
                            <div style=""width:240px; margin: auto;"">
                                <img src=""images/map10_YlGn_scaleDef_orientMir_090.png"" style= ""width:200px""alt=""img"">
                            </div>
                        </div>","176","","0","","","","images/map10_YlGn_scaleDef_orientMir_090.png","disgust","1","10","10","YlGn","orientMir","scaleDef","090","",""
"","","","","","html-button-response","99","394341","0.0-95.0","cvc8x74d77","65","1753","<p>Great Job! You've finished block 1.<br></br> You have 4 block(s) left to go.<br></br></p>","0","","","","","","","","","","","","","","","",""
"","","","","","html-button-response","100","396340","0.0-96.0","cvc8x74d77","65","1998","<p>In this block of trials, you will be asked to rate how much you associate each map with:</p > <p style = 'font-size:150%; font-weight: bold'>angry</p><br></br>","0","","","","","","","","","","","","","","","",""
"","","","","","html-slider-response","101","398668","0.0-97.0","cvc8x74d77","65","NaN","<div style=""width:500px;"">
                            <p style=""font-size:50px; font-weight:bold;""
                            >angry</p>
                            <div style=""width:240px; margin: auto;"">
                                <img src=""images/map13_RdGy_scaleRev_orientDef_000.png"" style= ""width:200px""alt=""img"">
                            </div>
                        </div>","185","","0","","","","images/map13_RdGy_scaleRev_orientDef_000.png","angry","1","13","13","RdGy","orientDef","scaleRev","000","",""
"","","","","","html-slider-response","102","401536","0.0-98.0","cvc8x74d77","65","NaN","<div style=""width:500px;"">
                            <p style=""font-size:50px; font-weight:bold;""
                            >angry</p>
                            <div style=""width:240px; margin: auto;"">
                                <img src=""images/map27_cividis_scaleDef_orientDef_090.png"" style= ""width:200px""alt=""img"">
                            </div>
                        </div>","62","","0","","","","images/map27_cividis_scaleDef_orientDef_090.png","angry","1","27","27","cividis","orientDef","scaleDef","090","",""
"","","","","","html-slider-response","103","403552","0.0-99.0","cvc8x74d77","65","NaN","<div style=""width:500px;"">
                            <p style=""font-size:50px; font-weight:bold;""
                            >angry</p>
                            <div style=""width:240px; margin: auto;"">
                                <img src=""images/map07_BuPu_scaleRev_orientDef_180.png"" style= ""width:200px""alt=""img"">
                            </div>
                        </div>","20","","0","","","","images/map07_BuPu_scaleRev_orientDef_180.png","angry","1","07","07","BuPu","orientDef","scaleRev","180","",""
"","","","","","html-slider-response","104","405383","0.0-100.0","cvc8x74d77","65","NaN","<div style=""width:500px;"">
                            <p style=""font-size:50px; font-weight:bold;""
                            >angry</p>
                            <div style=""width:240px; margin: auto;"">
                                <img src=""images/map23_berlin_scaleRev_orientDef_000.png"" style= ""width:200px""alt=""img"">
                            </div>
                        </div>","86","","0","","","","images/map23_berlin_scaleRev_orientDef_000.png","angry","1","23","23","berlin","orientDef","scaleRev","000","",""
"","","","","","html-slider-response","105","407568","0.0-101.0","cvc8x74d77","65","NaN","<div style=""width:500px;"">
                            <p style=""font-size:50px; font-weight:bold;""
                            >angry</p>
                            <div style=""width:240px; margin: auto;"">
                                <img src=""images/map12_PRGn_scaleRev_orientDef_180.png"" style= ""width:200px""alt=""img"">
                            </div>
                        </div>","-58","","0","","","","images/map12_PRGn_scaleRev_orientDef_180.png","angry","1","12","12","PRGn","orientDef","scaleRev","180","",""
"","","","","","html-slider-response","106","409567","0.0-102.0","cvc8x74d77","65","NaN","<div style=""width:500px;"">
                            <p style=""font-size:50px; font-weight:bold;""
                            >angry</p>
                            <div style=""width:240px; margin: auto;"">
                                <img src=""images/map02_Reds_scaleRev_orientMir_180.png"" style= ""width:200px""alt=""img"">
                            </div>
                        </div>","200","","0","","","","images/map02_Reds_scaleRev_orientMir_180.png","angry","1","02","02","Reds","orientMir","scaleRev","180","",""
"","","","","","html-slider-response","107","412602","0.0-103.0","cvc8x74d77","65","NaN","<div style=""width:500px;"">
                            <p style=""font-size:50px; font-weight:bold;""
                            >angry</p>
                            <div style=""width:240px; margin: auto;"">
                                <img src=""images/map07_YlGnBu_scaleDef_orientMir_270.png"" style= ""width:200px""alt=""img"">
                            </div>
                        </div>","-170","","0","","","","images/map07_YlGnBu_scaleDef_orientMir_270.png","angry","1","07","07","YlGnBu","orientMir","scaleDef","270","",""
"","","","","","html-slider-response","108","414817","0.0-104.0","cvc8x74d77","65","NaN","<div style=""width:500px;"">
                            <p style=""font-size:50px; font-weight:bold;""
                            >angry</p>
                            <div style=""width:240px; margin: auto;"">
                                <img src=""images/map12_PRGn_scaleDef_orientDef_090.png"" style= ""width:200px""alt=""img"">
                            </div>
                        </div>","-90","","0","","","","images/map12_PRGn_scaleDef_orientDef_090.png","angry","1","12","12","PRGn","orientDef","scaleDef","090","",""
"","","","","","html-slider-response","109","416801","0.0-105.0","cvc8x74d77","65","NaN","<div style=""width:500px;"">
                            <p style=""font-size:50px; font-weight:bold;""
                            >angry</p>
                            <div style=""width:240px; margin: auto;"">
                                <img src=""images/map02_Oranges_scaleDef_orientDef_270.png"" style= ""width:200px""alt=""img"">
                            </div>
                        </div>","96","","0","","","","images/map02_Oranges_scaleDef_orientDef_270.png","angry","1","02","02","Oranges","orientDef","scaleDef","270","",""
"","","","","","html-slider-response","110","419417","0.0-106.0","cvc8x74d77","65","NaN","<div style=""width:500px;"">
                            <p style=""font-size:50px; font-weight:bold;""
                            >angry</p>
                            <div style=""width:240px; margin: auto;"">
                                <img src=""images/map07_PuBu_scaleDef_orientMir_090.png"" style= ""width:200px""alt=""img"">
                            </div>
                        </div>","-160","","0","","","","images/map07_PuBu_scaleDef_orientMir_090.png","angry","1","07","07","PuBu","orientMir","scaleDef","090","",""
"","","","","","html-slider-response","111","421400","0.0-107.0","cvc8x74d77","65","NaN","<div style=""width:500px;"">
                            <p style=""font-size:50px; font-weight:bold;""
                            >angry</p>
                            <div style=""width:240px; margin: auto;"">
                                <img src=""images/map26_turbo_scaleRev_orientDef_000.png"" style= ""width:200px""alt=""img"">
                            </div>
                        </div>","150","","0","","","","images/map26_turbo_scaleRev_orientDef_000.png","angry","1","26","26","turbo","orientDef","scaleRev","000","",""
"","","","","","html-slider-response","112","423285","0.0-108.0","cvc8x74d77","65","NaN","<div style=""width:500px;"">
                            <p style=""font-size:50px; font-weight:bold;""
                            >angry</p>
                            <div style=""width:240px; margin: auto;"">
                                <img src=""images/map23_managua_scaleRev_orientDef_180.png"" style= ""width:200px""alt=""img"">
                            </div>
                        </div>","-60","","0","","","","images/map23_managua_scaleRev_orientDef_180.png","angry","1","23","23","managua","orientDef","scaleRev","180","",""
"","","","","","html-slider-response","113","425099","0.0-109.0","cvc8x74d77","65","NaN","<div style=""width:500px;"">
                            <p style=""font-size:50px; font-weight:bold;""
                            >angry</p>
                            <div style=""width:240px; margin: auto;"">
                                <img src=""images/map26_magma_scaleDef_orientMir_270.png"" style= ""width:200px""alt=""img"">
                            </div>
                        </div>","102","","0","","","","images/map26_magma_scaleDef_orientMir_270.png","angry","1","26","26","magma","orientMir","scaleDef","270","",""
"","","","","","html-slider-response","114","427286","0.0-110.0","cvc8x74d77","65","NaN","<div style=""width:500px;"">
                            <p style=""font-size:50px; font-weight:bold;""
                            >angry</p>
                            <div style=""width:240px; margin: auto;"">
                                <img src=""images/map10_PiYG_scaleDef_orientMir_270.png"" style= ""width:200px""alt=""img"">
                            </div>
                        </div>","-100","","0","","","","images/map10_PiYG_scaleDef_orientMir_270.png","angry","1","10","10","PiYG","orientMir","scaleDef","270","",""
"","","","","","html-slider-response","115","429599","0.0-111.0","cvc8x74d77","65","NaN","<div style=""width:500px;"">
                            <p style=""font-size:50px; font-weight:bold;""
                            >angry</p>
                            <div style=""width:240px; margin: auto;"">
                                <img src=""images/map05_YlOrBr_scaleRev_orientDef_000.png"" style= ""width:200px""alt=""img"">
                            </div>
                        </div>","158","","0","","","","images/map05_YlOrBr_scaleRev_orientDef_000.png","angry","1","05","05","YlOrBr","orientDef","scaleRev","000","",""
"","","","","","html-slider-response","116","431400","0.0-112.0","cvc8x74d77","65","NaN","<div style=""width:500px;"">
                            <p style=""font-size:50px; font-weight:bold;""
                            >angry</p>
                            <div style=""width:240px; margin: auto;"">
                                <img src=""images/map27_Blues_scaleDef_orientMir_270.png"" style= ""width:200px""alt=""img"">
                            </div>
                        </div>","-150","","0","","","","images/map27_Blues_scaleDef_orientMir_270.png","angry","1","27","27","Blues","orientMir","scaleDef","270","",""
"","","","","","html-slider-response","117","433516","0.0-113.0","cvc8x74d77","65","NaN","<div style=""width:500px;"">
                            <p style=""font-size:50px; font-weight:bold;""
                            >angry</p>
                            <div style=""width:240px; margin: auto;"">
                                <img src=""images/map27_Purples_scaleDef_orientMir_090.png"" style= ""width:200px""alt=""img"">
                            </div>
                        </div>","16","","0","","","","images/map27_Purples_scaleDef_orientMir_090.png","angry","1","27","27","Purples","orientMir","scaleDef","090","",""
"","","","","","html-slider-response","118","435551","0.0-114.0","cvc8x74d77","65","NaN","<div style=""width:500px;"">
                            <p style=""font-size:50px; font-weight:bold;""
                            >angry</p>
                            <div style=""width:240px; margin: auto;"">
                                <img src=""images/map27_Greys_scaleRev_orientMir_000.png"" style= ""width:200px""alt=""img"">
                            </div>
                        </div>","96","","0","","","","images/map27_Greys_scaleRev_orientMir_000.png","angry","1","27","27","Greys","orientMir","scaleRev","000","",""
"","","","","","html-slider-response","119","438917","0.0-115.0","cvc8x74d77","65","NaN","<div style=""width:500px;"">
                            <p style=""font-size:50px; font-weight:bold;""
                            >angry</p>
                            <div style=""width:240px; margin: auto;"">
                                <img src=""images/map15_seismic_scaleDef_orientMir_090.png"" style= ""width:200px""alt=""img"">
                            </div>
                        </div>","119","","0","","","","images/map15_seismic_scaleDef_orientMir_090.png","angry","1","15","15","seismic","orientMir","scaleDef","090","",""
"","","","","","html-slider-response","120","441701","0.0-116.0","cvc8x74d77","65","NaN","<div style=""width:500px;"">
                            <p style=""font-size:50px; font-weight:bold;""
                            >angry</p>
                            <div style=""width:240px; margin: auto;"">
                                <img src=""images/map10_PuBuGn_scaleDef_orientDef_090.png"" style= ""width:200px""alt=""img"">
                            </div>
                        </div>","-167","","0","","","","images/map10_PuBuGn_scaleDef_orientDef_090.png","angry","1","10","10","PuBuGn","orientDef","scaleDef","090","",""
"","","","","","html-slider-response","121","443333","0.0-117.0","cvc8x74d77","65","NaN","<div style=""width:500px;"">
                            <p style=""font-size:50px; font-weight:bold;""
                            >angry</p>
                            <div style=""width:240px; margin: auto;"">
                                <img src=""images/map12_BrBG_scaleRev_orientMir_000.png"" style= ""width:200px""alt=""img"">
                            </div>
                        </div>","-62","","0","","","","images/map12_BrBG_scaleRev_orientMir_000.png","angry","1","12","12","BrBG","orientMir","scaleRev","000","",""
"","","","","","html-slider-response","122","444849","0.0-118.0","cvc8x74d77","65","NaN","<div style=""width:500px;"">
                            <p style=""font-size:50px; font-weight:bold;""
                            >angry</p>
                            <div style=""width:240px; margin: auto;"">
                                <img src=""images/map05_YlOrRd_scaleRev_orientDef_180.png"" style= ""width:200px""alt=""img"">
                            </div>
                        </div>","124","","0","","","","images/map05_YlOrRd_scaleRev_orientDef_180.png","angry","1","05","05","YlOrRd","orientDef","scaleRev","180","",""
"","","","","","html-slider-response","123","446483","0.0-119.0","cvc8x74d77","65","NaN","<div style=""width:500px;"">
                            <p style=""font-size:50px; font-weight:bold;""
                            >angry</p>
                            <div style=""width:240px; margin: auto;"">
                                <img src=""images/map23_turbo_scaleDef_orientMir_270.png"" style= ""width:200px""alt=""img"">
                            </div>
                        </div>","89","","0","","","","images/map23_turbo_scaleDef_orientMir_270.png","angry","1","23","23","turbo","orientMir","scaleDef","270","",""
"","","","","","html-slider-response","124","448165","0.0-120.0","cvc8x74d77","65","NaN","<div style=""width:500px;"">
                            <p style=""font-size:50px; font-weight:bold;""
                            >angry</p>
                            <div style=""width:240px; margin: auto;"">
                                <img src=""images/map05_PuRd_scaleDef_orientMir_090.png"" style= ""width:200px""alt=""img"">
                            </div>
                        </div>","200","","0","","","","images/map05_PuRd_scaleDef_orientMir_090.png","angry","1","05","05","PuRd","orientMir","scaleDef","090","",""
"","","","","","html-slider-response","125","450180","0.0-121.0","cvc8x74d77","65","NaN","<div style=""width:500px;"">
                            <p style=""font-size:50px; font-weight:bold;""
                            >angry</p>
                            <div style=""width:240px; margin: auto;"">
                                <img src=""images/map15_berlin_scaleDef_orientMir_270.png"" style= ""width:200px""alt=""img"">
                            </div>
                        </div>","110","","0","","","","images/map15_berlin_scaleDef_orientMir_270.png","angry","1","15","15","berlin","orientMir","scaleDef","270","",""
"","","","","","html-slider-response","126","451881","0.0-122.0","cvc8x74d77","65","NaN","<div style=""width:500px;"">
                            <p style=""font-size:50px; font-weight:bold;""
                            >angry</p>
                            <div style=""width:240px; margin: auto;"">
                                <img src=""images/map26_viridis_scaleDef_orientDef_090.png"" style= ""width:200px""alt=""img"">
                            </div>
                        </div>","31","","0","","","","images/map26_viridis_scaleDef_orientDef_090.png","angry","1","26","26","viridis","orientDef","scaleDef","090","",""
"","","","","","html-slider-response","127","453615","0.0-123.0","cvc8x74d77","65","NaN","<div style=""width:500px;"">
                            <p style=""font-size:50px; font-weight:bold;""
                            >angry</p>
                            <div style=""width:240px; margin: auto;"">
                                <img src=""images/map13_RdYlBu_scaleRev_orientMir_000.png"" style= ""width:200px""alt=""img"">
                            </div>
                        </div>","-89","","0","","","","images/map13_RdYlBu_scaleRev_orientMir_000.png","angry","1","13","13","RdYlBu","orientMir","scaleRev","000","",""
"","","","","","html-slider-response","128","455316","0.0-124.0","cvc8x74d77","65","NaN","<div style=""width:500px;"">
                            <p style=""font-size:50px; font-weight:bold;""
                            >angry</p>
                            <div style=""width:240px; margin: auto;"">
                                <img src=""images/map12_BrBG_scaleDef_orientDef_270.png"" style= ""width:200px""alt=""img"">
                            </div>
                        </div>","-102","","0","","","","images/map12_BrBG_scaleDef_orientDef_270.png","angry","1","12","12","BrBG","orientDef","scaleDef","270","",""
"","","","","","html-slider-response","129","457001","0.0-125.0","cvc8x74d77","65","NaN","<div style=""width:500px;"">
                            <p style=""font-size:50px; font-weight:bold;""
                            >angry</p>
                            <div style=""width:240px; margin: auto;"">
                                <img src=""images/map05_PuRd_scaleRev_orientMir_180.png"" style= ""width:200px""alt=""img"">
                            </div>
                        </div>","200","","0","","","","images/map05_PuRd_scaleRev_orientMir_180.png","angry","1","05","05","PuRd","orientMir","scaleRev","180","",""
"","","","","","html-slider-response","130","458881","0.0-126.0","cvc8x74d77","65","NaN","<div style=""width:500px;"">
                            <p style=""font-size:50px; font-weight:bold;""
                            >angry</p>
                            <div style=""width:240px; margin: auto;"">
                                <img src=""images/map02_Blues_scaleRev_orientDef_000.png"" style= ""width:200px""alt=""img"">
                            </div>
                        </div>","-151","","0","","","","images/map02_Blues_scaleRev_orientDef_000.png","angry","1","02","02","Blues","orientDef","scaleRev","000","",""
"","","","","","html-slider-response","131","462114","0.0-127.0","cvc8x74d77","65","NaN","<div style=""width:500px;"">
                            <p style=""font-size:50px; font-weight:bold;""
                            >angry</p>
                            <div style=""width:240px; margin: auto;"">
                                <img src=""images/map10_YlGn_scaleDef_orientMir_090.png"" style= ""width:200px""alt=""img"">
                            </div>
                        </div>","-26","","0","","","","images/map10_YlGn_scaleDef_orientMir_090.png","angry","1","10","10","YlGn","orientMir","scaleDef","090","",""
"","","","","","html-slider-response","132","463683","0.0-128.0","cvc8x74d77","65","NaN","<div style=""width:500px;"">
                            <p style=""font-size:50px; font-weight:bold;""
                            >angry</p>
                            <div style=""width:240px; margin: auto;"">
                                <img src=""images/map15_seismic_scaleRev_orientMir_180.png"" style= ""width:200px""alt=""img"">
                            </div>
                        </div>","86","","0","","","","images/map15_seismic_scaleRev_orientMir_180.png","angry","1","15","15","seismic","orientMir","scaleRev","180","",""
"","","","","","html-slider-response","133","465481","0.0-129.0","cvc8x74d77","65","NaN","<div style=""width:500px;"">
                            <p style=""font-size:50px; font-weight:bold;""
                            >angry</p>
                            <div style=""width:240px; margin: auto;"">
                                <img src=""images/map27_Purples_scaleRev_orientMir_180.png"" style= ""width:200px""alt=""img"">
                            </div>
                        </div>","18","","0","","","","images/map27_Purples_scaleRev_orientMir_180.png","angry","1","27","27","Purples","orientMir","scaleRev","180","",""
"","","","","","html-slider-response","134","467247","0.0-130.0","cvc8x74d77","65","NaN","<div style=""width:500px;"">
                            <p style=""font-size:50px; font-weight:bold;""
                            >angry</p>
                            <div style=""width:240px; margin: auto;"">
                                <img src=""images/map07_GnBu_scaleDef_orientDef_270.png"" style= ""width:200px""alt=""img"">
                            </div>
                        </div>","-103","","0","","","","images/map07_GnBu_scaleDef_orientDef_270.png","angry","1","07","07","GnBu","orientDef","scaleDef","270","",""
"","","","","","html-slider-response","135","469015","0.0-131.0","cvc8x74d77","65","NaN","<div style=""width:500px;"">
                            <p style=""font-size:50px; font-weight:bold;""
                            >angry</p>
                            <div style=""width:240px; margin: auto;"">
                                <img src=""images/map15_bwr_scaleDef_orientDef_270.png"" style= ""width:200px""alt=""img"">
                            </div>
                        </div>","39","","0","","","","images/map15_bwr_scaleDef_orientDef_270.png","angry","1","15","15","bwr","orientDef","scaleDef","270","",""
"","","","","","html-slider-response","136","470783","0.0-132.0","cvc8x74d77","65","NaN","<div style=""width:500px;"">
                            <p style=""font-size:50px; font-weight:bold;""
                            >angry</p>
                            <div style=""width:240px; margin: auto;"">
                                <img src=""images/map02_Oranges_scaleRev_orientMir_000.png"" style= ""width:200px""alt=""img"">
                            </div>
                        </div>","144","","0","","","","images/map02_Oranges_scaleRev_orientMir_000.png","angry","1","02","02","Oranges","orientMir","scaleRev","000","",""
"","","","","","html-slider-response","137","472832","0.0-133.0","cvc8x74d77","65","NaN","<div style=""width:500px;"">
                            <p style=""font-size:50px; font-weight:bold;""
                            >angry</p>
                            <div style=""width:240px; margin: auto;"">
                                <img src=""images/map26_inferno_scaleDef_orientMir_090.png"" style= ""width:200px""alt=""img"">
                            </div>
                        </div>","152","","0","","","","images/map26_inferno_scaleDef_orientMir_090.png","angry","1","26","26","inferno","orientMir","scaleDef","090","",""
"","","","","","html-slider-response","138","474533","0.0-134.0","cvc8x74d77","65","NaN","<div style=""width:500px;"">
                            <p style=""font-size:50px; font-weight:bold;""
                            >angry</p>
                            <div style=""width:240px; margin: auto;"">
                                <img src=""images/map07_GnBu_scaleRev_orientMir_000.png"" style= ""width:200px""alt=""img"">
                            </div>
                        </div>","-107","","0","","","","images/map07_GnBu_scaleRev_orientMir_000.png","angry","1","07","07","GnBu","orientMir","scaleRev","000","",""
"","","","","","html-slider-response","139","477249","0.0-135.0","cvc8x74d77","65","NaN","<div style=""width:500px;"">
                            <p style=""font-size:50px; font-weight:bold;""
                            >angry</p>
                            <div style=""width:240px; margin: auto;"">
                                <img src=""images/map26_plasma_scaleRev_orientMir_000.png"" style= ""width:200px""alt=""img"">
                            </div>
                        </div>","50","","0","","","","images/map26_plasma_scaleRev_orientMir_000.png","angry","1","26","26","plasma","orientMir","scaleRev","000","",""
"","","","","","html-slider-response","140","479380","0.0-136.0","cvc8x74d77","65","NaN","<div style=""width:500px;"">
                            <p style=""font-size:50px; font-weight:bold;""
                            >angry</p>
                            <div style=""width:240px; margin: auto;"">
                                <img src=""images/map13_RdYlBu_scaleDef_orientDef_270.png"" style= ""width:200px""alt=""img"">
                            </div>
                        </div>","42","","0","","","","images/map13_RdYlBu_scaleDef_orientDef_270.png","angry","1","13","13","RdYlBu","orientDef","scaleDef","270","",""
"","","","","","html-button-response","141","480687","0.0-137.0","cvc8x74d77","65","804","<p>You are doing great!<br></br> You are halway done with the current block. When you are ready to continue, click the 'Continue' button.</p>","0","","","","","","","","","","","","","","","",""
"","","","","","html-slider-response","142","483217","0.0-138.0","cvc8x74d77","65","NaN","<div style=""width:500px;"">
                            <p style=""font-size:50px; font-weight:bold;""
                            >angry</p>
                            <div style=""width:240px; margin: auto;"">
                                <img src=""images/map12_PiYG_scaleRev_orientDef_000.png"" style= ""width:200px""alt=""img"">
                            </div>
                        </div>","-122","","0","","","","images/map12_PiYG_scaleRev_orientDef_000.png","angry","1","12","12","PiYG","orientDef","scaleRev","000","",""
"","","","","","html-slider-response","143","485050","0.0-139.0","cvc8x74d77","65","NaN","<div style=""width:500px;"">
                            <p style=""font-size:50px; font-weight:bold;""
                            >angry</p>
                            <div style=""width:240px; margin: auto;"">
                                <img src=""images/map15_bwr_scaleRev_orientMir_000.png"" style= ""width:200px""alt=""img"">
                            </div>
                        </div>","30","","0","","","","images/map15_bwr_scaleRev_orientMir_000.png","angry","1","15","15","bwr","orientMir","scaleRev","000","",""
"","","","","","html-slider-response","144","486714","0.0-140.0","cvc8x74d77","65","NaN","<div style=""width:500px;"">
                            <p style=""font-size:50px; font-weight:bold;""
                            >angry</p>
                            <div style=""width:240px; margin: auto;"">
                                <img src=""images/map05_RdPu_scaleDef_orientMir_270.png"" style= ""width:200px""alt=""img"">
                            </div>
                        </div>","200","","0","","","","images/map05_RdPu_scaleDef_orientMir_270.png","angry","1","05","05","RdPu","orientMir","scaleDef","270","",""
"","","","","","html-slider-response","145","489047","0.0-141.0","cvc8x74d77","65","NaN","<div style=""width:500px;"">
                            <p style=""font-size:50px; font-weight:bold;""
                            >angry</p>
                            <div style=""width:240px; margin: auto;"">
                                <img src=""images/map10_YlGnBu_scaleRev_orientDef_000.png"" style= ""width:200px""alt=""img"">
                            </div>
                        </div>","-162","","0","","","","images/map10_YlGnBu_scaleRev_orientDef_000.png","angry","1","10","10","YlGnBu","orientDef","scaleRev","000","",""
"","","","","","html-slider-response","146","490698","0.0-142.0","cvc8x74d77","65","NaN","<div style=""width:500px;"">
                            <p style=""font-size:50px; font-weight:bold;""
                            >angry</p>
                            <div style=""width:240px; margin: auto;"">
                                <img src=""images/map02_Greens_scaleDef_orientDef_090.png"" style= ""width:200px""alt=""img"">
                            </div>
                        </div>","86","","0","","","","images/map02_Greens_scaleDef_orientDef_090.png","angry","1","02","02","Greens","orientDef","scaleDef","090","",""
"","","","","","html-slider-response","147","493414","0.0-143.0","cvc8x74d77","65","NaN","<div style=""width:500px;"">
                            <p style=""font-size:50px; font-weight:bold;""
                            >angry</p>
                            <div style=""width:240px; margin: auto;"">
                                <img src=""images/map12_RdGy_scaleDef_orientMir_270.png"" style= ""width:200px""alt=""img"">
                            </div>
                        </div>","177","","0","","","","images/map12_RdGy_scaleDef_orientMir_270.png","angry","1","12","12","RdGy","orientMir","scaleDef","270","",""
"","","","","","html-slider-response","148","495180","0.0-144.0","cvc8x74d77","65","NaN","<div style=""width:500px;"">
                            <p style=""font-size:50px; font-weight:bold;""
                            >angry</p>
                            <div style=""width:240px; margin: auto;"">
                                <img src=""images/map13_RdBu_scaleRev_orientDef_180.png"" style= ""width:200px""alt=""img"">
                            </div>
                        </div>","69","","0","","","","images/map13_RdBu_scaleRev_orientDef_180.png","angry","1","13","13","RdBu","orientDef","scaleRev","180","",""
"","","","","","html-slider-response","149","497164","0.0-145.0","cvc8x74d77","65","NaN","<div style=""width:500px;"">
                            <p style=""font-size:50px; font-weight:bold;""
                            >angry</p>
                            <div style=""width:240px; margin: auto;"">
                                <img src=""images/map27_Greys_scaleDef_orientDef_270.png"" style= ""width:200px""alt=""img"">
                            </div>
                        </div>","-200","","0","","","","images/map27_Greys_scaleDef_orientDef_270.png","angry","1","27","27","Greys","orientDef","scaleDef","270","",""
"","","","","","html-slider-response","150","499449","0.0-146.0","cvc8x74d77","65","NaN","<div style=""width:500px;"">
                            <p style=""font-size:50px; font-weight:bold;""
                            >angry</p>
                            <div style=""width:240px; margin: auto;"">
                                <img src=""images/map26_viridis_scaleRev_orientDef_180.png"" style= ""width:200px""alt=""img"">
                            </div>
                        </div>","-49","","0","","","","images/map26_viridis_scaleRev_orientDef_180.png","angry","1","26","26","viridis","orientDef","scaleRev","180","",""
"","","","","","html-slider-response","151","501064","0.0-147.0","cvc8x74d77","65","NaN","<div style=""width:500px;"">
                            <p style=""font-size:50px; font-weight:bold;""
                            >angry</p>
                            <div style=""width:240px; margin: auto;"">
                                <img src=""images/map26_plasma_scaleDef_orientDef_270.png"" style= ""width:200px""alt=""img"">
                            </div>
                        </div>","19","","0","","","","images/map26_plasma_scaleDef_orientDef_270.png","angry","1","26","26","plasma","orientDef","scaleDef","270","",""
"","","","","","html-slider-response","152","503263","0.0-148.0","cvc8x74d77","65","NaN","<div style=""width:500px;"">
                            <p style=""font-size:50px; font-weight:bold;""
                            >angry</p>
                            <div style=""width:240px; margin: auto;"">
                                <img src=""images/map05_YlOrRd_scaleDef_orientDef_090.png"" style= ""width:200px""alt=""img"">
                            </div>
                        </div>","167","","0","","","","images/map05_YlOrRd_scaleDef_orientDef_090.png","angry","1","05","05","YlOrRd","orientDef","scaleDef","090","",""
"","","","","","html-slider-response","153","505197","0.0-149.0","cvc8x74d77","65","NaN","<div style=""width:500px;"">
                            <p style=""font-size:50px; font-weight:bold;""
                            >angry</p>
                            <div style=""width:240px; margin: auto;"">
                                <img src=""images/map10_PuBuGn_scaleRev_orientDef_180.png"" style= ""width:200px""alt=""img"">
                            </div>
                        </div>","-149","","0","","","","images/map10_PuBuGn_scaleRev_orientDef_180.png","angry","1","10","10","PuBuGn","orientDef","scaleRev","180","",""
"","","","","","html-slider-response","154","507229","0.0-150.0","cvc8x74d77","65","NaN","<div style=""width:500px;"">
                            <p style=""font-size:50px; font-weight:bold;""
                            >angry</p>
                            <div style=""width:240px; margin: auto;"">
                                <img src=""images/map05_OrRd_scaleDef_orientDef_270.png"" style= ""width:200px""alt=""img"">
                            </div>
                        </div>","188","","0","","","","images/map05_OrRd_scaleDef_orientDef_270.png","angry","1","05","05","OrRd","orientDef","scaleDef","270","",""
"","","","","","html-slider-response","155","509995","0.0-151.0","cvc8x74d77","65","NaN","<div style=""width:500px;"">
                            <p style=""font-size:50px; font-weight:bold;""
                            >angry</p>
                            <div style=""width:240px; margin: auto;"">
                                <img src=""images/map10_YlGn_scaleRev_orientMir_180.png"" style= ""width:200px""alt=""img"">
                            </div>
                        </div>","-162","","0","","","","images/map10_YlGn_scaleRev_orientMir_180.png","angry","1","10","10","YlGn","orientMir","scaleRev","180","",""
"","","","","","html-slider-response","156","511498","0.0-152.0","cvc8x74d77","65","NaN","<div style=""width:500px;"">
                            <p style=""font-size:50px; font-weight:bold;""
                            >angry</p>
                            <div style=""width:240px; margin: auto;"">
                                <img src=""images/map13_RdYlGn_scaleDef_orientMir_090.png"" style= ""width:200px""alt=""img"">
                            </div>
                        </div>","47","","0","","","","images/map13_RdYlGn_scaleDef_orientMir_090.png","angry","1","13","13","RdYlGn","orientMir","scaleDef","090","",""
"","","","","","html-slider-response","157","512913","0.0-153.0","cvc8x74d77","65","NaN","<div style=""width:500px;"">
                            <p style=""font-size:50px; font-weight:bold;""
                            >angry</p>
                            <div style=""width:240px; margin: auto;"">
                                <img src=""images/map23_managua_scaleDef_orientDef_090.png"" style= ""width:200px""alt=""img"">
                            </div>
