"success","timeout","failed_images","failed_audio","failed_video","trial_type","trial_index","time_elapsed","internal_node_id","subject_id","condition_num","rt","stimulus","response","question_order","slider_start","practiceTrial","practiceTrialNum","correct","image_path","concept","repetition","map_id","map_num","scale_name","orientation_code","mapping_code","rotation_code","ishihara_plate","correct_response"
"true","false","[]","[]","[]","preload","0","372","0.0-0.0","d29a4cdzd0","27","","","","","","","","","","","","","","","","","","",""
"","","","","","html-button-response","1","7064","0.0-1.0","d29a4cdzd0","27","6691","Welcome to our experiment!<p>At the bottom of this screen, you will see a button that says ""Begin Experiment"".<br>Please only click that button when you are ready to complete the 30 minute experiment in one sitting.</p><p> Once you click that button, it will not be possible to restart the experiment.","0","","","","","","","","","","","","","","","",""
"true","","","","","fullscreen","2","9432","0.0-2.0","d29a4cdzd0","27","1364","","","","","","","","","","","","","","","","","",""
"","","","","","survey-multi-select","3","13682","0.0-3.0","d29a4cdzd0","27","4247","","{""Consent"":[""<strong>I consent</strong>""]}","[0]","","","","","","","","","","","","","","",""
"","","","","","html-button-response","4","14963","0.0-4.0","d29a4cdzd0","27","1280","Welcome! <p> This experiment involves two parts: demographic information, followed by the experimental task.<p> It will take about 30 minutes to complete both parts.","0","","","","","","","","","","","","","","","",""
"","","","","","survey-text","5","24614","0.0-5.0","d29a4cdzd0","27","9645","","{""Age"":""18"",""Gender"":""Male"",""Race/ethnicity"":""White"",""Languages"":""English""}","","","","","","","","","","","","","","","",""
"","","","","","html-slider-response","6","43713","0.0-6.0","d29a4cdzd0","27","19097","<div style='text-align:left; font-size:20px; line-height:25px; width: 1000px;'>
                                During this experiment you will be asked to rate how much you associate maps with                    different concepts.<br> Below, you can see some examples of the maps you will be asked to rate. Above the maps
                    is the list of concepts.<br>You will be asked                    to rate how much you associate each map with each concept on a scale from 'not at all' to 'very much' like the
                    one below. <br><br>
                    Now, please look at the list of concepts and maps. For each concept, think about the map you associate 'very
                    much' with the concept.<br>                     When you see that map during the experiment, please rate it near the 'very much' endpoint of the
                    scale.<br>Now, please think about which map you associate 'not at all'                     with each concept. When you see that map during the experiment, please rate it near the 'not at all' endpoint
                    of the scale.<br>
                    Please use the full range of the scale. That is, if a map is somewhat associated with the concept, you would
                    click partway between the middle point and right side of the scale.                    You will be asked to rate each map for a given concept before moving on to the next concept.<br>Press the
                    'Continue' button for instructions on how to use the slider.                    <br>
                </div>

                <div style=""width: 500px; margin: 0 auto;"">
                    <!-- Centered text paragraphs -->
                    <div style=""text-align: center; width: 500px;"">
                        <p style=""font-size:25px; line-height:15px;"">
                            angry&nbsp;&nbsp;&nbsp;&nbsp;
                            sad&nbsp;&nbsp;&nbsp;&nbsp;
                            happy&nbsp;&nbsp;&nbsp;&nbsp;
                            fearful&nbsp;&nbsp;&nbsp;&nbsp;
                            disgust
                        </p>
                        <!-- <p style=""font-size:20px; line-height:15px;"">sad</p>
                        <p style=""font-size:20px;line-height:15px;"">happy</p>
                        <p style=""font-size:20px;line-height:15px;"">fearful</p>
                        <p style=""font-size:20px;line-height:15px;"">disgust</p> -->
                    </div>
            

                    <!-- Grid section -->
                   <div style=""display: flex; justify-content: center; padding-top: 15px;"">
                    <div style=""display: grid; grid-template-columns: repeat(10, 55px); grid-gap: 5px; width: auto;"">
                        <img src=""images/map10_viridis_scaleRev_orientMir_000.png"" alt=""map"" style=""width: 100%;""><img src=""images/map27_YlGn_scaleRev_orientDef_000.png"" alt=""map"" style=""width: 100%;""><img src=""images/map05_coolwarm_scaleDef_orientDef_270.png"" alt=""map"" style=""width: 100%;""><img src=""images/map02_PuOr_scaleRev_orientDef_000.png"" alt=""map"" style=""width: 100%;""><img src=""images/map15_Reds_scaleRev_orientDef_000.png"" alt=""map"" style=""width: 100%;""><img src=""images/map12_inferno_scaleRev_orientDef_000.png"" alt=""map"" style=""width: 100%;""><img src=""images/map15_OrRd_scaleDef_orientMir_090.png"" alt=""map"" style=""width: 100%;""><img src=""images/map05_Spectral_scaleDef_orientDef_090.png"" alt=""map"" style=""width: 100%;""><img src=""images/map07_seismic_scaleRev_orientDef_000.png"" alt=""map"" style=""width: 100%;""><img src=""images/map26_BuGn_scaleDef_orientMir_090.png"" alt=""map"" style=""width: 100%;""><img src=""images/map07_berlin_scaleRev_orientDef_180.png"" alt=""map"" style=""width: 100%;""><img src=""images/map07_managua_scaleDef_orientDef_270.png"" alt=""map"" style=""width: 100%;""><img src=""images/map26_PuBu_scaleRev_orientDef_000.png"" alt=""map"" style=""width: 100%;""><img src=""images/map10_turbo_scaleRev_orientDef_180.png"" alt=""map"" style=""width: 100%;""><img src=""images/map27_BrBG_scaleDef_orientMir_090.png"" alt=""map"" style=""width: 100%;""><img src=""images/map15_YlOrBr_scaleRev_orientDef_180.png"" alt=""map"" style=""width: 100%;""><img src=""images/map02_RdGy_scaleDef_orientDef_090.png"" alt=""map"" style=""width: 100%;""><img src=""images/map23_PuRd_scaleRev_orientDef_000.png"" alt=""map"" style=""width: 100%;""><img src=""images/map13_Purples_scaleRev_orientDef_000.png"" alt=""map"" style=""width: 100%;""><img src=""images/map10_plasma_scaleRev_orientMir_180.png"" alt=""map"" style=""width: 100%;""><img src=""images/map10_gist_earth_scaleRev_orientDef_000.png"" alt=""map"" style=""width: 100%;""><img src=""images/map23_GnBu_scaleDef_orientMir_090.png"" alt=""map"" style=""width: 100%;""><img src=""images/map15_YlOrRd_scaleRev_orientMir_000.png"" alt=""map"" style=""width: 100%;""><img src=""images/map07_vanimo_scaleRev_orientMir_180.png"" alt=""map"" style=""width: 100%;""><img src=""images/map05_bwr_scaleDef_orientMir_090.png"" alt=""map"" style=""width: 100%;""><img src=""images/map12_cividis_scaleDef_orientDef_270.png"" alt=""map"" style=""width: 100%;""><img src=""images/map13_Oranges_scaleRev_orientMir_180.png"" alt=""map"" style=""width: 100%;""><img src=""images/map02_RdBu_scaleRev_orientMir_000.png"" alt=""map"" style=""width: 100%;""><img src=""images/map12_Greys_scaleRev_orientMir_180.png"" alt=""map"" style=""width: 100%;""><img src=""images/map27_PiYG_scaleRev_orientDef_180.png"" alt=""map"" style=""width: 100%;""><img src=""images/map26_YlGnBu_scaleRev_orientDef_180.png"" alt=""map"" style=""width: 100%;""><img src=""images/map13_Greens_scaleRev_orientMir_000.png"" alt=""map"" style=""width: 100%;""><img src=""images/map13_Blues_scaleDef_orientDef_090.png"" alt=""map"" style=""width: 100%;""><img src=""images/map23_RdPu_scaleRev_orientDef_180.png"" alt=""map"" style=""width: 100%;""><img src=""images/map12_magma_scaleDef_orientDef_090.png"" alt=""map"" style=""width: 100%;""><img src=""images/map26_PuBuGn_scaleDef_orientDef_270.png"" alt=""map"" style=""width: 100%;""><img src=""images/map02_RdYlBu_scaleRev_orientMir_180.png"" alt=""map"" style=""width: 100%;""><img src=""images/map27_PRGn_scaleDef_orientDef_270.png"" alt=""map"" style=""width: 100%;""><img src=""images/map23_BuPu_scaleDef_orientDef_270.png"" alt=""map"" style=""width: 100%;""><img src=""images/map05_RdYlGn_scaleRev_orientDef_000.png"" alt=""map"" style=""width: 100%;"">
                    </div>
                </div>

                    <!-- Clear floats -->
                    <div style=""clear: both;""></div>
                </div>
                            ","86","","0","true","","","","","","","","","","","","",""
"","","","","","html-button-response","7","45962","0.0-7.0","d29a4cdzd0","27","2248","<div style=""width:800px;""><p style=""text-align:left"">To move the slider, click and drag your cursor to the location of the scale where you would like to make your rating and then let go. When you let go of the slider, your response will be recorded and the next trial will begin. <br>
                    We are interested in your initial impressions of each map for the given concept, so please go with your first intuition. <br>
                    Before you begin the experiment, there will be four training trials for you to practice using the scale. <br>
                     When you are ready to start the training trials, please click ""Continue"".</p><br></div>","0","","","","","","","","","","","","","","","",""
"","","","","","html-slider-response","8","49643","0.0-8.0-0.0","d29a4cdzd0","27","NaN","<div style=""width:500px;"">
                                    <p style=""font-size:25px;"">Please move the slider all the way to the <br> right endpoint of the scale</p>

                                    </div>
                                </div>","200","","0","true","0","true","","","","","","","","","","",""
"","","","","","html-button-response","9","51129","0.0-8.0-1.0","d29a4cdzd0","27","984","<p align='center'><b>Good job!</b> Click on 'Continue' to proceed.</p>","0","","","","","","","","","","","","","","","",""
"","","","","","html-slider-response","10","53559","0.0-9.0-0.0","d29a4cdzd0","27","NaN","<div style=""width:500px;"">
                                    <p style=""font-size:25px;"">Please move the slider all the way to the <br> left endpoint of the scale</p>

                                    </div>
                                </div>","-200","","0","true","1","true","","","","","","","","","","",""
"","","","","","html-button-response","11","55113","0.0-9.0-1.0","d29a4cdzd0","27","1052","<p align='center'><b>Good job!</b> Click on 'Continue' to proceed.</p>","0","","","","","","","","","","","","","","","",""
"","","","","","html-slider-response","12","58606","0.0-10.0-0.0","d29a4cdzd0","27","NaN","<div style=""width:500px;"">
                                    <p style=""font-size:25px;"">Please move the slider halfway between the center and right endpoint of the scale</p>

                                    </div>
                                </div>","101","","0","true","2","true","","","","","","","","","","",""
"","","","","","html-button-response","13","59812","0.0-10.0-1.0","d29a4cdzd0","27","704","<p align='center'><b>Good job!</b> Click on 'Continue' to proceed.</p>","0","","","","","","","","","","","","","","","",""
"","","","","","html-slider-response","14","61190","0.0-11.0-0.0","d29a4cdzd0","27","NaN","<div style=""width:500px;"">
                                    <p style=""font-size:25px;"">Please move the slider halfway between the center and left endpoint of the scale</p>

                                    </div>
                                </div>","-106","","0","true","3","true","","","","","","","","","","",""
"","","","","","html-button-response","15","62413","0.0-11.0-1.0","d29a4cdzd0","27","720","<p align='center'><b>Good job!</b> Click on 'Continue' to proceed.</p>","0","","","","","","","","","","","","","","","",""
"","","","","","html-button-response","16","63580","0.0-12.0","d29a4cdzd0","27","1166","<p>Great job! You've completed the practice trials. Now you will begin the main task.</p>","0","","","","","","","","","","","","","","","",""
"","","","","","html-button-response","17","65346","0.0-13.0","d29a4cdzd0","27","1765","<p>In this block of trials, you will be asked to rate how much you associate each map with:</p > <p style = 'font-size:150%; font-weight: bold'>angry</p><br></br>","0","","","","","","","","","","","","","","","",""
"","","","","","html-slider-response","18","66891","0.0-14.0","d29a4cdzd0","27","NaN","<div style=""width:500px;"">
                            <p style=""font-size:50px; font-weight:bold;""
                            >angry</p>
                            <div style=""width:240px; margin: auto;"">
                                <img src=""images/map15_OrRd_scaleDef_orientMir_090.png"" style= ""width:200px""alt=""img"">
                            </div>
                        </div>","156","","0","","","","images/map15_OrRd_scaleDef_orientMir_090.png","angry","1","15","15","OrRd","orientMir","scaleDef","090","",""
"","","","","","html-slider-response","19","68723","0.0-15.0","d29a4cdzd0","27","NaN","<div style=""width:500px;"">
                            <p style=""font-size:50px; font-weight:bold;""
                            >angry</p>
                            <div style=""width:240px; margin: auto;"">
                                <img src=""images/map23_RdPu_scaleRev_orientDef_180.png"" style= ""width:200px""alt=""img"">
                            </div>
                        </div>","47","","0","","","","images/map23_RdPu_scaleRev_orientDef_180.png","angry","1","23","23","RdPu","orientDef","scaleRev","180","",""
"","","","","","html-slider-response","20","71157","0.0-16.0","d29a4cdzd0","27","NaN","<div style=""width:500px;"">
                            <p style=""font-size:50px; font-weight:bold;""
                            >angry</p>
                            <div style=""width:240px; margin: auto;"">
                                <img src=""images/map07_managua_scaleDef_orientDef_270.png"" style= ""width:200px""alt=""img"">
                            </div>
                        </div>","31","","0","","","","images/map07_managua_scaleDef_orientDef_270.png","angry","1","07","07","managua","orientDef","scaleDef","270","",""
"","","","","","html-slider-response","21","72857","0.0-17.0","d29a4cdzd0","27","NaN","<div style=""width:500px;"">
                            <p style=""font-size:50px; font-weight:bold;""
                            >angry</p>
                            <div style=""width:240px; margin: auto;"">
                                <img src=""images/map23_BuPu_scaleRev_orientMir_000.png"" style= ""width:200px""alt=""img"">
                            </div>
                        </div>","-30","","0","","","","images/map23_BuPu_scaleRev_orientMir_000.png","angry","1","23","23","BuPu","orientMir","scaleRev","000","",""
"","","","","","html-slider-response","22","74507","0.0-18.0","d29a4cdzd0","27","NaN","<div style=""width:500px;"">
                            <p style=""font-size:50px; font-weight:bold;""
                            >angry</p>
                            <div style=""width:240px; margin: auto;"">
                                <img src=""images/map05_bwr_scaleDef_orientMir_090.png"" style= ""width:200px""alt=""img"">
                            </div>
                        </div>","34","","0","","","","images/map05_bwr_scaleDef_orientMir_090.png","angry","1","05","05","bwr","orientMir","scaleDef","090","",""
"","","","","","html-slider-response","23","75774","0.0-19.0","d29a4cdzd0","27","NaN","<div style=""width:500px;"">
                            <p style=""font-size:50px; font-weight:bold;""
                            >angry</p>
                            <div style=""width:240px; margin: auto;"">
                                <img src=""images/map05_bwr_scaleRev_orientMir_180.png"" style= ""width:200px""alt=""img"">
                            </div>
                        </div>","34","","0","","","","images/map05_bwr_scaleRev_orientMir_180.png","angry","1","05","05","bwr","orientMir","scaleRev","180","",""
"","","","","","html-slider-response","24","77540","0.0-20.0","d29a4cdzd0","27","NaN","<div style=""width:500px;"">
                            <p style=""font-size:50px; font-weight:bold;""
                            >angry</p>
                            <div style=""width:240px; margin: auto;"">
                                <img src=""images/map15_YlOrRd_scaleDef_orientDef_270.png"" style= ""width:200px""alt=""img"">
                            </div>
                        </div>","193","","0","","","","images/map15_YlOrRd_scaleDef_orientDef_270.png","angry","1","15","15","YlOrRd","orientDef","scaleDef","270","",""
"","","","","","html-slider-response","25","78940","0.0-21.0","d29a4cdzd0","27","NaN","<div style=""width:500px;"">
                            <p style=""font-size:50px; font-weight:bold;""
                            >angry</p>
                            <div style=""width:240px; margin: auto;"">
                                <img src=""images/map15_YlOrBr_scaleDef_orientDef_090.png"" style= ""width:200px""alt=""img"">
                            </div>
                        </div>","97","","0","","","","images/map15_YlOrBr_scaleDef_orientDef_090.png","angry","1","15","15","YlOrBr","orientDef","scaleDef","090","",""
"","","","","","html-slider-response","26","81957","0.0-22.0","d29a4cdzd0","27","NaN","<div style=""width:500px;"">
                            <p style=""font-size:50px; font-weight:bold;""
                            >angry</p>
                            <div style=""width:240px; margin: auto;"">
                                <img src=""images/map10_viridis_scaleRev_orientMir_000.png"" style= ""width:200px""alt=""img"">
                            </div>
                        </div>","-144","","0","","","","images/map10_viridis_scaleRev_orientMir_000.png","angry","1","10","10","viridis","orientMir","scaleRev","000","",""
"","","","","","html-slider-response","27","83774","0.0-23.0","d29a4cdzd0","27","NaN","<div style=""width:500px;"">
                            <p style=""font-size:50px; font-weight:bold;""
                            >angry</p>
                            <div style=""width:240px; margin: auto;"">
                                <img src=""images/map10_plasma_scaleRev_orientMir_180.png"" style= ""width:200px""alt=""img"">
                            </div>
                        </div>","102","","0","","","","images/map10_plasma_scaleRev_orientMir_180.png","angry","1","10","10","plasma","orientMir","scaleRev","180","",""
"","","","","","html-slider-response","28","85307","0.0-24.0","d29a4cdzd0","27","NaN","<div style=""width:500px;"">
                            <p style=""font-size:50px; font-weight:bold;""
                            >angry</p>
                            <div style=""width:240px; margin: auto;"">
                                <img src=""images/map27_PiYG_scaleRev_orientDef_180.png"" style= ""width:200px""alt=""img"">
                            </div>
                        </div>","-59","","0","","","","images/map27_PiYG_scaleRev_orientDef_180.png","angry","1","27","27","PiYG","orientDef","scaleRev","180","",""
"","","","","","html-slider-response","29","86557","0.0-25.0","d29a4cdzd0","27","NaN","<div style=""width:500px;"">
                            <p style=""font-size:50px; font-weight:bold;""
                            >angry</p>
                            <div style=""width:240px; margin: auto;"">
                                <img src=""images/map05_RdYlGn_scaleRev_orientDef_000.png"" style= ""width:200px""alt=""img"">
                            </div>
                        </div>","-49","","0","","","","images/map05_RdYlGn_scaleRev_orientDef_000.png","angry","1","05","05","RdYlGn","orientDef","scaleRev","000","",""
"","","","","","html-slider-response","30","87707","0.0-26.0","d29a4cdzd0","27","NaN","<div style=""width:500px;"">
                            <p style=""font-size:50px; font-weight:bold;""
                            >angry</p>
                            <div style=""width:240px; margin: auto;"">
                                <img src=""images/map26_BuGn_scaleRev_orientMir_180.png"" style= ""width:200px""alt=""img"">
                            </div>
                        </div>","-35","","0","","","","images/map26_BuGn_scaleRev_orientMir_180.png","angry","1","26","26","BuGn","orientMir","scaleRev","180","",""
"","","","","","html-slider-response","31","89258","0.0-27.0","d29a4cdzd0","27","NaN","<div style=""width:500px;"">
                            <p style=""font-size:50px; font-weight:bold;""
                            >angry</p>
                            <div style=""width:240px; margin: auto;"">
                                <img src=""images/map02_RdBu_scaleDef_orientDef_270.png"" style= ""width:200px""alt=""img"">
                            </div>
                        </div>","-1","","0","","","","images/map02_RdBu_scaleDef_orientDef_270.png","angry","1","02","02","RdBu","orientDef","scaleDef","270","",""
"","","","","","html-slider-response","32","90524","0.0-28.0","d29a4cdzd0","27","NaN","<div style=""width:500px;"">
                            <p style=""font-size:50px; font-weight:bold;""
                            >angry</p>
                            <div style=""width:240px; margin: auto;"">
                                <img src=""images/map02_RdGy_scaleDef_orientDef_090.png"" style= ""width:200px""alt=""img"">
                            </div>
                        </div>","-4","","0","","","","images/map02_RdGy_scaleDef_orientDef_090.png","angry","1","02","02","RdGy","orientDef","scaleDef","090","",""
"","","","","","html-slider-response","33","92040","0.0-29.0","d29a4cdzd0","27","NaN","<div style=""width:500px;"">
                            <p style=""font-size:50px; font-weight:bold;""
                            >angry</p>
                            <div style=""width:240px; margin: auto;"">
                                <img src=""images/map23_GnBu_scaleDef_orientMir_090.png"" style= ""width:200px""alt=""img"">
                            </div>
                        </div>","-79","","0","","","","images/map23_GnBu_scaleDef_orientMir_090.png","angry","1","23","23","GnBu","orientMir","scaleDef","090","",""
"","","","","","html-slider-response","34","93291","0.0-30.0","d29a4cdzd0","27","NaN","<div style=""width:500px;"">
                            <p style=""font-size:50px; font-weight:bold;""
                            >angry</p>
                            <div style=""width:240px; margin: auto;"">
                                <img src=""images/map26_YlGnBu_scaleDef_orientDef_090.png"" style= ""width:200px""alt=""img"">
                            </div>
                        </div>","-79","","0","","","","images/map26_YlGnBu_scaleDef_orientDef_090.png","angry","1","26","26","YlGnBu","orientDef","scaleDef","090","",""
"","","","","","html-slider-response","35","97140","0.0-31.0","d29a4cdzd0","27","NaN","<div style=""width:500px;"">
                            <p style=""font-size:50px; font-weight:bold;""
                            >angry</p>
                            <div style=""width:240px; margin: auto;"">
                                <img src=""images/map10_inferno_scaleDef_orientMir_270.png"" style= ""width:200px""alt=""img"">
                            </div>
                        </div>","34","","0","","","","images/map10_inferno_scaleDef_orientMir_270.png","angry","1","10","10","inferno","orientMir","scaleDef","270","",""
"","","","","","html-slider-response","36","98406","0.0-32.0","d29a4cdzd0","27","NaN","<div style=""width:500px;"">
                            <p style=""font-size:50px; font-weight:bold;""
                            >angry</p>
                            <div style=""width:240px; margin: auto;"">
                                <img src=""images/map26_PuBuGn_scaleRev_orientMir_000.png"" style= ""width:200px""alt=""img"">
                            </div>
                        </div>","-96","","0","","","","images/map26_PuBuGn_scaleRev_orientMir_000.png","angry","1","26","26","PuBuGn","orientMir","scaleRev","000","",""
"","","","","","html-slider-response","37","99573","0.0-33.0","d29a4cdzd0","27","NaN","<div style=""width:500px;"">
                            <p style=""font-size:50px; font-weight:bold;""
                            >angry</p>
                            <div style=""width:240px; margin: auto;"">
                                <img src=""images/map07_gist_earth_scaleDef_orientMir_270.png"" style= ""width:200px""alt=""img"">
                            </div>
                        </div>","-74","","0","","","","images/map07_gist_earth_scaleDef_orientMir_270.png","angry","1","07","07","gist","scaleDef","earth","orientMir","",""
"","","","","","html-slider-response","38","100690","0.0-34.0","d29a4cdzd0","27","NaN","<div style=""width:500px;"">
                            <p style=""font-size:50px; font-weight:bold;""
                            >angry</p>
                            <div style=""width:240px; margin: auto;"">
                                <img src=""images/map13_Blues_scaleDef_orientDef_090.png"" style= ""width:200px""alt=""img"">
                            </div>
                        </div>","-43","","0","","","","images/map13_Blues_scaleDef_orientDef_090.png","angry","1","13","13","Blues","orientDef","scaleDef","090","",""
"","","","","","html-slider-response","39","101807","0.0-35.0","d29a4cdzd0","27","NaN","<div style=""width:500px;"">
                            <p style=""font-size:50px; font-weight:bold;""
                            >angry</p>
                            <div style=""width:240px; margin: auto;"">
                                <img src=""images/map13_Greens_scaleRev_orientMir_000.png"" style= ""width:200px""alt=""img"">
                            </div>
                        </div>","-119","","0","","","","images/map13_Greens_scaleRev_orientMir_000.png","angry","1","13","13","Greens","orientMir","scaleRev","000","",""
"","","","","","html-slider-response","40","103074","0.0-36.0","d29a4cdzd0","27","NaN","<div style=""width:500px;"">
                            <p style=""font-size:50px; font-weight:bold;""
                            >angry</p>
                            <div style=""width:240px; margin: auto;"">
                                <img src=""images/map15_YlOrRd_scaleRev_orientMir_000.png"" style= ""width:200px""alt=""img"">
                            </div>
                        </div>","99","","0","","","","images/map15_YlOrRd_scaleRev_orientMir_000.png","angry","1","15","15","YlOrRd","orientMir","scaleRev","000","",""
"","","","","","html-slider-response","41","104423","0.0-37.0","d29a4cdzd0","27","NaN","<div style=""width:500px;"">
                            <p style=""font-size:50px; font-weight:bold;""
                            >angry</p>
                            <div style=""width:240px; margin: auto;"">
                                <img src=""images/map26_PuBuGn_scaleDef_orientDef_270.png"" style= ""width:200px""alt=""img"">
                            </div>
                        </div>","-135","","0","","","","images/map26_PuBuGn_scaleDef_orientDef_270.png","angry","1","26","26","PuBuGn","orientDef","scaleDef","270","",""
"","","","","","html-slider-response","42","105690","0.0-38.0","d29a4cdzd0","27","NaN","<div style=""width:500px;"">
                            <p style=""font-size:50px; font-weight:bold;""
                            >angry</p>
                            <div style=""width:240px; margin: auto;"">
                                <img src=""images/map10_gist_earth_scaleRev_orientDef_000.png"" style= ""width:200px""alt=""img"">
                            </div>
                        </div>","-38","","0","","","","images/map10_gist_earth_scaleRev_orientDef_000.png","angry","1","10","10","gist","scaleRev","earth","orientDef","",""
"","","","","","html-slider-response","43","106908","0.0-39.0","d29a4cdzd0","27","NaN","<div style=""width:500px;"">
                            <p style=""font-size:50px; font-weight:bold;""
                            >angry</p>
                            <div style=""width:240px; margin: auto;"">
                                <img src=""images/map02_RdBu_scaleRev_orientMir_000.png"" style= ""width:200px""alt=""img"">
                            </div>
                        </div>","133","","0","","","","images/map02_RdBu_scaleRev_orientMir_000.png","angry","1","02","02","RdBu","orientMir","scaleRev","000","",""
"","","","","","html-slider-response","44","107924","0.0-40.0","d29a4cdzd0","27","NaN","<div style=""width:500px;"">
                            <p style=""font-size:50px; font-weight:bold;""
                            >angry</p>
                            <div style=""width:240px; margin: auto;"">
                                <img src=""images/map15_YlOrBr_scaleRev_orientDef_180.png"" style= ""width:200px""alt=""img"">
                            </div>
                        </div>","44","","0","","","","images/map15_YlOrBr_scaleRev_orientDef_180.png","angry","1","15","15","YlOrBr","orientDef","scaleRev","180","",""
"","","","","","html-slider-response","45","109107","0.0-41.0","d29a4cdzd0","27","NaN","<div style=""width:500px;"">
                            <p style=""font-size:50px; font-weight:bold;""
                            >angry</p>
                            <div style=""width:240px; margin: auto;"">
                                <img src=""images/map27_BrBG_scaleDef_orientMir_090.png"" style= ""width:200px""alt=""img"">
                            </div>
                        </div>","-30","","0","","","","images/map27_BrBG_scaleDef_orientMir_090.png","angry","1","27","27","BrBG","orientMir","scaleDef","090","",""
"","","","","","html-slider-response","46","110490","0.0-42.0","d29a4cdzd0","27","NaN","<div style=""width:500px;"">
                            <p style=""font-size:50px; font-weight:bold;""
                            >angry</p>
                            <div style=""width:240px; margin: auto;"">
                                <img src=""images/map07_berlin_scaleDef_orientDef_090.png"" style= ""width:200px""alt=""img"">
                            </div>
                        </div>","64","","0","","","","images/map07_berlin_scaleDef_orientDef_090.png","angry","1","07","07","berlin","orientDef","scaleDef","090","",""
"","","","","","html-slider-response","47","111657","0.0-43.0","d29a4cdzd0","27","NaN","<div style=""width:500px;"">
                            <p style=""font-size:50px; font-weight:bold;""
                            >angry</p>
                            <div style=""width:240px; margin: auto;"">
                                <img src=""images/map07_berlin_scaleRev_orientDef_180.png"" style= ""width:200px""alt=""img"">
                            </div>
                        </div>","47","","0","","","","images/map07_berlin_scaleRev_orientDef_180.png","angry","1","07","07","berlin","orientDef","scaleRev","180","",""
"","","","","","html-slider-response","48","113190","0.0-44.0","d29a4cdzd0","27","NaN","<div style=""width:500px;"">
                            <p style=""font-size:50px; font-weight:bold;""
                            >angry</p>
                            <div style=""width:240px; margin: auto;"">
                                <img src=""images/map15_Reds_scaleRev_orientDef_000.png"" style= ""width:200px""alt=""img"">
                            </div>
                        </div>","142","","0","","","","images/map15_Reds_scaleRev_orientDef_000.png","angry","1","15","15","Reds","orientDef","scaleRev","000","",""
"","","","","","html-slider-response","49","114507","0.0-45.0","d29a4cdzd0","27","NaN","<div style=""width:500px;"">
                            <p style=""font-size:50px; font-weight:bold;""
                            >angry</p>
                            <div style=""width:240px; margin: auto;"">
                                <img src=""images/map26_BuGn_scaleDef_orientMir_090.png"" style= ""width:200px""alt=""img"">
                            </div>
                        </div>","-111","","0","","","","images/map26_BuGn_scaleDef_orientMir_090.png","angry","1","26","26","BuGn","orientMir","scaleDef","090","",""
"","","","","","html-slider-response","50","115890","0.0-46.0","d29a4cdzd0","27","NaN","<div style=""width:500px;"">
                            <p style=""font-size:50px; font-weight:bold;""
                            >angry</p>
                            <div style=""width:240px; margin: auto;"">
                                <img src=""images/map23_RdPu_scaleDef_orientDef_090.png"" style= ""width:200px""alt=""img"">
                            </div>
                        </div>","70","","0","","","","images/map23_RdPu_scaleDef_orientDef_090.png","angry","1","23","23","RdPu","orientDef","scaleDef","090","",""
"","","","","","html-slider-response","51","117241","0.0-47.0","d29a4cdzd0","27","NaN","<div style=""width:500px;"">
                            <p style=""font-size:50px; font-weight:bold;""
                            >angry</p>
                            <div style=""width:240px; margin: auto;"">
                                <img src=""images/map13_Purples_scaleRev_orientDef_000.png"" style= ""width:200px""alt=""img"">
                            </div>
                        </div>","-58","","0","","","","images/map13_Purples_scaleRev_orientDef_000.png","angry","1","13","13","Purples","orientDef","scaleRev","000","",""
"","","","","","html-slider-response","52","118407","0.0-48.0","d29a4cdzd0","27","NaN","<div style=""width:500px;"">
                            <p style=""font-size:50px; font-weight:bold;""
                            >angry</p>
                            <div style=""width:240px; margin: auto;"">
                                <img src=""images/map07_vanimo_scaleRev_orientMir_180.png"" style= ""width:200px""alt=""img"">
                            </div>
                        </div>","-62","","0","","","","images/map07_vanimo_scaleRev_orientMir_180.png","angry","1","07","07","vanimo","orientMir","scaleRev","180","",""
"","","","","","html-slider-response","53","119640","0.0-49.0","d29a4cdzd0","27","NaN","<div style=""width:500px;"">
                            <p style=""font-size:50px; font-weight:bold;""
                            >angry</p>
                            <div style=""width:240px; margin: auto;"">
                                <img src=""images/map05_coolwarm_scaleDef_orientDef_270.png"" style= ""width:200px""alt=""img"">
                            </div>
                        </div>","88","","0","","","","images/map05_coolwarm_scaleDef_orientDef_270.png","angry","1","05","05","coolwarm","orientDef","scaleDef","270","",""
"","","","","","html-slider-response","54","120990","0.0-50.0","d29a4cdzd0","27","NaN","<div style=""width:500px;"">
                            <p style=""font-size:50px; font-weight:bold;""
                            >angry</p>
                            <div style=""width:240px; margin: auto;"">
                                <img src=""images/map02_RdGy_scaleRev_orientDef_180.png"" style= ""width:200px""alt=""img"">
                            </div>
                        </div>","35","","0","","","","images/map02_RdGy_scaleRev_orientDef_180.png","angry","1","02","02","RdGy","orientDef","scaleRev","180","",""
"","","","","","html-slider-response","55","122074","0.0-51.0","d29a4cdzd0","27","NaN","<div style=""width:500px;"">
                            <p style=""font-size:50px; font-weight:bold;""
                            >angry</p>
                            <div style=""width:240px; margin: auto;"">
                                <img src=""images/map12_Greys_scaleRev_orientMir_180.png"" style= ""width:200px""alt=""img"">
                            </div>
                        </div>","-44","","0","","","","images/map12_Greys_scaleRev_orientMir_180.png","angry","1","12","12","Greys","orientMir","scaleRev","180","",""
"","","","","","html-slider-response","56","123440","0.0-52.0","d29a4cdzd0","27","NaN","<div style=""width:500px;"">
                            <p style=""font-size:50px; font-weight:bold;""
                            >angry</p>
                            <div style=""width:240px; margin: auto;"">
                                <img src=""images/map13_Blues_scaleRev_orientDef_180.png"" style= ""width:200px""alt=""img"">
                            </div>
                        </div>","-72","","0","","","","images/map13_Blues_scaleRev_orientDef_180.png","angry","1","13","13","Blues","orientDef","scaleRev","180","",""
"","","","","","html-slider-response","57","124524","0.0-53.0","d29a4cdzd0","27","NaN","<div style=""width:500px;"">
                            <p style=""font-size:50px; font-weight:bold;""
                            >angry</p>
                            <div style=""width:240px; margin: auto;"">
                                <img src=""images/map07_vanimo_scaleDef_orientMir_090.png"" style= ""width:200px""alt=""img"">
                            </div>
                        </div>","-122","","0","","","","images/map07_vanimo_scaleDef_orientMir_090.png","angry","1","07","07","vanimo","orientMir","scaleDef","090","",""
"","","","","","html-button-response","58","126012","0.0-54.0","d29a4cdzd0","27","987","<p>You are doing great!<br></br> You are halway done with the current block. When you are ready to continue, click the 'Continue' button.</p>","0","","","","","","","","","","","","","","","",""
"","","","","","html-slider-response","59","127257","0.0-55.0","d29a4cdzd0","27","NaN","<div style=""width:500px;"">
                            <p style=""font-size:50px; font-weight:bold;""
                            >angry</p>
                            <div style=""width:240px; margin: auto;"">
                                <img src=""images/map27_PRGn_scaleDef_orientDef_270.png"" style= ""width:200px""alt=""img"">
                            </div>
                        </div>","-89","","0","","","","images/map27_PRGn_scaleDef_orientDef_270.png","angry","1","27","27","PRGn","orientDef","scaleDef","270","",""
"","","","","","html-slider-response","60","128556","0.0-56.0","d29a4cdzd0","27","NaN","<div style=""width:500px;"">
                            <p style=""font-size:50px; font-weight:bold;""
                            >angry</p>
                            <div style=""width:240px; margin: auto;"">
                                <img src=""images/map05_Spectral_scaleDef_orientDef_090.png"" style= ""width:200px""alt=""img"">
                            </div>
                        </div>","106","","0","","","","images/map05_Spectral_scaleDef_orientDef_090.png","angry","1","05","05","Spectral","orientDef","scaleDef","090","",""
"","","","","","html-slider-response","61","129640","0.0-57.0","d29a4cdzd0","27","NaN","<div style=""width:500px;"">
                            <p style=""font-size:50px; font-weight:bold;""
                            >angry</p>
                            <div style=""width:240px; margin: auto;"">
                                <img src=""images/map02_RdYlBu_scaleRev_orientMir_180.png"" style= ""width:200px""alt=""img"">
                            </div>
                        </div>","40","","0","","","","images/map02_RdYlBu_scaleRev_orientMir_180.png","angry","1","02","02","RdYlBu","orientMir","scaleRev","180","",""
"","","","","","html-slider-response","62","130790","0.0-58.0","d29a4cdzd0","27","NaN","<div style=""width:500px;"">
                            <p style=""font-size:50px; font-weight:bold;""
                            >angry</p>
                            <div style=""width:240px; margin: auto;"">
                                <img src=""images/map27_PiYG_scaleDef_orientDef_090.png"" style= ""width:200px""alt=""img"">
                            </div>
                        </div>","-67","","0","","","","images/map27_PiYG_scaleDef_orientDef_090.png","angry","1","27","27","PiYG","orientDef","scaleDef","090","",""
"","","","","","html-slider-response","63","132140","0.0-59.0","d29a4cdzd0","27","NaN","<div style=""width:500px;"">
                            <p style=""font-size:50px; font-weight:bold;""
                            >angry</p>
                            <div style=""width:240px; margin: auto;"">
                                <img src=""images/map05_seismic_scaleDef_orientMir_270.png"" style= ""width:200px""alt=""img"">
                            </div>
                        </div>","39","","0","","","","images/map05_seismic_scaleDef_orientMir_270.png","angry","1","05","05","seismic","orientMir","scaleDef","270","",""
"","","","","","html-slider-response","64","133590","0.0-60.0","d29a4cdzd0","27","NaN","<div style=""width:500px;"">
                            <p style=""font-size:50px; font-weight:bold;""
                            >angry</p>
                            <div style=""width:240px; margin: auto;"">
                                <img src=""images/map02_RdYlGn_scaleDef_orientMir_270.png"" style= ""width:200px""alt=""img"">
                            </div>
                        </div>","28","","0","","","","images/map02_RdYlGn_scaleDef_orientMir_270.png","angry","1","02","02","RdYlGn","orientMir","scaleDef","270","",""
"","","","","","html-slider-response","65","135240","0.0-61.0","d29a4cdzd0","27","NaN","<div style=""width:500px;"">
                            <p style=""font-size:50px; font-weight:bold;""
                            >angry</p>
                            <div style=""width:240px; margin: auto;"">
                                <img src=""images/map10_plasma_scaleDef_orientMir_090.png"" style= ""width:200px""alt=""img"">
                            </div>
                        </div>","88","","0","","","","images/map10_plasma_scaleDef_orientMir_090.png","angry","1","10","10","plasma","orientMir","scaleDef","090","",""
"","","","","","html-slider-response","66","136440","0.0-62.0","d29a4cdzd0","27","NaN","<div style=""width:500px;"">
                            <p style=""font-size:50px; font-weight:bold;""
                            >angry</p>
                            <div style=""width:240px; margin: auto;"">
                                <img src=""images/map26_PuBu_scaleRev_orientDef_000.png"" style= ""width:200px""alt=""img"">
                            </div>
                        </div>","-86","","0","","","","images/map26_PuBu_scaleRev_orientDef_000.png","angry","1","26","26","PuBu","orientDef","scaleRev","000","",""
"","","","","","html-slider-response","67","138091","0.0-63.0","d29a4cdzd0","27","NaN","<div style=""width:500px;"">
                            <p style=""font-size:50px; font-weight:bold;""
                            >angry</p>
                            <div style=""width:240px; margin: auto;"">
                                <img src=""images/map02_PuOr_scaleRev_orientDef_000.png"" style= ""width:200px""alt=""img"">
                            </div>
                        </div>","65","","0","","","","images/map02_PuOr_scaleRev_orientDef_000.png","angry","1","02","02","PuOr","orientDef","scaleRev","000","",""
"","","","","","html-slider-response","68","139307","0.0-64.0","d29a4cdzd0","27","NaN","<div style=""width:500px;"">
                            <p style=""font-size:50px; font-weight:bold;""
                            >angry</p>
                            <div style=""width:240px; margin: auto;"">
                                <img src=""images/map27_YlGn_scaleRev_orientDef_000.png"" style= ""width:200px""alt=""img"">
                            </div>
                        </div>","-55","","0","","","","images/map27_YlGn_scaleRev_orientDef_000.png","angry","1","27","27","YlGn","orientDef","scaleRev","000","",""
"","","","","","html-slider-response","69","141240","0.0-65.0","d29a4cdzd0","27","NaN","<div style=""width:500px;"">
                            <p style=""font-size:50px; font-weight:bold;""
                            >angry</p>
                            <div style=""width:240px; margin: auto;"">
                                <img src=""images/map15_PuRd_scaleDef_orientMir_270.png"" style= ""width:200px""alt=""img"">
                            </div>
                        </div>","-31","","0","","","","images/map15_PuRd_scaleDef_orientMir_270.png","angry","1","15","15","PuRd","orientMir","scaleDef","270","",""
"","","","","","html-slider-response","70","142690","0.0-66.0","d29a4cdzd0","27","NaN","<div style=""width:500px;"">
                            <p style=""font-size:50px; font-weight:bold;""
                            >angry</p>
                            <div style=""width:240px; margin: auto;"">
                                <img src=""images/map13_Reds_scaleDef_orientMir_270.png"" style= ""width:200px""alt=""img"">
                            </div>
                        </div>","56","","0","","","","images/map13_Reds_scaleDef_orientMir_270.png","angry","1","13","13","Reds","orientMir","scaleDef","270","",""
"","","","","","html-slider-response","71","143956","0.0-67.0","d29a4cdzd0","27","NaN","<div style=""width:500px;"">
                            <p style=""font-size:50px; font-weight:bold;""
                            >angry</p>
                            <div style=""width:240px; margin: auto;"">
                                <img src=""images/map13_Oranges_scaleDef_orientMir_090.png"" style= ""width:200px""alt=""img"">
                            </div>
                        </div>","123","","0","","","","images/map13_Oranges_scaleDef_orientMir_090.png","angry","1","13","13","Oranges","orientMir","scaleDef","090","",""
"","","","","","html-slider-response","72","145257","0.0-68.0","d29a4cdzd0","27","NaN","<div style=""width:500px;"">
                            <p style=""font-size:50px; font-weight:bold;""
                            >angry</p>
                            <div style=""width:240px; margin: auto;"">
                                <img src=""images/map05_coolwarm_scaleRev_orientMir_000.png"" style= ""width:200px""alt=""img"">
                            </div>
                        </div>","-60","","0","","","","images/map05_coolwarm_scaleRev_orientMir_000.png","angry","1","05","05","coolwarm","orientMir","scaleRev","000","",""
"","","","","","html-slider-response","73","146341","0.0-69.0","d29a4cdzd0","27","NaN","<div style=""width:500px;"">
                            <p style=""font-size:50px; font-weight:bold;""
                            >angry</p>
                            <div style=""width:240px; margin: auto;"">
                                <img src=""images/map23_GnBu_scaleRev_orientMir_180.png"" style= ""width:200px""alt=""img"">
                            </div>
                        </div>","67","","0","","","","images/map23_GnBu_scaleRev_orientMir_180.png","angry","1","23","23","GnBu","orientMir","scaleRev","180","",""
"","","","","","html-slider-response","74","148074","0.0-70.0","d29a4cdzd0","27","NaN","<div style=""width:500px;"">
                            <p style=""font-size:50px; font-weight:bold;""
                            >angry</p>
                            <div style=""width:240px; margin: auto;"">
                                <img src=""images/map23_PuRd_scaleRev_orientDef_000.png"" style= ""width:200px""alt=""img"">
                            </div>
                        </div>","-13","","0","","","","images/map23_PuRd_scaleRev_orientDef_000.png","angry","1","23","23","PuRd","orientDef","scaleRev","000","",""
"","","","","","html-slider-response","75","149357","0.0-71.0","d29a4cdzd0","27","NaN","<div style=""width:500px;"">
                            <p style=""font-size:50px; font-weight:bold;""
                            >angry</p>
                            <div style=""width:240px; margin: auto;"">
                                <img src=""images/map27_BrBG_scaleRev_orientMir_180.png"" style= ""width:200px""alt=""img"">
                            </div>
                        </div>","-11","","0","","","","images/map27_BrBG_scaleRev_orientMir_180.png","angry","1","27","27","BrBG","orientMir","scaleRev","180","",""
"","","","","","html-slider-response","76","150556","0.0-72.0","d29a4cdzd0","27","NaN","<div style=""width:500px;"">
                            <p style=""font-size:50px; font-weight:bold;""
                            >angry</p>
                            <div style=""width:240px; margin: auto;"">
                                <img src=""images/map23_BuPu_scaleDef_orientDef_270.png"" style= ""width:200px""alt=""img"">
                            </div>
                        </div>","-31","","0","","","","images/map23_BuPu_scaleDef_orientDef_270.png","angry","1","23","23","BuPu","orientDef","scaleDef","270","",""
"","","","","","html-slider-response","77","151873","0.0-73.0","d29a4cdzd0","27","NaN","<div style=""width:500px;"">
                            <p style=""font-size:50px; font-weight:bold;""
                            >angry</p>
                            <div style=""width:240px; margin: auto;"">
                                <img src=""images/map12_magma_scaleDef_orientDef_090.png"" style= ""width:200px""alt=""img"">
                            </div>
                        </div>","105","","0","","","","images/map12_magma_scaleDef_orientDef_090.png","angry","1","12","12","magma","orientDef","scaleDef","090","",""
"","","","","","html-slider-response","78","152957","0.0-74.0","d29a4cdzd0","27","NaN","<div style=""width:500px;"">
                            <p style=""font-size:50px; font-weight:bold;""
                            >angry</p>
                            <div style=""width:240px; margin: auto;"">
                                <img src=""images/map12_cividis_scaleRev_orientMir_000.png"" style= ""width:200px""alt=""img"">
                            </div>
                        </div>","-39","","0","","","","images/map12_cividis_scaleRev_orientMir_000.png","angry","1","12","12","cividis","orientMir","scaleRev","000","",""
"","","","","","html-slider-response","79","154140","0.0-75.0","d29a4cdzd0","27","NaN","<div style=""width:500px;"">
                            <p style=""font-size:50px; font-weight:bold;""
                            >angry</p>
                            <div style=""width:240px; margin: auto;"">
                                <img src=""images/map13_Greens_scaleDef_orientDef_270.png"" style= ""width:200px""alt=""img"">
                            </div>
                        </div>","-31","","0","","","","images/map13_Greens_scaleDef_orientDef_270.png","angry","1","13","13","Greens","orientDef","scaleDef","270","",""
"","","","","","html-slider-response","80","155273","0.0-76.0","d29a4cdzd0","27","NaN","<div style=""width:500px;"">
                            <p style=""font-size:50px; font-weight:bold;""
                            >angry</p>
                            <div style=""width:240px; margin: auto;"">
                                <img src=""images/map12_Purples_scaleDef_orientMir_270.png"" style= ""width:200px""alt=""img"">
                            </div>
                        </div>","-131","","0","","","","images/map12_Purples_scaleDef_orientMir_270.png","angry","1","12","12","Purples","orientMir","scaleDef","270","",""
"","","","","","html-slider-response","81","156641","0.0-77.0","d29a4cdzd0","27","NaN","<div style=""width:500px;"">
                            <p style=""font-size:50px; font-weight:bold;""
                            >angry</p>
                            <div style=""width:240px; margin: auto;"">
                                <img src=""images/map02_RdYlBu_scaleDef_orientMir_090.png"" style= ""width:200px""alt=""img"">
                            </div>
                        </div>","23","","0","","","","images/map02_RdYlBu_scaleDef_orientMir_090.png","angry","1","02","02","RdYlBu","orientMir","scaleDef","090","",""
"","","","","","html-slider-response","82","157924","0.0-78.0","d29a4cdzd0","27","NaN","<div style=""width:500px;"">
                            <p style=""font-size:50px; font-weight:bold;""
                            >angry</p>
                            <div style=""width:240px; margin: auto;"">
                                <img src=""images/map05_Spectral_scaleRev_orientDef_180.png"" style= ""width:200px""alt=""img"">
                            </div>
                        </div>","-2","","0","","","","images/map05_Spectral_scaleRev_orientDef_180.png","angry","1","05","05","Spectral","orientDef","scaleRev","180","",""
"","","","","","html-slider-response","83","159490","0.0-79.0","d29a4cdzd0","27","NaN","<div style=""width:500px;"">
                            <p style=""font-size:50px; font-weight:bold;""
                            >angry</p>
                            <div style=""width:240px; margin: auto;"">
                                <img src=""images/map13_Oranges_scaleRev_orientMir_180.png"" style= ""width:200px""alt=""img"">
                            </div>
                        </div>","101","","0","","","","images/map13_Oranges_scaleRev_orientMir_180.png","angry","1","13","13","Oranges","orientMir","scaleRev","180","",""
"","","","","","html-slider-response","84","160640","0.0-80.0","d29a4cdzd0","27","NaN","<div style=""width:500px;"">
                            <p style=""font-size:50px; font-weight:bold;""
                            >angry</p>
                            <div style=""width:240px; margin: auto;"">
                                <img src=""images/map23_PuBu_scaleDef_orientMir_270.png"" style= ""width:200px""alt=""img"">
                            </div>
                        </div>","-75","","0","","","","images/map23_PuBu_scaleDef_orientMir_270.png","angry","1","23","23","PuBu","orientMir","scaleDef","270","",""
"","","","","","html-slider-response","85","162640","0.0-81.0","d29a4cdzd0","27","NaN","<div style=""width:500px;"">
                            <p style=""font-size:50px; font-weight:bold;""
                            >angry</p>
                            <div style=""width:240px; margin: auto;"">
                                <img src=""images/map07_managua_scaleRev_orientMir_000.png"" style= ""width:200px""alt=""img"">
                            </div>
                        </div>","14","","0","","","","images/map07_managua_scaleRev_orientMir_000.png","angry","1","07","07","managua","orientMir","scaleRev","000","",""
"","","","","","html-slider-response","86","163857","0.0-82.0","d29a4cdzd0","27","NaN","<div style=""width:500px;"">
                            <p style=""font-size:50px; font-weight:bold;""
                            >angry</p>
                            <div style=""width:240px; margin: auto;"">
                                <img src=""images/map26_YlGnBu_scaleRev_orientDef_180.png"" style= ""width:200px""alt=""img"">
                            </div>
                        </div>","-43","","0","","","","images/map26_YlGnBu_scaleRev_orientDef_180.png","angry","1","26","26","YlGnBu","orientDef","scaleRev","180","",""
"","","","","","html-slider-response","87","165524","0.0-83.0","d29a4cdzd0","27","NaN","<div style=""width:500px;"">
                            <p style=""font-size:50px; font-weight:bold;""
                            >angry</p>
                            <div style=""width:240px; margin: auto;"">
                                <img src=""images/map12_Greys_scaleDef_orientMir_090.png"" style= ""width:200px""alt=""img"">
                            </div>
                        </div>","-190","","0","","","","images/map12_Greys_scaleDef_orientMir_090.png","angry","1","12","12","Greys","orientMir","scaleDef","090","",""
"","","","","","html-slider-response","88","166957","0.0-84.0","d29a4cdzd0","27","NaN","<div style=""width:500px;"">
                            <p style=""font-size:50px; font-weight:bold;""
                            >angry</p>
                            <div style=""width:240px; margin: auto;"">
                                <img src=""images/map10_turbo_scaleDef_orientDef_090.png"" style= ""width:200px""alt=""img"">
                            </div>
                        </div>","44","","0","","","","images/map10_turbo_scaleDef_orientDef_090.png","angry","1","10","10","turbo","orientDef","scaleDef","090","",""
"","","","","","html-slider-response","89","168289","0.0-85.0","d29a4cdzd0","27","NaN","<div style=""width:500px;"">
                            <p style=""font-size:50px; font-weight:bold;""
                            >angry</p>
                            <div style=""width:240px; margin: auto;"">
                                <img src=""images/map12_cividis_scaleDef_orientDef_270.png"" style= ""width:200px""alt=""img"">
                            </div>
                        </div>","-134","","0","","","","images/map12_cividis_scaleDef_orientDef_270.png","angry","1","12","12","cividis","orientDef","scaleDef","270","",""
"","","","","","html-slider-response","90","169457","0.0-86.0","d29a4cdzd0","27","NaN","<div style=""width:500px;"">
                            <p style=""font-size:50px; font-weight:bold;""
                            >angry</p>
                            <div style=""width:240px; margin: auto;"">
                                <img src=""images/map10_turbo_scaleRev_orientDef_180.png"" style= ""width:200px""alt=""img"">
                            </div>
                        </div>","-99","","0","","","","images/map10_turbo_scaleRev_orientDef_180.png","angry","1","10","10","turbo","orientDef","scaleRev","180","",""
"","","","","","html-slider-response","91","170656","0.0-87.0","d29a4cdzd0","27","NaN","<div style=""width:500px;"">
                            <p style=""font-size:50px; font-weight:bold;""
                            >angry</p>
                            <div style=""width:240px; margin: auto;"">
                                <img src=""images/map27_PuOr_scaleDef_orientMir_270.png"" style= ""width:200px""alt=""img"">
                            </div>
                        </div>","-52","","0","","","","images/map27_PuOr_scaleDef_orientMir_270.png","angry","1","27","27","PuOr","orientMir","scaleDef","270","",""
"","","","","","html-slider-response","92","171774","0.0-88.0","d29a4cdzd0","27","NaN","<div style=""width:500px;"">
                            <p style=""font-size:50px; font-weight:bold;""
                            >angry</p>
                            <div style=""width:240px; margin: auto;"">
                                <img src=""images/map27_PRGn_scaleRev_orientMir_000.png"" style= ""width:200px""alt=""img"">
                            </div>
                        </div>","-57","","0","","","","images/map27_PRGn_scaleRev_orientMir_000.png","angry","1","27","27","PRGn","orientMir","scaleRev","000","",""
"","","","","","html-slider-response","93","173074","0.0-89.0","d29a4cdzd0","27","NaN","<div style=""width:500px;"">
                            <p style=""font-size:50px; font-weight:bold;""
                            >angry</p>
                            <div style=""width:240px; margin: auto;"">
                                <img src=""images/map12_inferno_scaleRev_orientDef_000.png"" style= ""width:200px""alt=""img"">
                            </div>
                        </div>","167","","0","","","","images/map12_inferno_scaleRev_orientDef_000.png","angry","1","12","12","inferno","orientDef","scaleRev","000","",""
"","","","","","html-slider-response","94","174157","0.0-90.0","d29a4cdzd0","27","NaN","<div style=""width:500px;"">
                            <p style=""font-size:50px; font-weight:bold;""
                            >angry</p>
                            <div style=""width:240px; margin: auto;"">
                                <img src=""images/map10_viridis_scaleDef_orientDef_270.png"" style= ""width:200px""alt=""img"">
                            </div>
                        </div>","-53","","0","","","","images/map10_viridis_scaleDef_orientDef_270.png","angry","1","10","10","viridis","orientDef","scaleDef","270","",""
"","","","","","html-slider-response","95","175540","0.0-91.0","d29a4cdzd0","27","NaN","<div style=""width:500px;"">
                            <p style=""font-size:50px; font-weight:bold;""
                            >angry</p>
                            <div style=""width:240px; margin: auto;"">
                                <img src=""images/map07_seismic_scaleRev_orientDef_000.png"" style= ""width:200px""alt=""img"">
                            </div>
                        </div>","38","","0","","","","images/map07_seismic_scaleRev_orientDef_000.png","angry","1","07","07","seismic","orientDef","scaleRev","000","",""
"","","","","","html-slider-response","96","177207","0.0-92.0","d29a4cdzd0","27","NaN","<div style=""width:500px;"">
                            <p style=""font-size:50px; font-weight:bold;""
                            >angry</p>
                            <div style=""width:240px; margin: auto;"">
                                <img src=""images/map12_magma_scaleRev_orientDef_180.png"" style= ""width:200px""alt=""img"">
                            </div>
                        </div>","106","","0","","","","images/map12_magma_scaleRev_orientDef_180.png","angry","1","12","12","magma","orientDef","scaleRev","180","",""
"","","","","","html-slider-response","97","178357","0.0-93.0","d29a4cdzd0","27","NaN","<div style=""width:500px;"">
                            <p style=""font-size:50px; font-weight:bold;""
                            >angry</p>
                            <div style=""width:240px; margin: auto;"">
                                <img src=""images/map26_YlGn_scaleDef_orientMir_270.png"" style= ""width:200px""alt=""img"">
                            </div>
                        </div>","-69","","0","","","","images/map26_YlGn_scaleDef_orientMir_270.png","angry","1","26","26","YlGn","orientMir","scaleDef","270","",""
"","","","","","html-slider-response","98","179873","0.0-94.0","d29a4cdzd0","27","NaN","<div style=""width:500px;"">
                            <p style=""font-size:50px; font-weight:bold;""
                            >angry</p>
                            <div style=""width:240px; margin: auto;"">
                                <img src=""images/map15_OrRd_scaleRev_orientMir_180.png"" style= ""width:200px""alt=""img"">
                            </div>
                        </div>","126","","0","","","","images/map15_OrRd_scaleRev_orientMir_180.png","angry","1","15","15","OrRd","orientMir","scaleRev","180","",""
"","","","","","html-button-response","99","182029","0.0-95.0","d29a4cdzd0","27","1654","<p>Great Job! You've finished block 1.<br></br> You have 4 block(s) left to go.<br></br></p>","0","","","","","","","","","","","","","","","",""
"","","","","","html-button-response","100","185912","0.0-96.0","d29a4cdzd0","27","3882","<p>In this block of trials, you will be asked to rate how much you associate each map with:</p > <p style = 'font-size:150%; font-weight: bold'>sad</p><br></br>","0","","","","","","","","","","","","","","","",""
"","","","","","html-slider-response","101","188025","0.0-97.0","d29a4cdzd0","27","NaN","<div style=""width:500px;"">
                            <p style=""font-size:50px; font-weight:bold;""
                            >sad</p>
                            <div style=""width:240px; margin: auto;"">
                                <img src=""images/map10_plasma_scaleRev_orientMir_180.png"" style= ""width:200px""alt=""img"">
                            </div>
                        </div>","-34","","0","","","","images/map10_plasma_scaleRev_orientMir_180.png","sad","1","10","10","plasma","orientMir","scaleRev","180","",""
"","","","","","html-slider-response","102","189157","0.0-98.0","d29a4cdzd0","27","NaN","<div style=""width:500px;"">
                            <p style=""font-size:50px; font-weight:bold;""
                            >sad</p>
                            <div style=""width:240px; margin: auto;"">
                                <img src=""images/map15_Reds_scaleRev_orientDef_000.png"" style= ""width:200px""alt=""img"">
                            </div>
                        </div>","-52","","0","","","","images/map15_Reds_scaleRev_orientDef_000.png","sad","1","15","15","Reds","orientDef","scaleRev","000","",""
"","","","","","html-slider-response","103","190357","0.0-99.0","d29a4cdzd0","27","NaN","<div style=""width:500px;"">
                            <p style=""font-size:50px; font-weight:bold;""
                            >sad</p>
                            <div style=""width:240px; margin: auto;"">
                                <img src=""images/map05_bwr_scaleDef_orientMir_090.png"" style= ""width:200px""alt=""img"">
                            </div>
                        </div>","-77","","0","","","","images/map05_bwr_scaleDef_orientMir_090.png","sad","1","05","05","bwr","orientMir","scaleDef","090","",""
"","","","","","html-slider-response","104","191389","0.0-100.0","d29a4cdzd0","27","NaN","<div style=""width:500px;"">
                            <p style=""font-size:50px; font-weight:bold;""
                            >sad</p>
                            <div style=""width:240px; margin: auto;"">
                                <img src=""images/map05_Spectral_scaleRev_orientDef_180.png"" style= ""width:200px""alt=""img"">
                            </div>
                        </div>","-102","","0","","","","images/map05_Spectral_scaleRev_orientDef_180.png","sad","1","05","05","Spectral","orientDef","scaleRev","180","",""
"","","","","","html-slider-response","105","192557","0.0-101.0","d29a4cdzd0","27","NaN","<div style=""width:500px;"">
                            <p style=""font-size:50px; font-weight:bold;""
                            >sad</p>
                            <div style=""width:240px; margin: auto;"">
                                <img src=""images/map15_YlOrRd_scaleDef_orientDef_270.png"" style= ""width:200px""alt=""img"">
                            </div>
                        </div>","-121","","0","","","","images/map15_YlOrRd_scaleDef_orientDef_270.png","sad","1","15","15","YlOrRd","orientDef","scaleDef","270","",""
"","","","","","html-slider-response","106","193840","0.0-102.0","d29a4cdzd0","27","NaN","<div style=""width:500px;"">
                            <p style=""font-size:50px; font-weight:bold;""
                            >sad</p>
                            <div style=""width:240px; margin: auto;"">
                                <img src=""images/map10_inferno_scaleDef_orientMir_270.png"" style= ""width:200px""alt=""img"">
                            </div>
                        </div>","-115","","0","","","","images/map10_inferno_scaleDef_orientMir_270.png","sad","1","10","10","inferno","orientMir","scaleDef","270","",""
"","","","","","html-slider-response","107","195057","0.0-103.0","d29a4cdzd0","27","NaN","<div style=""width:500px;"">
                            <p style=""font-size:50px; font-weight:bold;""
                            >sad</p>
                            <div style=""width:240px; margin: auto;"">
                                <img src=""images/map27_PRGn_scaleDef_orientDef_270.png"" style= ""width:200px""alt=""img"">
                            </div>
                        </div>","-136","","0","","","","images/map27_PRGn_scaleDef_orientDef_270.png","sad","1","27","27","PRGn","orientDef","scaleDef","270","",""
"","","","","","html-slider-response","108","196990","0.0-104.0","d29a4cdzd0","27","NaN","<div style=""width:500px;"">
                            <p style=""font-size:50px; font-weight:bold;""
                            >sad</p>
                            <div style=""width:240px; margin: auto;"">
                                <img src=""images/map13_Blues_scaleRev_orientDef_180.png"" style= ""width:200px""alt=""img"">
                            </div>
                        </div>","-117","","0","","","","images/map13_Blues_scaleRev_orientDef_180.png","sad","1","13","13","Blues","orientDef","scaleRev","180","",""
"","","","","","html-slider-response","109","198073","0.0-105.0","d29a4cdzd0","27","NaN","<div style=""width:500px;"">
                            <p style=""font-size:50px; font-weight:bold;""
                            >sad</p>
                            <div style=""width:240px; margin: auto;"">
                                <img src=""images/map27_PiYG_scaleDef_orientDef_090.png"" style= ""width:200px""alt=""img"">
                            </div>
                        </div>","-42","","0","","","","images/map27_PiYG_scaleDef_orientDef_090.png","sad","1","27","27","PiYG","orientDef","scaleDef","090","",""
"","","","","","html-slider-response","110","198890","0.0-106.0","d29a4cdzd0","27","NaN","<div style=""width:500px;"">
                            <p style=""font-size:50px; font-weight:bold;""
                            >sad</p>
                            <div style=""width:240px; margin: auto;"">
                                <img src=""images/map10_plasma_scaleDef_orientMir_090.png"" style= ""width:200px""alt=""img"">
                            </div>
                        </div>","-97","","0","","","","images/map10_plasma_scaleDef_orientMir_090.png","sad","1","10","10","plasma","orientMir","scaleDef","090","",""
"","","","","","html-slider-response","111","199789","0.0-107.0","d29a4cdzd0","27","NaN","<div style=""width:500px;"">
                            <p style=""font-size:50px; font-weight:bold;""
                            >sad</p>
                            <div style=""width:240px; margin: auto;"">
                                <img src=""images/map10_viridis_scaleDef_orientDef_270.png"" style= ""width:200px""alt=""img"">
                            </div>
                        </div>","-96","","0","","","","images/map10_viridis_scaleDef_orientDef_270.png","sad","1","10","10","viridis","orientDef","scaleDef","270","",""
"","","","","","html-slider-response","112","201574","0.0-108.0","d29a4cdzd0","27","NaN","<div style=""width:500px;"">
                            <p style=""font-size:50px; font-weight:bold;""
                            >sad</p>
                            <div style=""width:240px; margin: auto;"">
                                <img src=""images/map23_GnBu_scaleDef_orientMir_090.png"" style= ""width:200px""alt=""img"">
                            </div>
                        </div>","91","","0","","","","images/map23_GnBu_scaleDef_orientMir_090.png","sad","1","23","23","GnBu","orientMir","scaleDef","090","",""
"","","","","","html-slider-response","113","202573","0.0-109.0","d29a4cdzd0","27","NaN","<div style=""width:500px;"">
                            <p style=""font-size:50px; font-weight:bold;""
                            >sad</p>
                            <div style=""width:240px; margin: auto;"">
                                <img src=""images/map07_berlin_scaleRev_orientDef_180.png"" style= ""width:200px""alt=""img"">
                            </div>
                        </div>","-90","","0","","","","images/map07_berlin_scaleRev_orientDef_180.png","sad","1","07","07","berlin","orientDef","scaleRev","180","",""
"","","","","","html-slider-response","114","203573","0.0-110.0","d29a4cdzd0","27","NaN","<div style=""width:500px;"">
                            <p style=""font-size:50px; font-weight:bold;""
                            >sad</p>
                            <div style=""width:240px; margin: auto;"">
                                <img src=""images/map26_BuGn_scaleDef_orientMir_090.png"" style= ""width:200px""alt=""img"">
                            </div>
                        </div>","-52","","0","","","","images/map26_BuGn_scaleDef_orientMir_090.png","sad","1","26","26","BuGn","orientMir","scaleDef","090","",""
"","","","","","html-slider-response","115","204989","0.0-111.0","d29a4cdzd0","27","NaN","<div style=""width:500px;"">
                            <p style=""font-size:50px; font-weight:bold;""
                            >sad</p>
                            <div style=""width:240px; margin: auto;"">
                                <img src=""images/map02_RdYlBu_scaleDef_orientMir_090.png"" style= ""width:200px""alt=""img"">
                            </div>
                        </div>","-87","","0","","","","images/map02_RdYlBu_scaleDef_orientMir_090.png","sad","1","02","02","RdYlBu","orientMir","scaleDef","090","",""
"","","","","","html-slider-response","116","206057","0.0-112.0","d29a4cdzd0","27","NaN","<div style=""width:500px;"">
                            <p style=""font-size:50px; font-weight:bold;""
                            >sad</p>
                            <div style=""width:240px; margin: auto;"">
                                <img src=""images/map07_vanimo_scaleDef_orientMir_090.png"" style= ""width:200px""alt=""img"">
                            </div>
                        </div>","-97","","0","","","","images/map07_vanimo_scaleDef_orientMir_090.png","sad","1","07","07","vanimo","orientMir","scaleDef","090","",""
"","","","","","html-slider-response","117","207024","0.0-113.0","d29a4cdzd0","27","NaN","<div style=""width:500px;"">
                            <p style=""font-size:50px; font-weight:bold;""
                            >sad</p>
                            <div style=""width:240px; margin: auto;"">
                                <img src=""images/map07_berlin_scaleDef_orientDef_090.png"" style= ""width:200px""alt=""img"">
                            </div>
                        </div>","-110","","0","","","","images/map07_berlin_scaleDef_orientDef_090.png","sad","1","07","07","berlin","orientDef","scaleDef","090","",""
"","","","","","html-slider-response","118","208723","0.0-114.0","d29a4cdzd0","27","NaN","<div style=""width:500px;"">
                            <p style=""font-size:50px; font-weight:bold;""
                            >sad</p>
                            <div style=""width:240px; margin: auto;"">
                                <img src=""images/map15_YlOrBr_scaleDef_orientDef_090.png"" style= ""width:200px""alt=""img"">
                            </div>
                        </div>","-134","","0","","","","images/map15_YlOrBr_scaleDef_orientDef_090.png","sad","1","15","15","YlOrBr","orientDef","scaleDef","090","",""
"","","","","","html-slider-response","119","209789","0.0-115.0","d29a4cdzd0","27","NaN","<div style=""width:500px;"">
                            <p style=""font-size:50px; font-weight:bold;""
                            >sad</p>
                            <div style=""width:240px; margin: auto;"">
                                <img src=""images/map10_turbo_scaleDef_orientDef_090.png"" style= ""width:200px""alt=""img"">
                            </div>
                        </div>","-117","","0","","","","images/map10_turbo_scaleDef_orientDef_090.png","sad","1","10","10","turbo","orientDef","scaleDef","090","",""
"","","","","","html-slider-response","120","210874","0.0-116.0","d29a4cdzd0","27","NaN","<div style=""width:500px;"">
                            <p style=""font-size:50px; font-weight:bold;""
                            >sad</p>
                            <div style=""width:240px; margin: auto;"">
                                <img src=""images/map27_BrBG_scaleDef_orientMir_090.png"" style= ""width:200px""alt=""img"">
                            </div>
                        </div>","-108","","0","","","","images/map27_BrBG_scaleDef_orientMir_090.png","sad","1","27","27","BrBG","orientMir","scaleDef","090","",""
"","","","","","html-slider-response","121","212073","0.0-117.0","d29a4cdzd0","27","NaN","<div style=""width:500px;"">
                            <p style=""font-size:50px; font-weight:bold;""
                            >sad</p>
                            <div style=""width:240px; margin: auto;"">
                                <img src=""images/map07_managua_scaleRev_orientMir_000.png"" style= ""width:200px""alt=""img"">
                            </div>
                        </div>","-103","","0","","","","images/map07_managua_scaleRev_orientMir_000.png","sad","1","07","07","managua","orientMir","scaleRev","000","",""
"","","","","","html-slider-response","122","213324","0.0-118.0","d29a4cdzd0","27","NaN","<div style=""width:500px;"">
                            <p style=""font-size:50px; font-weight:bold;""
                            >sad</p>
                            <div style=""width:240px; margin: auto;"">
                                <img src=""images/map12_magma_scaleDef_orientDef_090.png"" style= ""width:200px""alt=""img"">
                            </div>
                        </div>","-104","","0","","","","images/map12_magma_scaleDef_orientDef_090.png","sad","1","12","12","magma","orientDef","scaleDef","090","",""
"","","","","","html-slider-response","123","214307","0.0-119.0","d29a4cdzd0","27","NaN","<div style=""width:500px;"">
                            <p style=""font-size:50px; font-weight:bold;""
                            >sad</p>
                            <div style=""width:240px; margin: auto;"">
                                <img src=""images/map13_Greens_scaleRev_orientMir_000.png"" style= ""width:200px""alt=""img"">
                            </div>
                        </div>","-123","","0","","","","images/map13_Greens_scaleRev_orientMir_000.png","sad","1","13","13","Greens","orientMir","scaleRev","000","",""
"","","","","","html-slider-response","124","215341","0.0-120.0","d29a4cdzd0","27","NaN","<div style=""width:500px;"">
                            <p style=""font-size:50px; font-weight:bold;""
                            >sad</p>
                            <div style=""width:240px; margin: auto;"">
                                <img src=""images/map07_gist_earth_scaleDef_orientMir_270.png"" style= ""width:200px""alt=""img"">
                            </div>
                        </div>","-111","","0","","","","images/map07_gist_earth_scaleDef_orientMir_270.png","sad","1","07","07","gist","scaleDef","earth","orientMir","",""
"","","","","","html-slider-response","125","216357","0.0-121.0","d29a4cdzd0","27","NaN","<div style=""width:500px;"">
                            <p style=""font-size:50px; font-weight:bold;""
                            >sad</p>
                            <div style=""width:240px; margin: auto;"">
                                <img src=""images/map15_YlOrRd_scaleRev_orientMir_000.png"" style= ""width:200px""alt=""img"">
                            </div>
                        </div>","-107","","0","","","","images/map15_YlOrRd_scaleRev_orientMir_000.png","sad","1","15","15","YlOrRd","orientMir","scaleRev","000","",""
"","","","","","html-slider-response","126","217323","0.0-122.0","d29a4cdzd0","27","NaN","<div style=""width:500px;"">
                            <p style=""font-size:50px; font-weight:bold;""
                            >sad</p>
                            <div style=""width:240px; margin: auto;"">
                                <img src=""images/map10_gist_earth_scaleRev_orientDef_000.png"" style= ""width:200px""alt=""img"">
                            </div>
                        </div>","-128","","0","","","","images/map10_gist_earth_scaleRev_orientDef_000.png","sad","1","10","10","gist","scaleRev","earth","orientDef","",""
"","","","","","html-slider-response","127","218390","0.0-123.0","d29a4cdzd0","27","NaN","<div style=""width:500px;"">
                            <p style=""font-size:50px; font-weight:bold;""
                            >sad</p>
                            <div style=""width:240px; margin: auto;"">
                                <img src=""images/map13_Oranges_scaleDef_orientMir_090.png"" style= ""width:200px""alt=""img"">
                            </div>
                        </div>","-77","","0","","","","images/map13_Oranges_scaleDef_orientMir_090.png","sad","1","13","13","Oranges","orientMir","scaleDef","090","",""
"","","","","","html-slider-response","128","219207","0.0-124.0","d29a4cdzd0","27","NaN","<div style=""width:500px;"">
                            <p style=""font-size:50px; font-weight:bold;""
                            >sad</p>
                            <div style=""width:240px; margin: auto;"">
                                <img src=""images/map15_PuRd_scaleDef_orientMir_270.png"" style= ""width:200px""alt=""img"">
                            </div>
                        </div>","-162","","0","","","","images/map15_PuRd_scaleDef_orientMir_270.png","sad","1","15","15","PuRd","orientMir","scaleDef","270","",""
"","","","","","html-slider-response","129","220990","0.0-125.0","d29a4cdzd0","27","NaN","<div style=""width:500px;"">
                            <p style=""font-size:50px; font-weight:bold;""
                            >sad</p>
                            <div style=""width:240px; margin: auto;"">
                                <img src=""images/map10_viridis_scaleRev_orientMir_000.png"" style= ""width:200px""alt=""img"">
                            </div>
                        </div>","38","","0","","","","images/map10_viridis_scaleRev_orientMir_000.png","sad","1","10","10","viridis","orientMir","scaleRev","000","",""
"","","","","","html-slider-response","130","221924","0.0-126.0","d29a4cdzd0","27","NaN","<div style=""width:500px;"">
                            <p style=""font-size:50px; font-weight:bold;""
                            >sad</p>
                            <div style=""width:240px; margin: auto;"">
                                <img src=""images/map26_PuBuGn_scaleDef_orientDef_270.png"" style= ""width:200px""alt=""img"">
                            </div>
                        </div>","-86","","0","","","","images/map26_PuBuGn_scaleDef_orientDef_270.png","sad","1","26","26","PuBuGn","orientDef","scaleDef","270","",""
"","","","","","html-slider-response","131","223040","0.0-127.0","d29a4cdzd0","27","NaN","<div style=""width:500px;"">
                            <p style=""font-size:50px; font-weight:bold;""
                            >sad</p>
                            <div style=""width:240px; margin: auto;"">
                                <img src=""images/map07_seismic_scaleRev_orientDef_000.png"" style= ""width:200px""alt=""img"">
                            </div>
                        </div>","-132","","0","","","","images/map07_seismic_scaleRev_orientDef_000.png","sad","1","07","07","seismic","orientDef","scaleRev","000","",""
"","","","","","html-slider-response","132","224007","0.0-128.0","d29a4cdzd0","27","NaN","<div style=""width:500px;"">
                            <p style=""font-size:50px; font-weight:bold;""
                            >sad</p>
                            <div style=""width:240px; margin: auto;"">
                                <img src=""images/map05_seismic_scaleDef_orientMir_270.png"" style= ""width:200px""alt=""img"">
                            </div>
                        </div>","-128","","0","","","","images/map05_seismic_scaleDef_orientMir_270.png","sad","1","05","05","seismic","orientMir","scaleDef","270","",""
"","","","","","html-slider-response","133","224957","0.0-129.0","d29a4cdzd0","27","NaN","<div style=""width:500px;"">
                            <p style=""font-size:50px; font-weight:bold;""
                            >sad</p>
                            <div style=""width:240px; margin: auto;"">
                                <img src=""images/map02_PuOr_scaleRev_orientDef_000.png"" style= ""width:200px""alt=""img"">
                            </div>
                        </div>","-88","","0","","","","images/map02_PuOr_scaleRev_orientDef_000.png","sad","1","02","02","PuOr","orientDef","scaleRev","000","",""
"","","","","","html-slider-response","134","225739","0.0-130.0","d29a4cdzd0","27","NaN","<div style=""width:500px;"">
                            <p style=""font-size:50px; font-weight:bold;""
                            >sad</p>
                            <div style=""width:240px; margin: auto;"">
                                <img src=""images/map13_Reds_scaleDef_orientMir_270.png"" style= ""width:200px""alt=""img"">
                            </div>
                        </div>","-155","","0","","","","images/map13_Reds_scaleDef_orientMir_270.png","sad","1","13","13","Reds","orientMir","scaleDef","270","",""
"","","","","","html-slider-response","135","228023","0.0-131.0","d29a4cdzd0","27","NaN","<div style=""width:500px;"">
                            <p style=""font-size:50px; font-weight:bold;""
                            >sad</p>
                            <div style=""width:240px; margin: auto;"">
                                <img src=""images/map12_Greys_scaleRev_orientMir_180.png"" style= ""width:200px""alt=""img"">
                            </div>
                        </div>","46","","0","","","","images/map12_Greys_scaleRev_orientMir_180.png","sad","1","12","12","Greys","orientMir","scaleRev","180","",""
"","","","","","html-slider-response","136","229607","0.0-132.0","d29a4cdzd0","27","NaN","<div style=""width:500px;"">
                            <p style=""font-size:50px; font-weight:bold;""
                            >sad</p>
                            <div style=""width:240px; margin: auto;"">
                                <img src=""images/map02_RdGy_scaleRev_orientDef_180.png"" style= ""width:200px""alt=""img"">
                            </div>
                        </div>","-41","","0","","","","images/map02_RdGy_scaleRev_orientDef_180.png","sad","1","02","02","RdGy","orientDef","scaleRev","180","",""
"","","","","","html-slider-response","137","231107","0.0-133.0","d29a4cdzd0","27","NaN","<div style=""width:500px;"">
                            <p style=""font-size:50px; font-weight:bold;""
                            >sad</p>
                            <div style=""width:240px; margin: auto;"">
                                <img src=""images/map26_PuBuGn_scaleRev_orientMir_000.png"" style= ""width:200px""alt=""img"">
                            </div>
                        </div>","81","","0","","","","images/map26_PuBuGn_scaleRev_orientMir_000.png","sad","1","26","26","PuBuGn","orientMir","scaleRev","000","",""
"","","","","","html-slider-response","138","232440","0.0-134.0","d29a4cdzd0","27","NaN","<div style=""width:500px;"">
                            <p style=""font-size:50px; font-weight:bold;""
                            >sad</p>
                            <div style=""width:240px; margin: auto;"">
                                <img src=""images/map23_RdPu_scaleRev_orientDef_180.png"" style= ""width:200px""alt=""img"">
                            </div>
                        </div>","-81","","0","","","","images/map23_RdPu_scaleRev_orientDef_180.png","sad","1","23","23","RdPu","orientDef","scaleRev","180","",""
"","","","","","html-slider-response","139","233889","0.0-135.0","d29a4cdzd0","27","NaN","<div style=""width:500px;"">
                            <p style=""font-size:50px; font-weight:bold;""
                            >sad</p>
                            <div style=""width:240px; margin: auto;"">
                                <img src=""images/map23_PuBu_scaleDef_orientMir_270.png"" style= ""width:200px""alt=""img"">
                            </div>
                        </div>","160","","0","","","","images/map23_PuBu_scaleDef_orientMir_270.png","sad","1","23","23","PuBu","orientMir","scaleDef","270","",""
"","","","","","html-slider-response","140","234824","0.0-136.0","d29a4cdzd0","27","NaN","<div style=""width:500px;"">
                            <p style=""font-size:50px; font-weight:bold;""
                            >sad</p>
                            <div style=""width:240px; margin: auto;"">
                                <img src=""images/map05_coolwarm_scaleRev_orientMir_000.png"" style= ""width:200px""alt=""img"">
                            </div>
                        </div>","-115","","0","","","","images/map05_coolwarm_scaleRev_orientMir_000.png","sad","1","05","05","coolwarm","orientMir","scaleRev","000","",""
"","","","","","html-button-response","141","236546","0.0-137.0","d29a4cdzd0","27","1221","<p>You are doing great!<br></br> You are halway done with the current block. When you are ready to continue, click the 'Continue' button.</p>","0","","","","","","","","","","","","","","","",""
"","","","","","html-slider-response","142","237707","0.0-138.0","d29a4cdzd0","27","NaN","<div style=""width:500px;"">
                            <p style=""font-size:50px; font-weight:bold;""
                            >sad</p>
                            <div style=""width:240px; margin: auto;"">
                                <img src=""images/map23_BuPu_scaleRev_orientMir_000.png"" style= ""width:200px""alt=""img"">
                            </div>
                        </div>","-122","","0","","","","images/map23_BuPu_scaleRev_orientMir_000.png","sad","1","23","23","BuPu","orientMir","scaleRev","000","",""
"","","","","","html-slider-response","143","238324","0.0-139.0","d29a4cdzd0","27","NaN","<div style=""width:500px;"">
                            <p style=""font-size:50px; font-weight:bold;""
                            >sad</p>
                            <div style=""width:240px; margin: auto;"">
                                <img src=""images/map12_Greys_scaleDef_orientMir_090.png"" style= ""width:200px""alt=""img"">
                            </div>
                        </div>","-63","","0","","","","images/map12_Greys_scaleDef_orientMir_090.png","sad","1","12","12","Greys","orientMir","scaleDef","090","",""
"","","","","","html-slider-response","144","239273","0.0-140.0","d29a4cdzd0","27","NaN","<div style=""width:500px;"">
                            <p style=""font-size:50px; font-weight:bold;""
                            >sad</p>
                            <div style=""width:240px; margin: auto;"">
                                <img src=""images/map02_RdYlGn_scaleDef_orientMir_270.png"" style= ""width:200px""alt=""img"">
                            </div>
                        </div>","-90","","0","","","","images/map02_RdYlGn_scaleDef_orientMir_270.png","sad","1","02","02","RdYlGn","orientMir","scaleDef","270","",""
"","","","","","html-slider-response","145","240357","0.0-141.0","d29a4cdzd0","27","NaN","<div style=""width:500px;"">
                            <p style=""font-size:50px; font-weight:bold;""
                            >sad</p>
                            <div style=""width:240px; margin: auto;"">
                                <img src=""images/map23_PuRd_scaleRev_orientDef_000.png"" style= ""width:200px""alt=""img"">
                            </div>
                        </div>","-69","","0","","","","images/map23_PuRd_scaleRev_orientDef_000.png","sad","1","23","23","PuRd","orientDef","scaleRev","000","",""
"","","","","","html-slider-response","146","241407","0.0-142.0","d29a4cdzd0","27","NaN","<div style=""width:500px;"">
                            <p style=""font-size:50px; font-weight:bold;""
                            >sad</p>
                            <div style=""width:240px; margin: auto;"">
                                <img src=""images/map13_Oranges_scaleRev_orientMir_180.png"" style= ""width:200px""alt=""img"">
                            </div>
                        </div>","-129","","0","","","","images/map13_Oranges_scaleRev_orientMir_180.png","sad","1","13","13","Oranges","orientMir","scaleRev","180","",""
"","","","","","html-slider-response","147","242590","0.0-143.0","d29a4cdzd0","27","NaN","<div style=""width:500px;"">
                            <p style=""font-size:50px; font-weight:bold;""
                            >sad</p>
                            <div style=""width:240px; margin: auto;"">
                                <img src=""images/map02_RdBu_scaleDef_orientDef_270.png"" style= ""width:200px""alt=""img"">
                            </div>
                        </div>","-85","","0","","","","images/map02_RdBu_scaleDef_orientDef_270.png","sad","1","02","02","RdBu","orientDef","scaleDef","270","",""
"","","","","","html-slider-response","148","244439","0.0-144.0","d29a4cdzd0","27","NaN","<div style=""width:500px;"">
                            <p style=""font-size:50px; font-weight:bold;""
                            >sad</p>
                            <div style=""width:240px; margin: auto;"">
                                <img src=""images/map12_cividis_scaleRev_orientMir_000.png"" style= ""width:200px""alt=""img"">
                            </div>
                        </div>","0","","0","","","","images/map12_cividis_scaleRev_orientMir_000.png","sad","1","12","12","cividis","orientMir","scaleRev","000","",""
"","","","","","html-slider-response","149","245539","0.0-145.0","d29a4cdzd0","27","NaN","<div style=""width:500px;"">
                            <p style=""font-size:50px; font-weight:bold;""
                            >sad</p>
                            <div style=""width:240px; margin: auto;"">
                                <img src=""images/map05_coolwarm_scaleDef_orientDef_270.png"" style= ""width:200px""alt=""img"">
                            </div>
                        </div>","-86","","0","","","","images/map05_coolwarm_scaleDef_orientDef_270.png","sad","1","05","05","coolwarm","orientDef","scaleDef","270","",""
"","","","","","html-slider-response","150","246974","0.0-146.0","d29a4cdzd0","27","NaN","<div style=""width:500px;"">
                            <p style=""font-size:50px; font-weight:bold;""
                            >sad</p>
                            <div style=""width:240px; margin: auto;"">
                                <img src=""images/map07_vanimo_scaleRev_orientMir_180.png"" style= ""width:200px""alt=""img"">
                            </div>
                        </div>","-94","","0","","","","images/map07_vanimo_scaleRev_orientMir_180.png","sad","1","07","07","vanimo","orientMir","scaleRev","180","",""
"","","","","","html-slider-response","151","248907","0.0-147.0","d29a4cdzd0","27","NaN","<div style=""width:500px;"">
                            <p style=""font-size:50px; font-weight:bold;""
                            >sad</p>
                            <div style=""width:240px; margin: auto;"">
                                <img src=""images/map05_RdYlGn_scaleRev_orientDef_000.png"" style= ""width:200px""alt=""img"">
                            </div>
                        </div>","-94","","0","","","","images/map05_RdYlGn_scaleRev_orientDef_000.png","sad","1","05","05","RdYlGn","orientDef","scaleRev","000","",""
"","","","","","html-slider-response","152","249656","0.0-148.0","d29a4cdzd0","27","NaN","<div style=""width:500px;"">
                            <p style=""font-size:50px; font-weight:bold;""
                            >sad</p>
                            <div style=""width:240px; margin: auto;"">
                                <img src=""images/map12_Purples_scaleDef_orientMir_270.png"" style= ""width:200px""alt=""img"">
                            </div>
                        </div>","-126","","0","","","","images/map12_Purples_scaleDef_orientMir_270.png","sad","1","12","12","Purples","orientMir","scaleDef","270","",""
"","","","","","html-slider-response","153","250739","0.0-149.0","d29a4cdzd0","27","NaN","<div style=""width:500px;"">
                            <p style=""font-size:50px; font-weight:bold;""
                            >sad</p>
                            <div style=""width:240px; margin: auto;"">
                                <img src=""images/map23_BuPu_scaleDef_orientDef_270.png"" style= ""width:200px""alt=""img"">
                            </div>
                        </div>","-65","","0","","","","images/map23_BuPu_scaleDef_orientDef_270.png","sad","1","23","23","BuPu","orientDef","scaleDef","270","",""
"","","","","","html-slider-response","154","251723","0.0-150.0","d29a4cdzd0","27","NaN","<div style=""width:500px;"">
                            <p style=""font-size:50px; font-weight:bold;""
                            >sad</p>
                            <div style=""width:240px; margin: auto;"">
                                <img src=""images/map13_Greens_scaleDef_orientDef_270.png"" style= ""width:200px""alt=""img"">
                            </div>
                        </div>","-67","","0","","","","images/map13_Greens_scaleDef_orientDef_270.png","sad","1","13","13","Greens","orientDef","scaleDef","270","",""
"","","","","","html-slider-response","155","252891","0.0-151.0","d29a4cdzd0","27","NaN","<div style=""width:500px;"">
                            <p style=""font-size:50px; font-weight:bold;""
                            >sad</p>
                            <div style=""width:240px; margin: auto;"">
                                <img src=""images/map26_YlGn_scaleDef_orientMir_270.png"" style= ""width:200px""alt=""img"">
                            </div>
                        </div>","-74","","0","","","","images/map26_YlGn_scaleDef_orientMir_270.png","sad","1","26","26","YlGn","orientMir","scaleDef","270","",""
"","","","","","html-slider-response","156","253939","0.0-152.0","d29a4cdzd0","27","NaN","<div style=""width:500px;"">
                            <p style=""font-size:50px; font-weight:bold;""
                            >sad</p>
                            <div style=""width:240px; margin: auto;"">
                                <img src=""images/map15_OrRd_scaleDef_orientMir_090.png"" style= ""width:200px""alt=""img"">
                            </div>
                        </div>","-70","","0","","","","images/map15_OrRd_scaleDef_orientMir_090.png","sad","1","15","15","OrRd","orientMir","scaleDef","090","",""
"","","","","","html-slider-response","157","254956","0.0-153.0","d29a4cdzd0","27","NaN","<div style=""width:500px;"">
                            <p style=""font-size:50px; font-weight:bold;""
                            >sad</p>
                            <div style=""width:240px; margin: auto;"">
                                <img src=""images/map05_bwr_scaleRev_orientMir_180.png"" style= ""width:200px""alt=""img"">
                            </div>
                        </div>","-152","","0","","","","images/map05_bwr_scaleRev_orientMir_180.png","sad","1","05","05","bwr","orientMir","scaleRev","180","",""
"","","","","","html-slider-response","158","255907","0.0-154.0","d29a4cdzd0","27","NaN","<div style=""width:500px;"">
                            <p style=""font-size:50px; font-weight:bold;""
                            >sad</p>
                            <div style=""width:240px; margin: auto;"">
