"success","timeout","failed_images","failed_audio","failed_video","trial_type","trial_index","time_elapsed","internal_node_id","subject_id","condition_num","rt","stimulus","response","question_order","slider_start","practiceTrial","practiceTrialNum","correct","image_path","concept","repetition","map_id","map_num","scale_name","orientation_code","mapping_code","rotation_code","ishihara_plate","correct_response"
"true","false","[]","[]","[]","preload","0","299","0.0-0.0","ds0jqfnfpp","71","","","","","","","","","","","","","","","","","","",""
"","","","","","html-button-response","1","6689027","0.0-1.0","ds0jqfnfpp","71","2856638","Welcome to our experiment!<p>At the bottom of this screen, you will see a button that says ""Begin Experiment"".<br>Please only click that button when you are ready to complete the 30 minute experiment in one sitting.</p><p> Once you click that button, it will not be possible to restart the experiment.","0","","","","","","","","","","","","","","","",""
"true","","","","","fullscreen","2","6691646","0.0-2.0","ds0jqfnfpp","71","1614","","","","","","","","","","","","","","","","","",""
"","","","","","survey-multi-select","3","6763911","0.0-3.0","ds0jqfnfpp","71","72260","","{""Consent"":[""<strong>I consent</strong>""]}","[0]","","","","","","","","","","","","","","",""
"","","","","","html-button-response","4","6769223","0.0-4.0","ds0jqfnfpp","71","5310","Welcome! <p> This experiment involves two parts: demographic information, followed by the experimental task.<p> It will take about 30 minutes to complete both parts.","0","","","","","","","","","","","","","","","",""
"","","","","","survey-text","5","6779357","0.0-5.0","ds0jqfnfpp","71","10119","","{""Age"":""20"",""Gender"":""Female"",""Race/ethnicity"":""White"",""Languages"":""English""}","","","","","","","","","","","","","","","",""
"","","","","","html-slider-response","6","6811439","0.0-6.0","ds0jqfnfpp","71","32079","<div style='text-align:left; font-size:20px; line-height:25px; width: 1000px;'>
                                During this experiment you will be asked to rate how much you associate maps with                    different concepts.<br> Below, you can see some examples of the maps you will be asked to rate. Above the maps
                    is the list of concepts.<br>You will be asked                    to rate how much you associate each map with each concept on a scale from 'not at all' to 'very much' like the
                    one below. <br><br>
                    Now, please look at the list of concepts and maps. For each concept, think about the map you associate 'very
                    much' with the concept.<br>                     When you see that map during the experiment, please rate it near the 'very much' endpoint of the
                    scale.<br>Now, please think about which map you associate 'not at all'                     with each concept. When you see that map during the experiment, please rate it near the 'not at all' endpoint
                    of the scale.<br>
                    Please use the full range of the scale. That is, if a map is somewhat associated with the concept, you would
                    click partway between the middle point and right side of the scale.                    You will be asked to rate each map for a given concept before moving on to the next concept.<br>Press the
                    'Continue' button for instructions on how to use the slider.                    <br>
                </div>

                <div style=""width: 500px; margin: 0 auto;"">
                    <!-- Centered text paragraphs -->
                    <div style=""text-align: center; width: 500px;"">
                        <p style=""font-size:25px; line-height:15px;"">
                            sad&nbsp;&nbsp;&nbsp;&nbsp;
                            disgust&nbsp;&nbsp;&nbsp;&nbsp;
                            happy&nbsp;&nbsp;&nbsp;&nbsp;
                            angry&nbsp;&nbsp;&nbsp;&nbsp;
                            fearful
                        </p>
                        <!-- <p style=""font-size:20px; line-height:15px;"">disgust</p>
                        <p style=""font-size:20px;line-height:15px;"">happy</p>
                        <p style=""font-size:20px;line-height:15px;"">angry</p>
                        <p style=""font-size:20px;line-height:15px;"">fearful</p> -->
                    </div>
            

                    <!-- Grid section -->
                   <div style=""display: flex; justify-content: center; padding-top: 15px;"">
                    <div style=""display: grid; grid-template-columns: repeat(10, 55px); grid-gap: 5px; width: auto;"">
                        <img src=""images/map13_RdBu_scaleRev_orientDef_000.png"" alt=""map"" style=""width: 100%;""><img src=""images/map10_PiYG_scaleDef_orientMir_090.png"" alt=""map"" style=""width: 100%;""><img src=""images/map10_BuGn_scaleRev_orientDef_180.png"" alt=""map"" style=""width: 100%;""><img src=""images/map12_BrBG_scaleDef_orientDef_090.png"" alt=""map"" style=""width: 100%;""><img src=""images/map13_Spectral_scaleRev_orientMir_180.png"" alt=""map"" style=""width: 100%;""><img src=""images/map26_cividis_scaleDef_orientMir_270.png"" alt=""map"" style=""width: 100%;""><img src=""images/map15_seismic_scaleDef_orientDef_270.png"" alt=""map"" style=""width: 100%;""><img src=""images/map10_PuBuGn_scaleRev_orientDef_000.png"" alt=""map"" style=""width: 100%;""><img src=""images/map13_RdYlGn_scaleRev_orientMir_000.png"" alt=""map"" style=""width: 100%;""><img src=""images/map07_GnBu_scaleRev_orientDef_180.png"" alt=""map"" style=""width: 100%;""><img src=""images/map05_YlOrRd_scaleRev_orientDef_000.png"" alt=""map"" style=""width: 100%;""><img src=""images/map02_Oranges_scaleRev_orientDef_180.png"" alt=""map"" style=""width: 100%;""><img src=""images/map23_managua_scaleRev_orientDef_000.png"" alt=""map"" style=""width: 100%;""><img src=""images/map02_Reds_scaleDef_orientDef_270.png"" alt=""map"" style=""width: 100%;""><img src=""images/map26_magma_scaleDef_orientMir_090.png"" alt=""map"" style=""width: 100%;""><img src=""images/map23_vanimo_scaleRev_orientDef_180.png"" alt=""map"" style=""width: 100%;""><img src=""images/map27_Greys_scaleDef_orientDef_090.png"" alt=""map"" style=""width: 100%;""><img src=""images/map05_PuRd_scaleRev_orientMir_000.png"" alt=""map"" style=""width: 100%;""><img src=""images/map07_PuBu_scaleRev_orientMir_000.png"" alt=""map"" style=""width: 100%;""><img src=""images/map23_turbo_scaleDef_orientMir_090.png"" alt=""map"" style=""width: 100%;""><img src=""images/map27_Blues_scaleRev_orientMir_180.png"" alt=""map"" style=""width: 100%;""><img src=""images/map12_PuOr_scaleRev_orientMir_000.png"" alt=""map"" style=""width: 100%;""><img src=""images/map02_Greens_scaleRev_orientDef_000.png"" alt=""map"" style=""width: 100%;""><img src=""images/map15_berlin_scaleDef_orientMir_090.png"" alt=""map"" style=""width: 100%;""><img src=""images/map13_RdYlBu_scaleDef_orientDef_090.png"" alt=""map"" style=""width: 100%;""><img src=""images/map05_OrRd_scaleDef_orientDef_090.png"" alt=""map"" style=""width: 100%;""><img src=""images/map07_BuPu_scaleRev_orientDef_000.png"" alt=""map"" style=""width: 100%;""><img src=""images/map13_coolwarm_scaleDef_orientMir_270.png"" alt=""map"" style=""width: 100%;""><img src=""images/map12_RdGy_scaleRev_orientMir_180.png"" alt=""map"" style=""width: 100%;""><img src=""images/map26_inferno_scaleDef_orientDef_270.png"" alt=""map"" style=""width: 100%;""><img src=""images/map02_YlOrBr_scaleDef_orientMir_090.png"" alt=""map"" style=""width: 100%;""><img src=""images/map07_YlGnBu_scaleDef_orientMir_090.png"" alt=""map"" style=""width: 100%;""><img src=""images/map27_Purples_scaleDef_orientDef_270.png"" alt=""map"" style=""width: 100%;""><img src=""images/map23_viridis_scaleDef_orientMir_270.png"" alt=""map"" style=""width: 100%;""><img src=""images/map10_YlGn_scaleDef_orientDef_270.png"" alt=""map"" style=""width: 100%;""><img src=""images/map15_bwr_scaleRev_orientDef_180.png"" alt=""map"" style=""width: 100%;""><img src=""images/map26_plasma_scaleDef_orientDef_090.png"" alt=""map"" style=""width: 100%;""><img src=""images/map12_PRGn_scaleRev_orientDef_000.png"" alt=""map"" style=""width: 100%;""><img src=""images/map23_gist_earth_scaleDef_orientDef_270.png"" alt=""map"" style=""width: 100%;""><img src=""images/map05_RdPu_scaleDef_orientMir_090.png"" alt=""map"" style=""width: 100%;"">
                    </div>
                </div>

                    <!-- Clear floats -->
                    <div style=""clear: both;""></div>
                </div>
                            ","null","","0","true","","","","","","","","","","","","",""
"","","","","","html-button-response","7","6815773","0.0-7.0","ds0jqfnfpp","71","4331","<div style=""width:800px;""><p style=""text-align:left"">To move the slider, click and drag your cursor to the location of the scale where you would like to make your rating and then let go. When you let go of the slider, your response will be recorded and the next trial will begin. <br>
                    We are interested in your initial impressions of each map for the given concept, so please go with your first intuition. <br>
                    Before you begin the experiment, there will be four training trials for you to practice using the scale. <br>
                     When you are ready to start the training trials, please click ""Continue"".</p><br></div>","0","","","","","","","","","","","","","","","",""
"","","","","","html-slider-response","8","6819084","0.0-8.0-0.0","ds0jqfnfpp","71","NaN","<div style=""width:500px;"">
                                    <p style=""font-size:25px;"">Please move the slider all the way to the <br> right endpoint of the scale</p>

                                    </div>
                                </div>","200","","0","true","0","true","","","","","","","","","","",""
"","","","","","html-button-response","9","6820922","0.0-8.0-1.0","ds0jqfnfpp","71","1333","<p align='center'><b>Good job!</b> Click on 'Continue' to proceed.</p>","0","","","","","","","","","","","","","","","",""
"","","","","","html-slider-response","10","6824251","0.0-9.0-0.0","ds0jqfnfpp","71","NaN","<div style=""width:500px;"">
                                    <p style=""font-size:25px;"">Please move the slider all the way to the <br> left endpoint of the scale</p>

                                    </div>
                                </div>","-200","","0","true","1","true","","","","","","","","","","",""
"","","","","","html-button-response","11","6825755","0.0-9.0-1.0","ds0jqfnfpp","71","1002","<p align='center'><b>Good job!</b> Click on 'Continue' to proceed.</p>","0","","","","","","","","","","","","","","","",""
"","","","","","html-slider-response","12","6830833","0.0-10.0-0.0","ds0jqfnfpp","71","NaN","<div style=""width:500px;"">
                                    <p style=""font-size:25px;"">Please move the slider halfway between the center and right endpoint of the scale</p>

                                    </div>
                                </div>","94","","0","true","2","true","","","","","","","","","","",""
"","","","","","html-button-response","13","6832321","0.0-10.0-1.0","ds0jqfnfpp","71","986","<p align='center'><b>Good job!</b> Click on 'Continue' to proceed.</p>","0","","","","","","","","","","","","","","","",""
"","","","","","html-slider-response","14","6835366","0.0-11.0-0.0","ds0jqfnfpp","71","NaN","<div style=""width:500px;"">
                                    <p style=""font-size:25px;"">Please move the slider halfway between the center and left endpoint of the scale</p>

                                    </div>
                                </div>","-102","","0","true","3","true","","","","","","","","","","",""
"","","","","","html-button-response","15","6836788","0.0-11.0-1.0","ds0jqfnfpp","71","919","<p align='center'><b>Good job!</b> Click on 'Continue' to proceed.</p>","0","","","","","","","","","","","","","","","",""
"","","","","","html-button-response","16","6838905","0.0-12.0","ds0jqfnfpp","71","2116","<p>Great job! You've completed the practice trials. Now you will begin the main task.</p>","0","","","","","","","","","","","","","","","",""
"","","","","","html-button-response","17","6842205","0.0-13.0","ds0jqfnfpp","71","3299","<p>In this block of trials, you will be asked to rate how much you associate each map with:</p > <p style = 'font-size:150%; font-weight: bold'>sad</p><br></br>","0","","","","","","","","","","","","","","","",""
"","","","","","html-slider-response","18","6849751","0.0-14.0","ds0jqfnfpp","71","NaN","<div style=""width:500px;"">
                            <p style=""font-size:50px; font-weight:bold;""
                            >sad</p>
                            <div style=""width:240px; margin: auto;"">
                                <img src=""images/map13_RdBu_scaleRev_orientDef_000.png"" style= ""width:200px""alt=""img"">
                            </div>
                        </div>","-55","","0","","","","images/map13_RdBu_scaleRev_orientDef_000.png","sad","1","13","13","RdBu","orientDef","scaleRev","000","",""
"","","","","","html-slider-response","19","6859383","0.0-15.0","ds0jqfnfpp","71","NaN","<div style=""width:500px;"">
                            <p style=""font-size:50px; font-weight:bold;""
                            >sad</p>
                            <div style=""width:240px; margin: auto;"">
                                <img src=""images/map15_berlin_scaleRev_orientMir_180.png"" style= ""width:200px""alt=""img"">
                            </div>
                        </div>","-56","","0","","","","images/map15_berlin_scaleRev_orientMir_180.png","sad","1","15","15","berlin","orientMir","scaleRev","180","",""
"","","","","","html-slider-response","20","6862748","0.0-16.0","ds0jqfnfpp","71","NaN","<div style=""width:500px;"">
                            <p style=""font-size:50px; font-weight:bold;""
                            >sad</p>
                            <div style=""width:240px; margin: auto;"">
                                <img src=""images/map26_plasma_scaleRev_orientDef_180.png"" style= ""width:200px""alt=""img"">
                            </div>
                        </div>","-200","","0","","","","images/map26_plasma_scaleRev_orientDef_180.png","sad","1","26","26","plasma","orientDef","scaleRev","180","",""
"","","","","","html-slider-response","21","6867082","0.0-17.0","ds0jqfnfpp","71","NaN","<div style=""width:500px;"">
                            <p style=""font-size:50px; font-weight:bold;""
                            >sad</p>
                            <div style=""width:240px; margin: auto;"">
                                <img src=""images/map13_RdYlGn_scaleDef_orientDef_270.png"" style= ""width:200px""alt=""img"">
                            </div>
                        </div>","-174","","0","","","","images/map13_RdYlGn_scaleDef_orientDef_270.png","sad","1","13","13","RdYlGn","orientDef","scaleDef","270","",""
"","","","","","html-slider-response","22","6874782","0.0-18.0","ds0jqfnfpp","71","NaN","<div style=""width:500px;"">
                            <p style=""font-size:50px; font-weight:bold;""
                            >sad</p>
                            <div style=""width:240px; margin: auto;"">
                                <img src=""images/map07_GnBu_scaleRev_orientDef_180.png"" style= ""width:200px""alt=""img"">
                            </div>
                        </div>","100","","0","","","","images/map07_GnBu_scaleRev_orientDef_180.png","sad","1","07","07","GnBu","orientDef","scaleRev","180","",""
"","","","","","html-slider-response","23","6878350","0.0-19.0","ds0jqfnfpp","71","NaN","<div style=""width:500px;"">
                            <p style=""font-size:50px; font-weight:bold;""
                            >sad</p>
                            <div style=""width:240px; margin: auto;"">
                                <img src=""images/map12_PRGn_scaleRev_orientDef_000.png"" style= ""width:200px""alt=""img"">
                            </div>
                        </div>","-200","","0","","","","images/map12_PRGn_scaleRev_orientDef_000.png","sad","1","12","12","PRGn","orientDef","scaleRev","000","",""
"","","","","","html-slider-response","24","6883514","0.0-20.0","ds0jqfnfpp","71","NaN","<div style=""width:500px;"">
                            <p style=""font-size:50px; font-weight:bold;""
                            >sad</p>
                            <div style=""width:240px; margin: auto;"">
                                <img src=""images/map02_YlOrRd_scaleDef_orientMir_270.png"" style= ""width:200px""alt=""img"">
                            </div>
                        </div>","19","","0","","","","images/map02_YlOrRd_scaleDef_orientMir_270.png","sad","1","02","02","YlOrRd","orientMir","scaleDef","270","",""
"","","","","","html-slider-response","25","6885899","0.0-21.0","ds0jqfnfpp","71","NaN","<div style=""width:500px;"">
                            <p style=""font-size:50px; font-weight:bold;""
                            >sad</p>
                            <div style=""width:240px; margin: auto;"">
                                <img src=""images/map26_inferno_scaleRev_orientMir_000.png"" style= ""width:200px""alt=""img"">
                            </div>
                        </div>","26","","0","","","","images/map26_inferno_scaleRev_orientMir_000.png","sad","1","26","26","inferno","orientMir","scaleRev","000","",""
"","","","","","html-slider-response","26","6888432","0.0-22.0","ds0jqfnfpp","71","NaN","<div style=""width:500px;"">
                            <p style=""font-size:50px; font-weight:bold;""
                            >sad</p>
                            <div style=""width:240px; margin: auto;"">
                                <img src=""images/map26_inferno_scaleDef_orientDef_270.png"" style= ""width:200px""alt=""img"">
                            </div>
                        </div>","38","","0","","","","images/map26_inferno_scaleDef_orientDef_270.png","sad","1","26","26","inferno","orientDef","scaleDef","270","",""
"","","","","","html-slider-response","27","6894081","0.0-23.0","ds0jqfnfpp","71","NaN","<div style=""width:500px;"">
                            <p style=""font-size:50px; font-weight:bold;""
                            >sad</p>
                            <div style=""width:240px; margin: auto;"">
                                <img src=""images/map12_PuOr_scaleDef_orientDef_270.png"" style= ""width:200px""alt=""img"">
                            </div>
                        </div>","-200","","0","","","","images/map12_PuOr_scaleDef_orientDef_270.png","sad","1","12","12","PuOr","orientDef","scaleDef","270","",""
"","","","","","html-slider-response","28","6897930","0.0-24.0","ds0jqfnfpp","71","NaN","<div style=""width:500px;"">
                            <p style=""font-size:50px; font-weight:bold;""
                            >sad</p>
                            <div style=""width:240px; margin: auto;"">
                                <img src=""images/map10_BuGn_scaleDef_orientDef_090.png"" style= ""width:200px""alt=""img"">
                            </div>
                        </div>","46","","0","","","","images/map10_BuGn_scaleDef_orientDef_090.png","sad","1","10","10","BuGn","orientDef","scaleDef","090","",""
"","","","","","html-slider-response","29","6901630","0.0-25.0","ds0jqfnfpp","71","NaN","<div style=""width:500px;"">
                            <p style=""font-size:50px; font-weight:bold;""
                            >sad</p>
                            <div style=""width:240px; margin: auto;"">
                                <img src=""images/map10_PuBuGn_scaleRev_orientDef_000.png"" style= ""width:200px""alt=""img"">
                            </div>
                        </div>","98","","0","","","","images/map10_PuBuGn_scaleRev_orientDef_000.png","sad","1","10","10","PuBuGn","orientDef","scaleRev","000","",""
"","","","","","html-slider-response","30","6905247","0.0-26.0","ds0jqfnfpp","71","NaN","<div style=""width:500px;"">
                            <p style=""font-size:50px; font-weight:bold;""
                            >sad</p>
                            <div style=""width:240px; margin: auto;"">
                                <img src=""images/map27_Purples_scaleDef_orientDef_270.png"" style= ""width:200px""alt=""img"">
                            </div>
                        </div>","-200","","0","","","","images/map27_Purples_scaleDef_orientDef_270.png","sad","1","27","27","Purples","orientDef","scaleDef","270","",""
"","","","","","html-slider-response","31","6909197","0.0-27.0","ds0jqfnfpp","71","NaN","<div style=""width:500px;"">
                            <p style=""font-size:50px; font-weight:bold;""
                            >sad</p>
                            <div style=""width:240px; margin: auto;"">
                                <img src=""images/map27_Blues_scaleDef_orientMir_090.png"" style= ""width:200px""alt=""img"">
                            </div>
                        </div>","158","","0","","","","images/map27_Blues_scaleDef_orientMir_090.png","sad","1","27","27","Blues","orientMir","scaleDef","090","",""
"","","","","","html-slider-response","32","6911747","0.0-28.0","ds0jqfnfpp","71","NaN","<div style=""width:500px;"">
                            <p style=""font-size:50px; font-weight:bold;""
                            >sad</p>
                            <div style=""width:240px; margin: auto;"">
                                <img src=""images/map23_gist_earth_scaleRev_orientMir_000.png"" style= ""width:200px""alt=""img"">
                            </div>
                        </div>","34","","0","","","","images/map23_gist_earth_scaleRev_orientMir_000.png","sad","1","23","23","gist","scaleRev","earth","orientMir","",""
"","","","","","html-slider-response","33","6914748","0.0-29.0","ds0jqfnfpp","71","NaN","<div style=""width:500px;"">
                            <p style=""font-size:50px; font-weight:bold;""
                            >sad</p>
                            <div style=""width:240px; margin: auto;"">
                                <img src=""images/map13_RdYlBu_scaleRev_orientDef_180.png"" style= ""width:200px""alt=""img"">
                            </div>
                        </div>","-46","","0","","","","images/map13_RdYlBu_scaleRev_orientDef_180.png","sad","1","13","13","RdYlBu","orientDef","scaleRev","180","",""
"","","","","","html-slider-response","34","6917480","0.0-30.0","ds0jqfnfpp","71","NaN","<div style=""width:500px;"">
                            <p style=""font-size:50px; font-weight:bold;""
                            >sad</p>
                            <div style=""width:240px; margin: auto;"">
                                <img src=""images/map15_bwr_scaleDef_orientDef_090.png"" style= ""width:200px""alt=""img"">
                            </div>
                        </div>","-200","","0","","","","images/map15_bwr_scaleDef_orientDef_090.png","sad","1","15","15","bwr","orientDef","scaleDef","090","",""
"","","","","","html-slider-response","35","6921113","0.0-31.0","ds0jqfnfpp","71","NaN","<div style=""width:500px;"">
                            <p style=""font-size:50px; font-weight:bold;""
                            >sad</p>
                            <div style=""width:240px; margin: auto;"">
                                <img src=""images/map07_BuPu_scaleRev_orientDef_000.png"" style= ""width:200px""alt=""img"">
                            </div>
                        </div>","-12","","0","","","","images/map07_BuPu_scaleRev_orientDef_000.png","sad","1","07","07","BuPu","orientDef","scaleRev","000","",""
"","","","","","html-slider-response","36","6923647","0.0-32.0","ds0jqfnfpp","71","NaN","<div style=""width:500px;"">
                            <p style=""font-size:50px; font-weight:bold;""
                            >sad</p>
                            <div style=""width:240px; margin: auto;"">
                                <img src=""images/map02_Oranges_scaleDef_orientDef_090.png"" style= ""width:200px""alt=""img"">
                            </div>
                        </div>","-200","","0","","","","images/map02_Oranges_scaleDef_orientDef_090.png","sad","1","02","02","Oranges","orientDef","scaleDef","090","",""
"","","","","","html-slider-response","37","6926880","0.0-33.0","ds0jqfnfpp","71","NaN","<div style=""width:500px;"">
                            <p style=""font-size:50px; font-weight:bold;""
                            >sad</p>
                            <div style=""width:240px; margin: auto;"">
                                <img src=""images/map23_turbo_scaleDef_orientMir_090.png"" style= ""width:200px""alt=""img"">
                            </div>
                        </div>","-200","","0","","","","images/map23_turbo_scaleDef_orientMir_090.png","sad","1","23","23","turbo","orientMir","scaleDef","090","",""
"","","","","","html-slider-response","38","6929565","0.0-34.0","ds0jqfnfpp","71","NaN","<div style=""width:500px;"">
                            <p style=""font-size:50px; font-weight:bold;""
                            >sad</p>
                            <div style=""width:240px; margin: auto;"">
                                <img src=""images/map27_Greys_scaleDef_orientDef_090.png"" style= ""width:200px""alt=""img"">
                            </div>
                        </div>","200","","0","","","","images/map27_Greys_scaleDef_orientDef_090.png","sad","1","27","27","Greys","orientDef","scaleDef","090","",""
"","","","","","html-slider-response","39","6933340","0.0-35.0","ds0jqfnfpp","71","NaN","<div style=""width:500px;"">
                            <p style=""font-size:50px; font-weight:bold;""
                            >sad</p>
                            <div style=""width:240px; margin: auto;"">
                                <img src=""images/map12_RdGy_scaleDef_orientMir_090.png"" style= ""width:200px""alt=""img"">
                            </div>
                        </div>","-44","","0","","","","images/map12_RdGy_scaleDef_orientMir_090.png","sad","1","12","12","RdGy","orientMir","scaleDef","090","",""
"","","","","","html-slider-response","40","6936130","0.0-36.0","ds0jqfnfpp","71","NaN","<div style=""width:500px;"">
                            <p style=""font-size:50px; font-weight:bold;""
                            >sad</p>
                            <div style=""width:240px; margin: auto;"">
                                <img src=""images/map12_PuOr_scaleRev_orientMir_000.png"" style= ""width:200px""alt=""img"">
                            </div>
                        </div>","-200","","0","","","","images/map12_PuOr_scaleRev_orientMir_000.png","sad","1","12","12","PuOr","orientMir","scaleRev","000","",""
"","","","","","html-slider-response","41","6939413","0.0-37.0","ds0jqfnfpp","71","NaN","<div style=""width:500px;"">
                            <p style=""font-size:50px; font-weight:bold;""
                            >sad</p>
                            <div style=""width:240px; margin: auto;"">
                                <img src=""images/map12_RdBu_scaleDef_orientMir_270.png"" style= ""width:200px""alt=""img"">
                            </div>
                        </div>","-78","","0","","","","images/map12_RdBu_scaleDef_orientMir_270.png","sad","1","12","12","RdBu","orientMir","scaleDef","270","",""
"","","","","","html-slider-response","42","6944532","0.0-38.0","ds0jqfnfpp","71","NaN","<div style=""width:500px;"">
                            <p style=""font-size:50px; font-weight:bold;""
                            >sad</p>
                            <div style=""width:240px; margin: auto;"">
                                <img src=""images/map07_GnBu_scaleDef_orientDef_090.png"" style= ""width:200px""alt=""img"">
                            </div>
                        </div>","57","","0","","","","images/map07_GnBu_scaleDef_orientDef_090.png","sad","1","07","07","GnBu","orientDef","scaleDef","090","",""
"","","","","","html-slider-response","43","6948079","0.0-39.0","ds0jqfnfpp","71","NaN","<div style=""width:500px;"">
                            <p style=""font-size:50px; font-weight:bold;""
                            >sad</p>
                            <div style=""width:240px; margin: auto;"">
                                <img src=""images/map05_PuRd_scaleDef_orientDef_270.png"" style= ""width:200px""alt=""img"">
                            </div>
                        </div>","-200","","0","","","","images/map05_PuRd_scaleDef_orientDef_270.png","sad","1","05","05","PuRd","orientDef","scaleDef","270","",""
"","","","","","html-slider-response","44","6951380","0.0-40.0","ds0jqfnfpp","71","NaN","<div style=""width:500px;"">
                            <p style=""font-size:50px; font-weight:bold;""
                            >sad</p>
                            <div style=""width:240px; margin: auto;"">
                                <img src=""images/map26_magma_scaleDef_orientMir_090.png"" style= ""width:200px""alt=""img"">
                            </div>
                        </div>","62","","0","","","","images/map26_magma_scaleDef_orientMir_090.png","sad","1","26","26","magma","orientMir","scaleDef","090","",""
"","","","","","html-slider-response","45","6953878","0.0-41.0","ds0jqfnfpp","71","NaN","<div style=""width:500px;"">
                            <p style=""font-size:50px; font-weight:bold;""
                            >sad</p>
                            <div style=""width:240px; margin: auto;"">
                                <img src=""images/map15_seismic_scaleRev_orientMir_000.png"" style= ""width:200px""alt=""img"">
                            </div>
                        </div>","-200","","0","","","","images/map15_seismic_scaleRev_orientMir_000.png","sad","1","15","15","seismic","orientMir","scaleRev","000","",""
"","","","","","html-slider-response","46","6956595","0.0-42.0","ds0jqfnfpp","71","NaN","<div style=""width:500px;"">
                            <p style=""font-size:50px; font-weight:bold;""
                            >sad</p>
                            <div style=""width:240px; margin: auto;"">
                                <img src=""images/map02_Reds_scaleDef_orientDef_270.png"" style= ""width:200px""alt=""img"">
                            </div>
                        </div>","55","","0","","","","images/map02_Reds_scaleDef_orientDef_270.png","sad","1","02","02","Reds","orientDef","scaleDef","270","",""
"","","","","","html-slider-response","47","6959029","0.0-43.0","ds0jqfnfpp","71","NaN","<div style=""width:500px;"">
                            <p style=""font-size:50px; font-weight:bold;""
                            >sad</p>
                            <div style=""width:240px; margin: auto;"">
                                <img src=""images/map10_PRGn_scaleDef_orientMir_270.png"" style= ""width:200px""alt=""img"">
                            </div>
                        </div>","18","","0","","","","images/map10_PRGn_scaleDef_orientMir_270.png","sad","1","10","10","PRGn","orientMir","scaleDef","270","",""
"","","","","","html-slider-response","48","6961363","0.0-44.0","ds0jqfnfpp","71","NaN","<div style=""width:500px;"">
                            <p style=""font-size:50px; font-weight:bold;""
                            >sad</p>
                            <div style=""width:240px; margin: auto;"">
                                <img src=""images/map15_bwr_scaleRev_orientDef_180.png"" style= ""width:200px""alt=""img"">
                            </div>
                        </div>","-200","","0","","","","images/map15_bwr_scaleRev_orientDef_180.png","sad","1","15","15","bwr","orientDef","scaleRev","180","",""
"","","","","","html-slider-response","49","6964346","0.0-45.0","ds0jqfnfpp","71","NaN","<div style=""width:500px;"">
                            <p style=""font-size:50px; font-weight:bold;""
                            >sad</p>
                            <div style=""width:240px; margin: auto;"">
                                <img src=""images/map07_YlGnBu_scaleDef_orientMir_090.png"" style= ""width:200px""alt=""img"">
                            </div>
                        </div>","146","","0","","","","images/map07_YlGnBu_scaleDef_orientMir_090.png","sad","1","07","07","YlGnBu","orientMir","scaleDef","090","",""
"","","","","","html-slider-response","50","6966846","0.0-46.0","ds0jqfnfpp","71","NaN","<div style=""width:500px;"">
                            <p style=""font-size:50px; font-weight:bold;""
                            >sad</p>
                            <div style=""width:240px; margin: auto;"">
                                <img src=""images/map07_PuBu_scaleDef_orientDef_270.png"" style= ""width:200px""alt=""img"">
                            </div>
                        </div>","154","","0","","","","images/map07_PuBu_scaleDef_orientDef_270.png","sad","1","07","07","PuBu","orientDef","scaleDef","270","",""
"","","","","","html-slider-response","51","6971814","0.0-47.0","ds0jqfnfpp","71","NaN","<div style=""width:500px;"">
                            <p style=""font-size:50px; font-weight:bold;""
                            >sad</p>
                            <div style=""width:240px; margin: auto;"">
                                <img src=""images/map26_magma_scaleRev_orientMir_180.png"" style= ""width:200px""alt=""img"">
                            </div>
                        </div>","-200","","0","","","","images/map26_magma_scaleRev_orientMir_180.png","sad","1","26","26","magma","orientMir","scaleRev","180","",""
"","","","","","html-slider-response","52","6975895","0.0-48.0","ds0jqfnfpp","71","NaN","<div style=""width:500px;"">
                            <p style=""font-size:50px; font-weight:bold;""
                            >sad</p>
                            <div style=""width:240px; margin: auto;"">
                                <img src=""images/map10_YlGn_scaleRev_orientMir_000.png"" style= ""width:200px""alt=""img"">
                            </div>
                        </div>","-174","","0","","","","images/map10_YlGn_scaleRev_orientMir_000.png","sad","1","10","10","YlGn","orientMir","scaleRev","000","",""
"","","","","","html-slider-response","53","6984162","0.0-49.0","ds0jqfnfpp","71","NaN","<div style=""width:500px;"">
                            <p style=""font-size:50px; font-weight:bold;""
                            >sad</p>
                            <div style=""width:240px; margin: auto;"">
                                <img src=""images/map10_PiYG_scaleRev_orientMir_180.png"" style= ""width:200px""alt=""img"">
                            </div>
                        </div>","-200","","0","","","","images/map10_PiYG_scaleRev_orientMir_180.png","sad","1","10","10","PiYG","orientMir","scaleRev","180","",""
"","","","","","html-slider-response","54","6987212","0.0-50.0","ds0jqfnfpp","71","NaN","<div style=""width:500px;"">
                            <p style=""font-size:50px; font-weight:bold;""
                            >sad</p>
                            <div style=""width:240px; margin: auto;"">
                                <img src=""images/map05_RdPu_scaleRev_orientMir_180.png"" style= ""width:200px""alt=""img"">
                            </div>
                        </div>","-200","","0","","","","images/map05_RdPu_scaleRev_orientMir_180.png","sad","1","05","05","RdPu","orientMir","scaleRev","180","",""
"","","","","","html-slider-response","55","6991329","0.0-51.0","ds0jqfnfpp","71","NaN","<div style=""width:500px;"">
                            <p style=""font-size:50px; font-weight:bold;""
                            >sad</p>
                            <div style=""width:240px; margin: auto;"">
                                <img src=""images/map13_Spectral_scaleRev_orientMir_180.png"" style= ""width:200px""alt=""img"">
                            </div>
                        </div>","-96","","0","","","","images/map13_Spectral_scaleRev_orientMir_180.png","sad","1","13","13","Spectral","orientMir","scaleRev","180","",""
"","","","","","html-slider-response","56","6994678","0.0-52.0","ds0jqfnfpp","71","NaN","<div style=""width:500px;"">
                            <p style=""font-size:50px; font-weight:bold;""
                            >sad</p>
                            <div style=""width:240px; margin: auto;"">
                                <img src=""images/map02_YlOrBr_scaleDef_orientMir_090.png"" style= ""width:200px""alt=""img"">
                            </div>
                        </div>","-166","","0","","","","images/map02_YlOrBr_scaleDef_orientMir_090.png","sad","1","02","02","YlOrBr","orientMir","scaleDef","090","",""
"","","","","","html-slider-response","57","6997061","0.0-53.0","ds0jqfnfpp","71","NaN","<div style=""width:500px;"">
                            <p style=""font-size:50px; font-weight:bold;""
                            >sad</p>
                            <div style=""width:240px; margin: auto;"">
                                <img src=""images/map23_vanimo_scaleRev_orientDef_180.png"" style= ""width:200px""alt=""img"">
                            </div>
                        </div>","-174","","0","","","","images/map23_vanimo_scaleRev_orientDef_180.png","sad","1","23","23","vanimo","orientDef","scaleRev","180","",""
"","","","","","html-button-response","58","7002568","0.0-54.0","ds0jqfnfpp","71","5003","<p>You are doing great!<br></br> You are halway done with the current block. When you are ready to continue, click the 'Continue' button.</p>","0","","","","","","","","","","","","","","","",""
"","","","","","html-slider-response","59","7010695","0.0-55.0","ds0jqfnfpp","71","NaN","<div style=""width:500px;"">
                            <p style=""font-size:50px; font-weight:bold;""
                            >sad</p>
                            <div style=""width:240px; margin: auto;"">
                                <img src=""images/map05_OrRd_scaleDef_orientDef_090.png"" style= ""width:200px""alt=""img"">
                            </div>
                        </div>","34","","0","","","","images/map05_OrRd_scaleDef_orientDef_090.png","sad","1","05","05","OrRd","orientDef","scaleDef","090","",""
"","","","","","html-slider-response","60","7013813","0.0-56.0","ds0jqfnfpp","71","NaN","<div style=""width:500px;"">
                            <p style=""font-size:50px; font-weight:bold;""
                            >sad</p>
                            <div style=""width:240px; margin: auto;"">
                                <img src=""images/map12_BrBG_scaleRev_orientDef_180.png"" style= ""width:200px""alt=""img"">
                            </div>
                        </div>","57","","0","","","","images/map12_BrBG_scaleRev_orientDef_180.png","sad","1","12","12","BrBG","orientDef","scaleRev","180","",""
"","","","","","html-slider-response","61","7016510","0.0-57.0","ds0jqfnfpp","71","NaN","<div style=""width:500px;"">
                            <p style=""font-size:50px; font-weight:bold;""
                            >sad</p>
                            <div style=""width:240px; margin: auto;"">
                                <img src=""images/map26_cividis_scaleDef_orientMir_270.png"" style= ""width:200px""alt=""img"">
                            </div>
                        </div>","42","","0","","","","images/map26_cividis_scaleDef_orientMir_270.png","sad","1","26","26","cividis","orientMir","scaleDef","270","",""
"","","","","","html-slider-response","62","7020561","0.0-58.0","ds0jqfnfpp","71","NaN","<div style=""width:500px;"">
                            <p style=""font-size:50px; font-weight:bold;""
                            >sad</p>
                            <div style=""width:240px; margin: auto;"">
                                <img src=""images/map02_YlOrBr_scaleRev_orientMir_180.png"" style= ""width:200px""alt=""img"">
                            </div>
                        </div>","-166","","0","","","","images/map02_YlOrBr_scaleRev_orientMir_180.png","sad","1","02","02","YlOrBr","orientMir","scaleRev","180","",""
"","","","","","html-slider-response","63","7024795","0.0-59.0","ds0jqfnfpp","71","NaN","<div style=""width:500px;"">
                            <p style=""font-size:50px; font-weight:bold;""
                            >sad</p>
                            <div style=""width:240px; margin: auto;"">
                                <img src=""images/map27_Purples_scaleRev_orientMir_000.png"" style= ""width:200px""alt=""img"">
                            </div>
                        </div>","49","","0","","","","images/map27_Purples_scaleRev_orientMir_000.png","sad","1","27","27","Purples","orientMir","scaleRev","000","",""
"","","","","","html-slider-response","64","7028478","0.0-60.0","ds0jqfnfpp","71","NaN","<div style=""width:500px;"">
                            <p style=""font-size:50px; font-weight:bold;""
                            >sad</p>
                            <div style=""width:240px; margin: auto;"">
                                <img src=""images/map07_PuBuGn_scaleDef_orientMir_270.png"" style= ""width:200px""alt=""img"">
                            </div>
                        </div>","69","","0","","","","images/map07_PuBuGn_scaleDef_orientMir_270.png","sad","1","07","07","PuBuGn","orientMir","scaleDef","270","",""
"","","","","","html-slider-response","65","7031494","0.0-61.0","ds0jqfnfpp","71","NaN","<div style=""width:500px;"">
                            <p style=""font-size:50px; font-weight:bold;""
                            >sad</p>
                            <div style=""width:240px; margin: auto;"">
                                <img src=""images/map05_PuRd_scaleRev_orientMir_000.png"" style= ""width:200px""alt=""img"">
                            </div>
                        </div>","-200","","0","","","","images/map05_PuRd_scaleRev_orientMir_000.png","sad","1","05","05","PuRd","orientMir","scaleRev","000","",""
"","","","","","html-slider-response","66","7033694","0.0-62.0","ds0jqfnfpp","71","NaN","<div style=""width:500px;"">
                            <p style=""font-size:50px; font-weight:bold;""
                            >sad</p>
                            <div style=""width:240px; margin: auto;"">
                                <img src=""images/map27_Greys_scaleRev_orientDef_180.png"" style= ""width:200px""alt=""img"">
                            </div>
                        </div>","200","","0","","","","images/map27_Greys_scaleRev_orientDef_180.png","sad","1","27","27","Greys","orientDef","scaleRev","180","",""
"","","","","","html-slider-response","67","7037695","0.0-63.0","ds0jqfnfpp","71","NaN","<div style=""width:500px;"">
                            <p style=""font-size:50px; font-weight:bold;""
                            >sad</p>
                            <div style=""width:240px; margin: auto;"">
                                <img src=""images/map15_berlin_scaleDef_orientMir_090.png"" style= ""width:200px""alt=""img"">
                            </div>
                        </div>","-104","","0","","","","images/map15_berlin_scaleDef_orientMir_090.png","sad","1","15","15","berlin","orientMir","scaleDef","090","",""
"","","","","","html-slider-response","68","7043877","0.0-64.0","ds0jqfnfpp","71","NaN","<div style=""width:500px;"">
                            <p style=""font-size:50px; font-weight:bold;""
                            >sad</p>
                            <div style=""width:240px; margin: auto;"">
                                <img src=""images/map12_RdGy_scaleRev_orientMir_180.png"" style= ""width:200px""alt=""img"">
                            </div>
                        </div>","42","","0","","","","images/map12_RdGy_scaleRev_orientMir_180.png","sad","1","12","12","RdGy","orientMir","scaleRev","180","",""
"","","","","","html-slider-response","69","7046310","0.0-65.0","ds0jqfnfpp","71","NaN","<div style=""width:500px;"">
                            <p style=""font-size:50px; font-weight:bold;""
                            >sad</p>
                            <div style=""width:240px; margin: auto;"">
                                <img src=""images/map15_seismic_scaleDef_orientDef_270.png"" style= ""width:200px""alt=""img"">
                            </div>
                        </div>","-200","","0","","","","images/map15_seismic_scaleDef_orientDef_270.png","sad","1","15","15","seismic","orientDef","scaleDef","270","",""
"","","","","","html-slider-response","70","7050227","0.0-66.0","ds0jqfnfpp","71","NaN","<div style=""width:500px;"">
                            <p style=""font-size:50px; font-weight:bold;""
                            >sad</p>
                            <div style=""width:240px; margin: auto;"">
                                <img src=""images/map02_Greens_scaleRev_orientDef_000.png"" style= ""width:200px""alt=""img"">
                            </div>
                        </div>","-200","","0","","","","images/map02_Greens_scaleRev_orientDef_000.png","sad","1","02","02","Greens","orientDef","scaleRev","000","",""
"","","","","","html-slider-response","71","7053393","0.0-67.0","ds0jqfnfpp","71","NaN","<div style=""width:500px;"">
                            <p style=""font-size:50px; font-weight:bold;""
                            >sad</p>
                            <div style=""width:240px; margin: auto;"">
                                <img src=""images/map26_viridis_scaleRev_orientDef_000.png"" style= ""width:200px""alt=""img"">
                            </div>
                        </div>","-123","","0","","","","images/map26_viridis_scaleRev_orientDef_000.png","sad","1","26","26","viridis","orientDef","scaleRev","000","",""
"","","","","","html-slider-response","72","7057160","0.0-68.0","ds0jqfnfpp","71","NaN","<div style=""width:500px;"">
                            <p style=""font-size:50px; font-weight:bold;""
                            >sad</p>
                            <div style=""width:240px; margin: auto;"">
                                <img src=""images/map23_gist_earth_scaleDef_orientDef_270.png"" style= ""width:200px""alt=""img"">
                            </div>
                        </div>","134","","0","","","","images/map23_gist_earth_scaleDef_orientDef_270.png","sad","1","23","23","gist","scaleDef","earth","orientDef","",""
"","","","","","html-slider-response","73","7060362","0.0-69.0","ds0jqfnfpp","71","NaN","<div style=""width:500px;"">
                            <p style=""font-size:50px; font-weight:bold;""
                            >sad</p>
                            <div style=""width:240px; margin: auto;"">
                                <img src=""images/map27_Greens_scaleDef_orientMir_270.png"" style= ""width:200px""alt=""img"">
                            </div>
                        </div>","-53","","0","","","","images/map27_Greens_scaleDef_orientMir_270.png","sad","1","27","27","Greens","orientMir","scaleDef","270","",""
"","","","","","html-slider-response","74","7062910","0.0-70.0","ds0jqfnfpp","71","NaN","<div style=""width:500px;"">
                            <p style=""font-size:50px; font-weight:bold;""
                            >sad</p>
                            <div style=""width:240px; margin: auto;"">
                                <img src=""images/map07_PuBu_scaleRev_orientMir_000.png"" style= ""width:200px""alt=""img"">
                            </div>
                        </div>","154","","0","","","","images/map07_PuBu_scaleRev_orientMir_000.png","sad","1","07","07","PuBu","orientMir","scaleRev","000","",""
"","","","","","html-slider-response","75","7065844","0.0-71.0","ds0jqfnfpp","71","NaN","<div style=""width:500px;"">
                            <p style=""font-size:50px; font-weight:bold;""
                            >sad</p>
                            <div style=""width:240px; margin: auto;"">
                                <img src=""images/map13_RdYlGn_scaleRev_orientMir_000.png"" style= ""width:200px""alt=""img"">
                            </div>
                        </div>","-138","","0","","","","images/map13_RdYlGn_scaleRev_orientMir_000.png","sad","1","13","13","RdYlGn","orientMir","scaleRev","000","",""
"","","","","","html-slider-response","76","7069977","0.0-72.0","ds0jqfnfpp","71","NaN","<div style=""width:500px;"">
                            <p style=""font-size:50px; font-weight:bold;""
                            >sad</p>
                            <div style=""width:240px; margin: auto;"">
                                <img src=""images/map05_RdPu_scaleDef_orientMir_090.png"" style= ""width:200px""alt=""img"">
                            </div>
                        </div>","-166","","0","","","","images/map05_RdPu_scaleDef_orientMir_090.png","sad","1","05","05","RdPu","orientMir","scaleDef","090","",""
"","","","","","html-slider-response","77","7072761","0.0-73.0","ds0jqfnfpp","71","NaN","<div style=""width:500px;"">
                            <p style=""font-size:50px; font-weight:bold;""
                            >sad</p>
                            <div style=""width:240px; margin: auto;"">
                                <img src=""images/map02_Oranges_scaleRev_orientDef_180.png"" style= ""width:200px""alt=""img"">
                            </div>
                        </div>","-200","","0","","","","images/map02_Oranges_scaleRev_orientDef_180.png","sad","1","02","02","Oranges","orientDef","scaleRev","180","",""
"","","","","","html-slider-response","78","7075626","0.0-74.0","ds0jqfnfpp","71","NaN","<div style=""width:500px;"">
                            <p style=""font-size:50px; font-weight:bold;""
                            >sad</p>
                            <div style=""width:240px; margin: auto;"">
                                <img src=""images/map23_managua_scaleRev_orientDef_000.png"" style= ""width:200px""alt=""img"">
                            </div>
                        </div>","38","","0","","","","images/map23_managua_scaleRev_orientDef_000.png","sad","1","23","23","managua","orientDef","scaleRev","000","",""
"","","","","","html-slider-response","79","7078178","0.0-75.0","ds0jqfnfpp","71","NaN","<div style=""width:500px;"">
                            <p style=""font-size:50px; font-weight:bold;""
                            >sad</p>
                            <div style=""width:240px; margin: auto;"">
                                <img src=""images/map27_Blues_scaleRev_orientMir_180.png"" style= ""width:200px""alt=""img"">
                            </div>
                        </div>","136","","0","","","","images/map27_Blues_scaleRev_orientMir_180.png","sad","1","27","27","Blues","orientMir","scaleRev","180","",""
"","","","","","html-slider-response","80","7080777","0.0-76.0","ds0jqfnfpp","71","NaN","<div style=""width:500px;"">
                            <p style=""font-size:50px; font-weight:bold;""
                            >sad</p>
                            <div style=""width:240px; margin: auto;"">
                                <img src=""images/map05_OrRd_scaleRev_orientDef_180.png"" style= ""width:200px""alt=""img"">
                            </div>
                        </div>","43","","0","","","","images/map05_OrRd_scaleRev_orientDef_180.png","sad","1","05","05","OrRd","orientDef","scaleRev","180","",""
"","","","","","html-slider-response","81","7084375","0.0-77.0","ds0jqfnfpp","71","NaN","<div style=""width:500px;"">
                            <p style=""font-size:50px; font-weight:bold;""
                            >sad</p>
                            <div style=""width:240px; margin: auto;"">
                                <img src=""images/map10_YlGn_scaleDef_orientDef_270.png"" style= ""width:200px""alt=""img"">
                            </div>
                        </div>","29","","0","","","","images/map10_YlGn_scaleDef_orientDef_270.png","sad","1","10","10","YlGn","orientDef","scaleDef","270","",""
"","","","","","html-slider-response","82","7086458","0.0-78.0","ds0jqfnfpp","71","NaN","<div style=""width:500px;"">
                            <p style=""font-size:50px; font-weight:bold;""
                            >sad</p>
                            <div style=""width:240px; margin: auto;"">
                                <img src=""images/map23_viridis_scaleDef_orientMir_270.png"" style= ""width:200px""alt=""img"">
                            </div>
                        </div>","-55","","0","","","","images/map23_viridis_scaleDef_orientMir_270.png","sad","1","23","23","viridis","orientMir","scaleDef","270","",""
"","","","","","html-slider-response","83","7090110","0.0-79.0","ds0jqfnfpp","71","NaN","<div style=""width:500px;"">
                            <p style=""font-size:50px; font-weight:bold;""
                            >sad</p>
                            <div style=""width:240px; margin: auto;"">
                                <img src=""images/map13_coolwarm_scaleDef_orientMir_270.png"" style= ""width:200px""alt=""img"">
                            </div>
                        </div>","-149","","0","","","","images/map13_coolwarm_scaleDef_orientMir_270.png","sad","1","13","13","coolwarm","orientMir","scaleDef","270","",""
"","","","","","html-slider-response","84","7094093","0.0-80.0","ds0jqfnfpp","71","NaN","<div style=""width:500px;"">
                            <p style=""font-size:50px; font-weight:bold;""
                            >sad</p>
                            <div style=""width:240px; margin: auto;"">
                                <img src=""images/map10_BuGn_scaleRev_orientDef_180.png"" style= ""width:200px""alt=""img"">
                            </div>
                        </div>","34","","0","","","","images/map10_BuGn_scaleRev_orientDef_180.png","sad","1","10","10","BuGn","orientDef","scaleRev","180","",""
"","","","","","html-slider-response","85","7098659","0.0-81.0","ds0jqfnfpp","71","NaN","<div style=""width:500px;"">
                            <p style=""font-size:50px; font-weight:bold;""
                            >sad</p>
                            <div style=""width:240px; margin: auto;"">
                                <img src=""images/map12_BrBG_scaleDef_orientDef_090.png"" style= ""width:200px""alt=""img"">
                            </div>
                        </div>","67","","0","","","","images/map12_BrBG_scaleDef_orientDef_090.png","sad","1","12","12","BrBG","orientDef","scaleDef","090","",""
"","","","","","html-slider-response","86","7101608","0.0-82.0","ds0jqfnfpp","71","NaN","<div style=""width:500px;"">
                            <p style=""font-size:50px; font-weight:bold;""
                            >sad</p>
                            <div style=""width:240px; margin: auto;"">
                                <img src=""images/map23_vanimo_scaleDef_orientDef_090.png"" style= ""width:200px""alt=""img"">
                            </div>
                        </div>","-88","","0","","","","images/map23_vanimo_scaleDef_orientDef_090.png","sad","1","23","23","vanimo","orientDef","scaleDef","090","",""
"","","","","","html-slider-response","87","7103410","0.0-83.0","ds0jqfnfpp","71","NaN","<div style=""width:500px;"">
                            <p style=""font-size:50px; font-weight:bold;""
                            >sad</p>
                            <div style=""width:240px; margin: auto;"">
                                <img src=""images/map15_managua_scaleDef_orientMir_270.png"" style= ""width:200px""alt=""img"">
                            </div>
                        </div>","-93","","0","","","","images/map15_managua_scaleDef_orientMir_270.png","sad","1","15","15","managua","orientMir","scaleDef","270","",""
"","","","","","html-slider-response","88","7105577","0.0-84.0","ds0jqfnfpp","71","NaN","<div style=""width:500px;"">
                            <p style=""font-size:50px; font-weight:bold;""
                            >sad</p>
                            <div style=""width:240px; margin: auto;"">
                                <img src=""images/map07_YlGnBu_scaleRev_orientMir_180.png"" style= ""width:200px""alt=""img"">
                            </div>
                        </div>","111","","0","","","","images/map07_YlGnBu_scaleRev_orientMir_180.png","sad","1","07","07","YlGnBu","orientMir","scaleRev","180","",""
"","","","","","html-slider-response","89","7108508","0.0-85.0","ds0jqfnfpp","71","NaN","<div style=""width:500px;"">
                            <p style=""font-size:50px; font-weight:bold;""
                            >sad</p>
                            <div style=""width:240px; margin: auto;"">
                                <img src=""images/map26_plasma_scaleDef_orientDef_090.png"" style= ""width:200px""alt=""img"">
                            </div>
                        </div>","-200","","0","","","","images/map26_plasma_scaleDef_orientDef_090.png","sad","1","26","26","plasma","orientDef","scaleDef","090","",""
"","","","","","html-slider-response","90","7110643","0.0-86.0","ds0jqfnfpp","71","NaN","<div style=""width:500px;"">
                            <p style=""font-size:50px; font-weight:bold;""
                            >sad</p>
                            <div style=""width:240px; margin: auto;"">
                                <img src=""images/map27_cividis_scaleRev_orientDef_000.png"" style= ""width:200px""alt=""img"">
                            </div>
                        </div>","200","","0","","","","images/map27_cividis_scaleRev_orientDef_000.png","sad","1","27","27","cividis","orientDef","scaleRev","000","",""
"","","","","","html-slider-response","91","7113475","0.0-87.0","ds0jqfnfpp","71","NaN","<div style=""width:500px;"">
                            <p style=""font-size:50px; font-weight:bold;""
                            >sad</p>
                            <div style=""width:240px; margin: auto;"">
                                <img src=""images/map05_YlOrRd_scaleRev_orientDef_000.png"" style= ""width:200px""alt=""img"">
                            </div>
                        </div>","-70","","0","","","","images/map05_YlOrRd_scaleRev_orientDef_000.png","sad","1","05","05","YlOrRd","orientDef","scaleRev","000","",""
"","","","","","html-slider-response","92","7116192","0.0-88.0","ds0jqfnfpp","71","NaN","<div style=""width:500px;"">
                            <p style=""font-size:50px; font-weight:bold;""
                            >sad</p>
                            <div style=""width:240px; margin: auto;"">
                                <img src=""images/map23_turbo_scaleRev_orientMir_180.png"" style= ""width:200px""alt=""img"">
                            </div>
                        </div>","-200","","0","","","","images/map23_turbo_scaleRev_orientMir_180.png","sad","1","23","23","turbo","orientMir","scaleRev","180","",""
"","","","","","html-slider-response","93","7119342","0.0-89.0","ds0jqfnfpp","71","NaN","<div style=""width:500px;"">
                            <p style=""font-size:50px; font-weight:bold;""
                            >sad</p>
                            <div style=""width:240px; margin: auto;"">
                                <img src=""images/map10_PiYG_scaleDef_orientMir_090.png"" style= ""width:200px""alt=""img"">
                            </div>
                        </div>","-53","","0","","","","images/map10_PiYG_scaleDef_orientMir_090.png","sad","1","10","10","PiYG","orientMir","scaleDef","090","",""
"","","","","","html-slider-response","94","7121658","0.0-90.0","ds0jqfnfpp","71","NaN","<div style=""width:500px;"">
                            <p style=""font-size:50px; font-weight:bold;""
                            >sad</p>
                            <div style=""width:240px; margin: auto;"">
                                <img src=""images/map13_RdYlBu_scaleDef_orientDef_090.png"" style= ""width:200px""alt=""img"">
                            </div>
                        </div>","-58","","0","","","","images/map13_RdYlBu_scaleDef_orientDef_090.png","sad","1","13","13","RdYlBu","orientDef","scaleDef","090","",""
"","","","","","html-slider-response","95","7123558","0.0-91.0","ds0jqfnfpp","71","NaN","<div style=""width:500px;"">
                            <p style=""font-size:50px; font-weight:bold;""
                            >sad</p>
                            <div style=""width:240px; margin: auto;"">
                                <img src=""images/map13_Spectral_scaleDef_orientMir_090.png"" style= ""width:200px""alt=""img"">
                            </div>
                        </div>","-90","","0","","","","images/map13_Spectral_scaleDef_orientMir_090.png","sad","1","13","13","Spectral","orientMir","scaleDef","090","",""
"","","","","","html-slider-response","96","7125924","0.0-92.0","ds0jqfnfpp","71","NaN","<div style=""width:500px;"">
                            <p style=""font-size:50px; font-weight:bold;""
                            >sad</p>
                            <div style=""width:240px; margin: auto;"">
                                <img src=""images/map05_BuPu_scaleDef_orientMir_270.png"" style= ""width:200px""alt=""img"">
                            </div>
                        </div>","66","","0","","","","images/map05_BuPu_scaleDef_orientMir_270.png","sad","1","05","05","BuPu","orientMir","scaleDef","270","",""
"","","","","","html-slider-response","97","7128226","0.0-93.0","ds0jqfnfpp","71","NaN","<div style=""width:500px;"">
                            <p style=""font-size:50px; font-weight:bold;""
                            >sad</p>
                            <div style=""width:240px; margin: auto;"">
                                <img src=""images/map02_Reds_scaleRev_orientMir_000.png"" style= ""width:200px""alt=""img"">
                            </div>
                        </div>","-102","","0","","","","images/map02_Reds_scaleRev_orientMir_000.png","sad","1","02","02","Reds","orientMir","scaleRev","000","",""
"","","","","","html-slider-response","98","7130475","0.0-94.0","ds0jqfnfpp","71","NaN","<div style=""width:500px;"">
                            <p style=""font-size:50px; font-weight:bold;""
                            >sad</p>
                            <div style=""width:240px; margin: auto;"">
                                <img src=""images/map15_coolwarm_scaleRev_orientDef_000.png"" style= ""width:200px""alt=""img"">
                            </div>
                        </div>","30","","0","","","","images/map15_coolwarm_scaleRev_orientDef_000.png","sad","1","15","15","coolwarm","orientDef","scaleRev","000","",""
"","","","","","html-button-response","99","7137113","0.0-95.0","ds0jqfnfpp","71","6135","<p>Great Job! You've finished block 1.<br></br> You have 4 block(s) left to go.<br></br></p>","0","","","","","","","","","","","","","","","",""
"","","","","","html-button-response","100","7139530","0.0-96.0","ds0jqfnfpp","71","2416","<p>In this block of trials, you will be asked to rate how much you associate each map with:</p > <p style = 'font-size:150%; font-weight: bold'>disgust</p><br></br>","0","","","","","","","","","","","","","","","",""
"","","","","","html-slider-response","101","7142307","0.0-97.0","ds0jqfnfpp","71","NaN","<div style=""width:500px;"">
                            <p style=""font-size:50px; font-weight:bold;""
                            >disgust</p>
                            <div style=""width:240px; margin: auto;"">
                                <img src=""images/map12_RdGy_scaleDef_orientMir_090.png"" style= ""width:200px""alt=""img"">
                            </div>
                        </div>","58","","0","","","","images/map12_RdGy_scaleDef_orientMir_090.png","disgust","1","12","12","RdGy","orientMir","scaleDef","090","",""
"","","","","","html-slider-response","102","7147058","0.0-98.0","ds0jqfnfpp","71","NaN","<div style=""width:500px;"">
                            <p style=""font-size:50px; font-weight:bold;""
                            >disgust</p>
                            <div style=""width:240px; margin: auto;"">
                                <img src=""images/map10_BuGn_scaleDef_orientDef_090.png"" style= ""width:200px""alt=""img"">
                            </div>
                        </div>","98","","0","","","","images/map10_BuGn_scaleDef_orientDef_090.png","disgust","1","10","10","BuGn","orientDef","scaleDef","090","",""
"","","","","","html-slider-response","103","7151257","0.0-99.0","ds0jqfnfpp","71","NaN","<div style=""width:500px;"">
                            <p style=""font-size:50px; font-weight:bold;""
                            >disgust</p>
                            <div style=""width:240px; margin: auto;"">
                                <img src=""images/map12_PuOr_scaleDef_orientDef_270.png"" style= ""width:200px""alt=""img"">
                            </div>
                        </div>","-200","","0","","","","images/map12_PuOr_scaleDef_orientDef_270.png","disgust","1","12","12","PuOr","orientDef","scaleDef","270","",""
"","","","","","html-slider-response","104","7153107","0.0-100.0","ds0jqfnfpp","71","NaN","<div style=""width:500px;"">
                            <p style=""font-size:50px; font-weight:bold;""
                            >disgust</p>
                            <div style=""width:240px; margin: auto;"">
                                <img src=""images/map15_bwr_scaleRev_orientDef_180.png"" style= ""width:200px""alt=""img"">
                            </div>
                        </div>","-200","","0","","","","images/map15_bwr_scaleRev_orientDef_180.png","disgust","1","15","15","bwr","orientDef","scaleRev","180","",""
"","","","","","html-slider-response","105","7156224","0.0-101.0","ds0jqfnfpp","71","NaN","<div style=""width:500px;"">
                            <p style=""font-size:50px; font-weight:bold;""
                            >disgust</p>
                            <div style=""width:240px; margin: auto;"">
                                <img src=""images/map13_Spectral_scaleDef_orientMir_090.png"" style= ""width:200px""alt=""img"">
                            </div>
                        </div>","-200","","0","","","","images/map13_Spectral_scaleDef_orientMir_090.png","disgust","1","13","13","Spectral","orientMir","scaleDef","090","",""
"","","","","","html-slider-response","106","7158874","0.0-102.0","ds0jqfnfpp","71","NaN","<div style=""width:500px;"">
                            <p style=""font-size:50px; font-weight:bold;""
                            >disgust</p>
                            <div style=""width:240px; margin: auto;"">
                                <img src=""images/map02_Reds_scaleDef_orientDef_270.png"" style= ""width:200px""alt=""img"">
                            </div>
                        </div>","72","","0","","","","images/map02_Reds_scaleDef_orientDef_270.png","disgust","1","02","02","Reds","orientDef","scaleDef","270","",""
"","","","","","html-slider-response","107","7160773","0.0-103.0","ds0jqfnfpp","71","NaN","<div style=""width:500px;"">
                            <p style=""font-size:50px; font-weight:bold;""
                            >disgust</p>
                            <div style=""width:240px; margin: auto;"">
                                <img src=""images/map02_Oranges_scaleRev_orientDef_180.png"" style= ""width:200px""alt=""img"">
                            </div>
                        </div>","26","","0","","","","images/map02_Oranges_scaleRev_orientDef_180.png","disgust","1","02","02","Oranges","orientDef","scaleRev","180","",""
"","","","","","html-slider-response","108","7164174","0.0-104.0","ds0jqfnfpp","71","NaN","<div style=""width:500px;"">
                            <p style=""font-size:50px; font-weight:bold;""
                            >disgust</p>
                            <div style=""width:240px; margin: auto;"">
                                <img src=""images/map12_PRGn_scaleRev_orientDef_000.png"" style= ""width:200px""alt=""img"">
                            </div>
                        </div>","73","","0","","","","images/map12_PRGn_scaleRev_orientDef_000.png","disgust","1","12","12","PRGn","orientDef","scaleRev","000","",""
"","","","","","html-slider-response","109","7166007","0.0-105.0","ds0jqfnfpp","71","NaN","<div style=""width:500px;"">
                            <p style=""font-size:50px; font-weight:bold;""
                            >disgust</p>
                            <div style=""width:240px; margin: auto;"">
                                <img src=""images/map10_YlGn_scaleDef_orientDef_270.png"" style= ""width:200px""alt=""img"">
                            </div>
                        </div>","94","","0","","","","images/map10_YlGn_scaleDef_orientDef_270.png","disgust","1","10","10","YlGn","orientDef","scaleDef","270","",""
"","","","","","html-slider-response","110","7169341","0.0-106.0","ds0jqfnfpp","71","NaN","<div style=""width:500px;"">
                            <p style=""font-size:50px; font-weight:bold;""
                            >disgust</p>
                            <div style=""width:240px; margin: auto;"">
                                <img src=""images/map13_RdYlGn_scaleRev_orientMir_000.png"" style= ""width:200px""alt=""img"">
                            </div>
                        </div>","126","","0","","","","images/map13_RdYlGn_scaleRev_orientMir_000.png","disgust","1","13","13","RdYlGn","orientMir","scaleRev","000","",""
"","","","","","html-slider-response","111","7172391","0.0-107.0","ds0jqfnfpp","71","NaN","<div style=""width:500px;"">
                            <p style=""font-size:50px; font-weight:bold;""
                            >disgust</p>
                            <div style=""width:240px; margin: auto;"">
                                <img src=""images/map13_RdBu_scaleRev_orientDef_000.png"" style= ""width:200px""alt=""img"">
                            </div>
                        </div>","-99","","0","","","","images/map13_RdBu_scaleRev_orientDef_000.png","disgust","1","13","13","RdBu","orientDef","scaleRev","000","",""
"","","","","","html-slider-response","112","7174457","0.0-108.0","ds0jqfnfpp","71","NaN","<div style=""width:500px;"">
                            <p style=""font-size:50px; font-weight:bold;""
                            >disgust</p>
                            <div style=""width:240px; margin: auto;"">
                                <img src=""images/map02_Greens_scaleRev_orientDef_000.png"" style= ""width:200px""alt=""img"">
                            </div>
                        </div>","60","","0","","","","images/map02_Greens_scaleRev_orientDef_000.png","disgust","1","02","02","Greens","orientDef","scaleRev","000","",""
"","","","","","html-slider-response","113","7182822","0.0-109.0","ds0jqfnfpp","71","NaN","<div style=""width:500px;"">
                            <p style=""font-size:50px; font-weight:bold;""
                            >disgust</p>
                            <div style=""width:240px; margin: auto;"">
                                <img src=""images/map05_BuPu_scaleDef_orientMir_270.png"" style= ""width:200px""alt=""img"">
                            </div>
                        </div>","-200","","0","","","","images/map05_BuPu_scaleDef_orientMir_270.png","disgust","1","05","05","BuPu","orientMir","scaleDef","270","",""
"","","","","","html-slider-response","114","7185140","0.0-110.0","ds0jqfnfpp","71","NaN","<div style=""width:500px;"">
                            <p style=""font-size:50px; font-weight:bold;""
                            >disgust</p>
                            <div style=""width:240px; margin: auto;"">
                                <img src=""images/map15_seismic_scaleDef_orientDef_270.png"" style= ""width:200px""alt=""img"">
                            </div>
                        </div>","-200","","0","","","","images/map15_seismic_scaleDef_orientDef_270.png","disgust","1","15","15","seismic","orientDef","scaleDef","270","",""
"","","","","","html-slider-response","115","7187623","0.0-111.0","ds0jqfnfpp","71","NaN","<div style=""width:500px;"">
                            <p style=""font-size:50px; font-weight:bold;""
                            >disgust</p>
                            <div style=""width:240px; margin: auto;"">
                                <img src=""images/map07_GnBu_scaleRev_orientDef_180.png"" style= ""width:200px""alt=""img"">
                            </div>
                        </div>","-200","","0","","","","images/map07_GnBu_scaleRev_orientDef_180.png","disgust","1","07","07","GnBu","orientDef","scaleRev","180","",""
"","","","","","html-slider-response","116","7189991","0.0-112.0","ds0jqfnfpp","71","NaN","<div style=""width:500px;"">
                            <p style=""font-size:50px; font-weight:bold;""
                            >disgust</p>
                            <div style=""width:240px; margin: auto;"">
                                <img src=""images/map05_YlOrRd_scaleRev_orientDef_000.png"" style= ""width:200px""alt=""img"">
                            </div>
                        </div>","68","","0","","","","images/map05_YlOrRd_scaleRev_orientDef_000.png","disgust","1","05","05","YlOrRd","orientDef","scaleRev","000","",""
"","","","","","html-slider-response","117","7192839","0.0-113.0","ds0jqfnfpp","71","NaN","<div style=""width:500px;"">
                            <p style=""font-size:50px; font-weight:bold;""
                            >disgust</p>
                            <div style=""width:240px; margin: auto;"">
                                <img src=""images/map12_RdGy_scaleRev_orientMir_180.png"" style= ""width:200px""alt=""img"">
                            </div>
                        </div>","22","","0","","","","images/map12_RdGy_scaleRev_orientMir_180.png","disgust","1","12","12","RdGy","orientMir","scaleRev","180","",""
"","","","","","html-slider-response","118","7201390","0.0-114.0","ds0jqfnfpp","71","NaN","<div style=""width:500px;"">
                            <p style=""font-size:50px; font-weight:bold;""
                            >disgust</p>
                            <div style=""width:240px; margin: auto;"">
                                <img src=""images/map26_inferno_scaleDef_orientDef_270.png"" style= ""width:200px""alt=""img"">
                            </div>
                        </div>","2","","0","","","","images/map26_inferno_scaleDef_orientDef_270.png","disgust","1","26","26","inferno","orientDef","scaleDef","270","",""
"","","","","","html-slider-response","119","7204973","0.0-115.0","ds0jqfnfpp","71","NaN","<div style=""width:500px;"">
                            <p style=""font-size:50px; font-weight:bold;""
                            >disgust</p>
                            <div style=""width:240px; margin: auto;"">
                                <img src=""images/map15_berlin_scaleRev_orientMir_180.png"" style= ""width:200px""alt=""img"">
                            </div>
                        </div>","-52","","0","","","","images/map15_berlin_scaleRev_orientMir_180.png","disgust","1","15","15","berlin","orientMir","scaleRev","180","",""
"","","","","","html-slider-response","120","7207889","0.0-116.0","ds0jqfnfpp","71","NaN","<div style=""width:500px;"">
                            <p style=""font-size:50px; font-weight:bold;""
                            >disgust</p>
                            <div style=""width:240px; margin: auto;"">
                                <img src=""images/map02_Oranges_scaleDef_orientDef_090.png"" style= ""width:200px""alt=""img"">
                            </div>
                        </div>","40","","0","","","","images/map02_Oranges_scaleDef_orientDef_090.png","disgust","1","02","02","Oranges","orientDef","scaleDef","090","",""
"","","","","","html-slider-response","121","7209924","0.0-117.0","ds0jqfnfpp","71","NaN","<div style=""width:500px;"">
                            <p style=""font-size:50px; font-weight:bold;""
                            >disgust</p>
                            <div style=""width:240px; margin: auto;"">
                                <img src=""images/map27_cividis_scaleRev_orientDef_000.png"" style= ""width:200px""alt=""img"">
                            </div>
                        </div>","122","","0","","","","images/map27_cividis_scaleRev_orientDef_000.png","disgust","1","27","27","cividis","orientDef","scaleRev","000","",""
"","","","","","html-slider-response","122","7211606","0.0-118.0","ds0jqfnfpp","71","NaN","<div style=""width:500px;"">
                            <p style=""font-size:50px; font-weight:bold;""
                            >disgust</p>
                            <div style=""width:240px; margin: auto;"">
                                <img src=""images/map26_viridis_scaleRev_orientDef_000.png"" style= ""width:200px""alt=""img"">
                            </div>
                        </div>","-88","","0","","","","images/map26_viridis_scaleRev_orientDef_000.png","disgust","1","26","26","viridis","orientDef","scaleRev","000","",""
"","","","","","html-slider-response","123","7213889","0.0-119.0","ds0jqfnfpp","71","NaN","<div style=""width:500px;"">
                            <p style=""font-size:50px; font-weight:bold;""
                            >disgust</p>
                            <div style=""width:240px; margin: auto;"">
                                <img src=""images/map26_magma_scaleRev_orientMir_180.png"" style= ""width:200px""alt=""img"">
                            </div>
                        </div>","-75","","0","","","","images/map26_magma_scaleRev_orientMir_180.png","disgust","1","26","26","magma","orientMir","scaleRev","180","",""
"","","","","","html-slider-response","124","7215990","0.0-120.0","ds0jqfnfpp","71","NaN","<div style=""width:500px;"">
                            <p style=""font-size:50px; font-weight:bold;""
                            >disgust</p>
                            <div style=""width:240px; margin: auto;"">
                                <img src=""images/map10_YlGn_scaleRev_orientMir_000.png"" style= ""width:200px""alt=""img"">
                            </div>
                        </div>","75","","0","","","","images/map10_YlGn_scaleRev_orientMir_000.png","disgust","1","10","10","YlGn","orientMir","scaleRev","000","",""
"","","","","","html-slider-response","125","7218623","0.0-121.0","ds0jqfnfpp","71","NaN","<div style=""width:500px;"">
                            <p style=""font-size:50px; font-weight:bold;""
                            >disgust</p>
                            <div style=""width:240px; margin: auto;"">
                                <img src=""images/map12_RdBu_scaleDef_orientMir_270.png"" style= ""width:200px""alt=""img"">
                            </div>
                        </div>","-100","","0","","","","images/map12_RdBu_scaleDef_orientMir_270.png","disgust","1","12","12","RdBu","orientMir","scaleDef","270","",""
"","","","","","html-slider-response","126","7220805","0.0-122.0","ds0jqfnfpp","71","NaN","<div style=""width:500px;"">
                            <p style=""font-size:50px; font-weight:bold;""
                            >disgust</p>
                            <div style=""width:240px; margin: auto;"">
                                <img src=""images/map07_PuBuGn_scaleDef_orientMir_270.png"" style= ""width:200px""alt=""img"">
                            </div>
                        </div>","-200","","0","","","","images/map07_PuBuGn_scaleDef_orientMir_270.png","disgust","1","07","07","PuBuGn","orientMir","scaleDef","270","",""
"","","","","","html-slider-response","127","7224739","0.0-123.0","ds0jqfnfpp","71","NaN","<div style=""width:500px;"">
                            <p style=""font-size:50px; font-weight:bold;""
                            >disgust</p>
                            <div style=""width:240px; margin: auto;"">
                                <img src=""images/map10_PiYG_scaleDef_orientMir_090.png"" style= ""width:200px""alt=""img"">
                            </div>
                        </div>","-136","","0","","","","images/map10_PiYG_scaleDef_orientMir_090.png","disgust","1","10","10","PiYG","orientMir","scaleDef","090","",""
"","","","","","html-slider-response","128","7227155","0.0-124.0","ds0jqfnfpp","71","NaN","<div style=""width:500px;"">
                            <p style=""font-size:50px; font-weight:bold;""
                            >disgust</p>
                            <div style=""width:240px; margin: auto;"">
                                <img src=""images/map02_YlOrBr_scaleDef_orientMir_090.png"" style= ""width:200px""alt=""img"">
                            </div>
                        </div>","84","","0","","","","images/map02_YlOrBr_scaleDef_orientMir_090.png","disgust","1","02","02","YlOrBr","orientMir","scaleDef","090","",""
"","","","","","html-slider-response","129","7229672","0.0-125.0","ds0jqfnfpp","71","NaN","<div style=""width:500px;"">
                            <p style=""font-size:50px; font-weight:bold;""
                            >disgust</p>
                            <div style=""width:240px; margin: auto;"">
                                <img src=""images/map05_OrRd_scaleRev_orientDef_180.png"" style= ""width:200px""alt=""img"">
                            </div>
                        </div>","105","","0","","","","images/map05_OrRd_scaleRev_orientDef_180.png","disgust","1","05","05","OrRd","orientDef","scaleRev","180","",""
"","","","","","html-slider-response","130","7231855","0.0-126.0","ds0jqfnfpp","71","NaN","<div style=""width:500px;"">
                            <p style=""font-size:50px; font-weight:bold;""
                            >disgust</p>
                            <div style=""width:240px; margin: auto;"">
                                <img src=""images/map27_Purples_scaleDef_orientDef_270.png"" style= ""width:200px""alt=""img"">
                            </div>
                        </div>","-200","","0","","","","images/map27_Purples_scaleDef_orientDef_270.png","disgust","1","27","27","Purples","orientDef","scaleDef","270","",""
"","","","","","html-slider-response","131","7233872","0.0-127.0","ds0jqfnfpp","71","NaN","<div style=""width:500px;"">
                            <p style=""font-size:50px; font-weight:bold;""
                            >disgust</p>
                            <div style=""width:240px; margin: auto;"">
                                <img src=""images/map27_Blues_scaleDef_orientMir_090.png"" style= ""width:200px""alt=""img"">
                            </div>
                        </div>","-200","","0","","","","images/map27_Blues_scaleDef_orientMir_090.png","disgust","1","27","27","Blues","orientMir","scaleDef","090","",""
"","","","","","html-slider-response","132","7236389","0.0-128.0","ds0jqfnfpp","71","NaN","<div style=""width:500px;"">
                            <p style=""font-size:50px; font-weight:bold;""
                            >disgust</p>
                            <div style=""width:240px; margin: auto;"">
                                <img src=""images/map23_managua_scaleRev_orientDef_000.png"" style= ""width:200px""alt=""img"">
                            </div>
                        </div>","177","","0","","","","images/map23_managua_scaleRev_orientDef_000.png","disgust","1","23","23","managua","orientDef","scaleRev","000","",""
"","","","","","html-slider-response","133","7238422","0.0-129.0","ds0jqfnfpp","71","NaN","<div style=""width:500px;"">
                            <p style=""font-size:50px; font-weight:bold;""
                            >disgust</p>
                            <div style=""width:240px; margin: auto;"">
                                <img src=""images/map07_GnBu_scaleDef_orientDef_090.png"" style= ""width:200px""alt=""img"">
                            </div>
                        </div>","-200","","0","","","","images/map07_GnBu_scaleDef_orientDef_090.png","disgust","1","07","07","GnBu","orientDef","scaleDef","090","",""
"","","","","","html-slider-response","134","7240589","0.0-130.0","ds0jqfnfpp","71","NaN","<div style=""width:500px;"">
                            <p style=""font-size:50px; font-weight:bold;""
                            >disgust</p>
                            <div style=""width:240px; margin: auto;"">
                                <img src=""images/map27_Blues_scaleRev_orientMir_180.png"" style= ""width:200px""alt=""img"">
                            </div>
                        </div>","-200","","0","","","","images/map27_Blues_scaleRev_orientMir_180.png","disgust","1","27","27","Blues","orientMir","scaleRev","180","",""
"","","","","","html-slider-response","135","7242505","0.0-131.0","ds0jqfnfpp","71","NaN","<div style=""width:500px;"">
                            <p style=""font-size:50px; font-weight:bold;""
                            >disgust</p>
                            <div style=""width:240px; margin: auto;"">
                                <img src=""images/map05_PuRd_scaleDef_orientDef_270.png"" style= ""width:200px""alt=""img"">
                            </div>
                        </div>","-200","","0","","","","images/map05_PuRd_scaleDef_orientDef_270.png","disgust","1","05","05","PuRd","orientDef","scaleDef","270","",""
"","","","","","html-slider-response","136","7244921","0.0-132.0","ds0jqfnfpp","71","NaN","<div style=""width:500px;"">
                            <p style=""font-size:50px; font-weight:bold;""
                            >disgust</p>
                            <div style=""width:240px; margin: auto;"">
                                <img src=""images/map10_PiYG_scaleRev_orientMir_180.png"" style= ""width:200px""alt=""img"">
                            </div>
                        </div>","-154","","0","","","","images/map10_PiYG_scaleRev_orientMir_180.png","disgust","1","10","10","PiYG","orientMir","scaleRev","180","",""
"","","","","","html-slider-response","137","7247488","0.0-133.0","ds0jqfnfpp","71","NaN","<div style=""width:500px;"">
                            <p style=""font-size:50px; font-weight:bold;""
                            >disgust</p>
                            <div style=""width:240px; margin: auto;"">
                                <img src=""images/map23_viridis_scaleDef_orientMir_270.png"" style= ""width:200px""alt=""img"">
                            </div>
                        </div>","-200","","0","","","","images/map23_viridis_scaleDef_orientMir_270.png","disgust","1","23","23","viridis","orientMir","scaleDef","270","",""
"","","","","","html-slider-response","138","7249507","0.0-134.0","ds0jqfnfpp","71","NaN","<div style=""width:500px;"">
                            <p style=""font-size:50px; font-weight:bold;""
                            >disgust</p>
                            <div style=""width:240px; margin: auto;"">
                                <img src=""images/map05_OrRd_scaleDef_orientDef_090.png"" style= ""width:200px""alt=""img"">
                            </div>
                        </div>","100","","0","","","","images/map05_OrRd_scaleDef_orientDef_090.png","disgust","1","05","05","OrRd","orientDef","scaleDef","090","",""
"","","","","","html-slider-response","139","7252922","0.0-135.0","ds0jqfnfpp","71","NaN","<div style=""width:500px;"">
                            <p style=""font-size:50px; font-weight:bold;""
                            >disgust</p>
                            <div style=""width:240px; margin: auto;"">
                                <img src=""images/map23_turbo_scaleDef_orientMir_090.png"" style= ""width:200px""alt=""img"">
                            </div>
                        </div>","-90","","0","","","","images/map23_turbo_scaleDef_orientMir_090.png","disgust","1","23","23","turbo","orientMir","scaleDef","090","",""
"","","","","","html-slider-response","140","7255172","0.0-136.0","ds0jqfnfpp","71","NaN","<div style=""width:500px;"">
                            <p style=""font-size:50px; font-weight:bold;""
                            >disgust</p>
                            <div style=""width:240px; margin: auto;"">
                                <img src=""images/map15_managua_scaleDef_orientMir_270.png"" style= ""width:200px""alt=""img"">
                            </div>
                        </div>","62","","0","","","","images/map15_managua_scaleDef_orientMir_270.png","disgust","1","15","15","managua","orientMir","scaleDef","270","",""
"","","","","","html-button-response","141","7257209","0.0-137.0","ds0jqfnfpp","71","1535","<p>You are doing great!<br></br> You are halway done with the current block. When you are ready to continue, click the 'Continue' button.</p>","0","","","","","","","","","","","","","","","",""
"","","","","","html-slider-response","142","7259573","0.0-138.0","ds0jqfnfpp","71","NaN","<div style=""width:500px;"">
                            <p style=""font-size:50px; font-weight:bold;""
                            >disgust</p>
                            <div style=""width:240px; margin: auto;"">
                                <img src=""images/map27_Greens_scaleDef_orientMir_270.png"" style= ""width:200px""alt=""img"">
                            </div>
                        </div>","54","","0","","","","images/map27_Greens_scaleDef_orientMir_270.png","disgust","1","27","27","Greens","orientMir","scaleDef","270","",""
"","","","","","html-slider-response","143","7261687","0.0-139.0","ds0jqfnfpp","71","NaN","<div style=""width:500px;"">
                            <p style=""font-size:50px; font-weight:bold;""
                            >disgust</p>
                            <div style=""width:240px; margin: auto;"">
                                <img src=""images/map05_PuRd_scaleRev_orientMir_000.png"" style= ""width:200px""alt=""img"">
                            </div>
                        </div>","-200","","0","","","","images/map05_PuRd_scaleRev_orientMir_000.png","disgust","1","05","05","PuRd","orientMir","scaleRev","000","",""
"","","","","","html-slider-response","144","7264238","0.0-140.0","ds0jqfnfpp","71","NaN","<div style=""width:500px;"">
                            <p style=""font-size:50px; font-weight:bold;""
                            >disgust</p>
                            <div style=""width:240px; margin: auto;"">
                                <img src=""images/map13_Spectral_scaleRev_orientMir_180.png"" style= ""width:200px""alt=""img"">
                            </div>
                        </div>","-45","","0","","","","images/map13_Spectral_scaleRev_orientMir_180.png","disgust","1","13","13","Spectral","orientMir","scaleRev","180","",""
"","","","","","html-slider-response","145","7266004","0.0-141.0","ds0jqfnfpp","71","NaN","<div style=""width:500px;"">
                            <p style=""font-size:50px; font-weight:bold;""
                            >disgust</p>
                            <div style=""width:240px; margin: auto;"">
                                <img src=""images/map23_turbo_scaleRev_orientMir_180.png"" style= ""width:200px""alt=""img"">
                            </div>
                        </div>","-27","","0","","","","images/map23_turbo_scaleRev_orientMir_180.png","disgust","1","23","23","turbo","orientMir","scaleRev","180","",""
"","","","","","html-slider-response","146","7268489","0.0-142.0","ds0jqfnfpp","71","NaN","<div style=""width:500px;"">
                            <p style=""font-size:50px; font-weight:bold;""
                            >disgust</p>
                            <div style=""width:240px; margin: auto;"">
                                <img src=""images/map02_Reds_scaleRev_orientMir_000.png"" style= ""width:200px""alt=""img"">
                            </div>
                        </div>","102","","0","","","","images/map02_Reds_scaleRev_orientMir_000.png","disgust","1","02","02","Reds","orientMir","scaleRev","000","",""
"","","","","","html-slider-response","147","7270471","0.0-143.0","ds0jqfnfpp","71","NaN","<div style=""width:500px;"">
                            <p style=""font-size:50px; font-weight:bold;""
                            >disgust</p>
                            <div style=""width:240px; margin: auto;"">
                                <img src=""images/map15_seismic_scaleRev_orientMir_000.png"" style= ""width:200px""alt=""img"">
                            </div>
                        </div>","-200","","0","","","","images/map15_seismic_scaleRev_orientMir_000.png","disgust","1","15","15","seismic","orientMir","scaleRev","000","",""
"","","","","","html-slider-response","148","7272404","0.0-144.0","ds0jqfnfpp","71","NaN","<div style=""width:500px;"">
                            <p style=""font-size:50px; font-weight:bold;""
                            >disgust</p>
                            <div style=""width:240px; margin: auto;"">
                                <img src=""images/map13_RdYlBu_scaleDef_orientDef_090.png"" style= ""width:200px""alt=""img"">
                            </div>
                        </div>","-44","","0","","","","images/map13_RdYlBu_scaleDef_orientDef_090.png","disgust","1","13","13","RdYlBu","orientDef","scaleDef","090","",""
"","","","","","html-slider-response","149","7276188","0.0-145.0","ds0jqfnfpp","71","NaN","<div style=""width:500px;"">
                            <p style=""font-size:50px; font-weight:bold;""
                            >disgust</p>
                            <div style=""width:240px; margin: auto;"">
                                <img src=""images/map02_YlOrRd_scaleDef_orientMir_270.png"" style= ""width:200px""alt=""img"">
                            </div>
                        </div>","95","","0","","","","images/map02_YlOrRd_scaleDef_orientMir_270.png","disgust","1","02","02","YlOrRd","orientMir","scaleDef","270","",""
"","","","","","html-slider-response","150","7278155","0.0-146.0","ds0jqfnfpp","71","NaN","<div style=""width:500px;"">
                            <p style=""font-size:50px; font-weight:bold;""
                            >disgust</p>
                            <div style=""width:240px; margin: auto;"">
                                <img src=""images/map12_BrBG_scaleRev_orientDef_180.png"" style= ""width:200px""alt=""img"">
                            </div>
                        </div>","14","","0","","","","images/map12_BrBG_scaleRev_orientDef_180.png","disgust","1","12","12","BrBG","orientDef","scaleRev","180","",""
"","","","","","html-slider-response","151","7280138","0.0-147.0","ds0jqfnfpp","71","NaN","<div style=""width:500px;"">
                            <p style=""font-size:50px; font-weight:bold;""
                            >disgust</p>
                            <div style=""width:240px; margin: auto;"">
                                <img src=""images/map13_RdYlBu_scaleRev_orientDef_180.png"" style= ""width:200px""alt=""img"">
                            </div>
                        </div>","37","","0","","","","images/map13_RdYlBu_scaleRev_orientDef_180.png","disgust","1","13","13","RdYlBu","orientDef","scaleRev","180","",""
"","","","","","html-slider-response","152","7282455","0.0-148.0","ds0jqfnfpp","71","NaN","<div style=""width:500px;"">
                            <p style=""font-size:50px; font-weight:bold;""
                            >disgust</p>
                            <div style=""width:240px; margin: auto;"">
                                <img src=""images/map10_PRGn_scaleDef_orientMir_270.png"" style= ""width:200px""alt=""img"">
                            </div>
                        </div>","61","","0","","","","images/map10_PRGn_scaleDef_orientMir_270.png","disgust","1","10","10","PRGn","orientMir","scaleDef","270","",""
"","","","","","html-slider-response","153","7285320","0.0-149.0","ds0jqfnfpp","71","NaN","<div style=""width:500px;"">
                            <p style=""font-size:50px; font-weight:bold;""
                            >disgust</p>
                            <div style=""width:240px; margin: auto;"">
                                <img src=""images/map12_PuOr_scaleRev_orientMir_000.png"" style= ""width:200px""alt=""img"">
                            </div>
                        </div>","156","","0","","","","images/map12_PuOr_scaleRev_orientMir_000.png","disgust","1","12","12","PuOr","orientMir","scaleRev","000","",""
"","","","","","html-slider-response","154","7288405","0.0-150.0","ds0jqfnfpp","71","NaN","<div style=""width:500px;"">
                            <p style=""font-size:50px; font-weight:bold;""
                            >disgust</p>
                            <div style=""width:240px; margin: auto;"">
                                <img src=""images/map26_cividis_scaleDef_orientMir_270.png"" style= ""width:200px""alt=""img"">
                            </div>
                        </div>","102","","0","","","","images/map26_cividis_scaleDef_orientMir_270.png","disgust","1","26","26","cividis","orientMir","scaleDef","270","",""
"","","","","","html-slider-response","155","7290270","0.0-151.0","ds0jqfnfpp","71","NaN","<div style=""width:500px;"">
                            <p style=""font-size:50px; font-weight:bold;""
                            >disgust</p>
                            <div style=""width:240px; margin: auto;"">
                                <img src=""images/map26_magma_scaleDef_orientMir_090.png"" style= ""width:200px""alt=""img"">
                            </div>
                        </div>","30","","0","","","","images/map26_magma_scaleDef_orientMir_090.png","disgust","1","26","26","magma","orientMir","scaleDef","090","",""
"","","","","","html-slider-response","156","7292636","0.0-152.0","ds0jqfnfpp","71","NaN","<div style=""width:500px;"">
                            <p style=""font-size:50px; font-weight:bold;""
                            >disgust</p>
                            <div style=""width:240px; margin: auto;"">
                                <img src=""images/map26_inferno_scaleRev_orientMir_000.png"" style= ""width:200px""alt=""img"">
                            </div>
                        </div>","45","","0","","","","images/map26_inferno_scaleRev_orientMir_000.png","disgust","1","26","26","inferno","orientMir","scaleRev","000","",""
"","","","","","html-slider-response","157","7295087","0.0-153.0","ds0jqfnfpp","71","NaN","<div style=""width:500px;"">
                            <p style=""font-size:50px; font-weight:bold;""
                            >disgust</p>
                            <div style=""width:240px; margin: auto;"">
                                <img src=""images/map07_BuPu_scaleRev_orientDef_000.png"" style= ""width:200px""alt=""img"">
                            </div>
                        </div>","-200","","0","","","","images/map07_BuPu_scaleRev_orientDef_000.png","disgust","1","07","07","BuPu","orientDef","scaleRev","000","",""
