"success","timeout","failed_images","failed_audio","failed_video","trial_type","trial_index","time_elapsed","internal_node_id","subject_id","condition_num","rt","stimulus","response","question_order","slider_start","practiceTrial","practiceTrialNum","correct","image_path","concept","repetition","map_id","map_num","scale_name","orientation_code","mapping_code","rotation_code","ishihara_plate","correct_response"
"true","false","[]","[]","[]","preload","0","696","0.0-0.0","ea08oqhvbt","70","","","","","","","","","","","","","","","","","","",""
"","","","","","html-button-response","1","15101","0.0-1.0","ea08oqhvbt","70","14405","Welcome to our experiment!<p>At the bottom of this screen, you will see a button that says ""Begin Experiment"".<br>Please only click that button when you are ready to complete the 30 minute experiment in one sitting.</p><p> Once you click that button, it will not be possible to restart the experiment.","0","","","","","","","","","","","","","","","",""
"true","","","","","fullscreen","2","19376","0.0-2.0","ea08oqhvbt","70","3268","","","","","","","","","","","","","","","","","",""
"","","","","","survey-multi-select","3","34830","0.0-3.0","ea08oqhvbt","70","15449","","{""Consent"":[""<strong>I consent</strong>""]}","[0]","","","","","","","","","","","","","","",""
"","","","","","html-button-response","4","39905","0.0-4.0","ea08oqhvbt","70","5073","Welcome! <p> This experiment involves two parts: demographic information, followed by the experimental task.<p> It will take about 30 minutes to complete both parts.","0","","","","","","","","","","","","","","","",""
"","","","","","survey-text","5","68694","0.0-5.0","ea08oqhvbt","70","28772","","{""Age"":""20"",""Gender"":""female"",""Race/ethnicity"":""white"",""Languages"":""english and a small amount of spanish""}","","","","","","","","","","","","","","","",""
"","","","","","html-slider-response","6","159542","0.0-6.0","ea08oqhvbt","70","90844","<div style='text-align:left; font-size:20px; line-height:25px; width: 1000px;'>
                                During this experiment you will be asked to rate how much you associate maps with                    different concepts.<br> Below, you can see some examples of the maps you will be asked to rate. Above the maps
                    is the list of concepts.<br>You will be asked                    to rate how much you associate each map with each concept on a scale from 'not at all' to 'very much' like the
                    one below. <br><br>
                    Now, please look at the list of concepts and maps. For each concept, think about the map you associate 'very
                    much' with the concept.<br>                     When you see that map during the experiment, please rate it near the 'very much' endpoint of the
                    scale.<br>Now, please think about which map you associate 'not at all'                     with each concept. When you see that map during the experiment, please rate it near the 'not at all' endpoint
                    of the scale.<br>
                    Please use the full range of the scale. That is, if a map is somewhat associated with the concept, you would
                    click partway between the middle point and right side of the scale.                    You will be asked to rate each map for a given concept before moving on to the next concept.<br>Press the
                    'Continue' button for instructions on how to use the slider.                    <br>
                </div>

                <div style=""width: 500px; margin: 0 auto;"">
                    <!-- Centered text paragraphs -->
                    <div style=""text-align: center; width: 500px;"">
                        <p style=""font-size:25px; line-height:15px;"">
                            angry&nbsp;&nbsp;&nbsp;&nbsp;
                            fearful&nbsp;&nbsp;&nbsp;&nbsp;
                            disgust&nbsp;&nbsp;&nbsp;&nbsp;
                            sad&nbsp;&nbsp;&nbsp;&nbsp;
                            happy
                        </p>
                        <!-- <p style=""font-size:20px; line-height:15px;"">fearful</p>
                        <p style=""font-size:20px;line-height:15px;"">disgust</p>
                        <p style=""font-size:20px;line-height:15px;"">sad</p>
                        <p style=""font-size:20px;line-height:15px;"">happy</p> -->
                    </div>
            

                    <!-- Grid section -->
                   <div style=""display: flex; justify-content: center; padding-top: 15px;"">
                    <div style=""display: grid; grid-template-columns: repeat(10, 55px); grid-gap: 5px; width: auto;"">
                        <img src=""images/map27_plasma_scaleRev_orientDef_090.png"" alt=""map"" style=""width: 100%;""><img src=""images/map12_BuGn_scaleDef_orientDef_000.png"" alt=""map"" style=""width: 100%;""><img src=""images/map07_PuRd_scaleDef_orientDef_180.png"" alt=""map"" style=""width: 100%;""><img src=""images/map10_PuBuGn_scaleDef_orientMir_180.png"" alt=""map"" style=""width: 100%;""><img src=""images/map27_magma_scaleRev_orientMir_090.png"" alt=""map"" style=""width: 100%;""><img src=""images/map07_BuPu_scaleDef_orientMir_180.png"" alt=""map"" style=""width: 100%;""><img src=""images/map07_RdPu_scaleDef_orientMir_000.png"" alt=""map"" style=""width: 100%;""><img src=""images/map02_Purples_scaleDef_orientDef_180.png"" alt=""map"" style=""width: 100%;""><img src=""images/map13_RdBu_scaleRev_orientMir_270.png"" alt=""map"" style=""width: 100%;""><img src=""images/map02_Greys_scaleDef_orientDef_000.png"" alt=""map"" style=""width: 100%;""><img src=""images/map15_RdYlBu_scaleDef_orientDef_000.png"" alt=""map"" style=""width: 100%;""><img src=""images/map15_Spectral_scaleRev_orientMir_090.png"" alt=""map"" style=""width: 100%;""><img src=""images/map23_managua_scaleRev_orientMir_270.png"" alt=""map"" style=""width: 100%;""><img src=""images/map15_coolwarm_scaleRev_orientMir_270.png"" alt=""map"" style=""width: 100%;""><img src=""images/map27_inferno_scaleDef_orientDef_180.png"" alt=""map"" style=""width: 100%;""><img src=""images/map07_OrRd_scaleDef_orientDef_000.png"" alt=""map"" style=""width: 100%;""><img src=""images/map15_RdYlGn_scaleRev_orientDef_270.png"" alt=""map"" style=""width: 100%;""><img src=""images/map27_cividis_scaleDef_orientMir_180.png"" alt=""map"" style=""width: 100%;""><img src=""images/map23_berlin_scaleRev_orientMir_090.png"" alt=""map"" style=""width: 100%;""><img src=""images/map26_viridis_scaleDef_orientMir_180.png"" alt=""map"" style=""width: 100%;""><img src=""images/map10_GnBu_scaleRev_orientDef_090.png"" alt=""map"" style=""width: 100%;""><img src=""images/map05_YlOrRd_scaleRev_orientMir_270.png"" alt=""map"" style=""width: 100%;""><img src=""images/map26_vanimo_scaleRev_orientDef_090.png"" alt=""map"" style=""width: 100%;""><img src=""images/map10_YlGnBu_scaleRev_orientMir_090.png"" alt=""map"" style=""width: 100%;""><img src=""images/map13_PuOr_scaleDef_orientDef_180.png"" alt=""map"" style=""width: 100%;""><img src=""images/map05_Oranges_scaleDef_orientDef_000.png"" alt=""map"" style=""width: 100%;""><img src=""images/map26_turbo_scaleRev_orientMir_090.png"" alt=""map"" style=""width: 100%;""><img src=""images/map23_seismic_scaleRev_orientDef_270.png"" alt=""map"" style=""width: 100%;""><img src=""images/map12_PiYG_scaleDef_orientMir_000.png"" alt=""map"" style=""width: 100%;""><img src=""images/map13_RdGy_scaleDef_orientMir_000.png"" alt=""map"" style=""width: 100%;""><img src=""images/map02_Greens_scaleRev_orientMir_270.png"" alt=""map"" style=""width: 100%;""><img src=""images/map26_gist_earth_scaleDef_orientDef_180.png"" alt=""map"" style=""width: 100%;""><img src=""images/map23_bwr_scaleDef_orientDef_000.png"" alt=""map"" style=""width: 100%;""><img src=""images/map05_YlOrBr_scaleDef_orientMir_000.png"" alt=""map"" style=""width: 100%;""><img src=""images/map12_YlGn_scaleRev_orientDef_270.png"" alt=""map"" style=""width: 100%;""><img src=""images/map10_PuBu_scaleRev_orientDef_270.png"" alt=""map"" style=""width: 100%;""><img src=""images/map13_BrBG_scaleRev_orientDef_090.png"" alt=""map"" style=""width: 100%;""><img src=""images/map02_Blues_scaleRev_orientMir_090.png"" alt=""map"" style=""width: 100%;""><img src=""images/map12_PRGn_scaleDef_orientMir_180.png"" alt=""map"" style=""width: 100%;""><img src=""images/map05_Reds_scaleRev_orientDef_270.png"" alt=""map"" style=""width: 100%;"">
                    </div>
                </div>

                    <!-- Clear floats -->
                    <div style=""clear: both;""></div>
                </div>
                            ","200","","0","true","","","","","","","","","","","","",""
"","","","","","html-button-response","7","178169","0.0-7.0","ea08oqhvbt","70","18625","<div style=""width:800px;""><p style=""text-align:left"">To move the slider, click and drag your cursor to the location of the scale where you would like to make your rating and then let go. When you let go of the slider, your response will be recorded and the next trial will begin. <br>
                    We are interested in your initial impressions of each map for the given concept, so please go with your first intuition. <br>
                    Before you begin the experiment, there will be four training trials for you to practice using the scale. <br>
                     When you are ready to start the training trials, please click ""Continue"".</p><br></div>","0","","","","","","","","","","","","","","","",""
"","","","","","html-slider-response","8","181890","0.0-8.0-0.0","ea08oqhvbt","70","NaN","<div style=""width:500px;"">
                                    <p style=""font-size:25px;"">Please move the slider all the way to the <br> right endpoint of the scale</p>

                                    </div>
                                </div>","200","","0","true","0","true","","","","","","","","","","",""
"","","","","","html-button-response","9","183770","0.0-8.0-1.0","ea08oqhvbt","70","1376","<p align='center'><b>Good job!</b> Click on 'Continue' to proceed.</p>","0","","","","","","","","","","","","","","","",""
"","","","","","html-slider-response","10","187234","0.0-9.0-0.0","ea08oqhvbt","70","NaN","<div style=""width:500px;"">
                                    <p style=""font-size:25px;"">Please move the slider all the way to the <br> left endpoint of the scale</p>

                                    </div>
                                </div>","-200","","0","true","1","true","","","","","","","","","","",""
"","","","","","html-button-response","11","189739","0.0-9.0-1.0","ea08oqhvbt","70","2001","<p align='center'><b>Good job!</b> Click on 'Continue' to proceed.</p>","0","","","","","","","","","","","","","","","",""
"","","","","","html-slider-response","12","193680","0.0-10.0-0.0","ea08oqhvbt","70","NaN","<div style=""width:500px;"">
                                    <p style=""font-size:25px;"">Please move the slider halfway between the center and right endpoint of the scale</p>

                                    </div>
                                </div>","106","","0","true","2","true","","","","","","","","","","",""
"","","","","","html-button-response","13","194935","0.0-10.0-1.0","ea08oqhvbt","70","752","<p align='center'><b>Good job!</b> Click on 'Continue' to proceed.</p>","0","","","","","","","","","","","","","","","",""
"","","","","","html-slider-response","14","196805","0.0-11.0-0.0","ea08oqhvbt","70","NaN","<div style=""width:500px;"">
                                    <p style=""font-size:25px;"">Please move the slider halfway between the center and left endpoint of the scale</p>

                                    </div>
                                </div>","-117","","0","true","3","false","","","","","","","","","","",""
"","","","","","html-button-response","15","199571","0.0-11.0-1.0","ea08oqhvbt","70","2264","<p align='center'><b>Not quite!</b> The slider was not placed near the instructed located. Click on 'Continue' to try again. </p>","0","","","","","","","","","","","","","","","",""
"","","","","","html-slider-response","16","201677","0.0-11.1-0.1","ea08oqhvbt","70","NaN","<div style=""width:500px;"">
                                    <p style=""font-size:25px;"">Please move the slider halfway between the center and left endpoint of the scale</p>

                                    </div>
                                </div>","-102","","0","true","3","true","","","","","","","","","","",""
"","","","","","html-button-response","17","203111","0.0-11.1-1.1","ea08oqhvbt","70","931","<p align='center'><b>Good job!</b> Click on 'Continue' to proceed.</p>","0","","","","","","","","","","","","","","","",""
"","","","","","html-button-response","18","204133","0.0-12.0","ea08oqhvbt","70","1021","<p>Great job! You've completed the practice trials. Now you will begin the main task.</p>","0","","","","","","","","","","","","","","","",""
"","","","","","html-button-response","19","206220","0.0-13.0","ea08oqhvbt","70","2086","<p>In this block of trials, you will be asked to rate how much you associate each map with:</p > <p style = 'font-size:150%; font-weight: bold'>angry</p><br></br>","0","","","","","","","","","","","","","","","",""
"","","","","","html-slider-response","20","209252","0.0-14.0","ea08oqhvbt","70","NaN","<div style=""width:500px;"">
                            <p style=""font-size:50px; font-weight:bold;""
                            >angry</p>
                            <div style=""width:240px; margin: auto;"">
                                <img src=""images/map15_coolwarm_scaleDef_orientMir_180.png"" style= ""width:200px""alt=""img"">
                            </div>
                        </div>","-200","","0","","","","images/map15_coolwarm_scaleDef_orientMir_180.png","angry","1","15","15","coolwarm","orientMir","scaleDef","180","",""
"","","","","","html-slider-response","21","212296","0.0-15.0","ea08oqhvbt","70","NaN","<div style=""width:500px;"">
                            <p style=""font-size:50px; font-weight:bold;""
                            >angry</p>
                            <div style=""width:240px; margin: auto;"">
                                <img src=""images/map27_magma_scaleRev_orientMir_090.png"" style= ""width:200px""alt=""img"">
                            </div>
                        </div>","200","","0","","","","images/map27_magma_scaleRev_orientMir_090.png","angry","1","27","27","magma","orientMir","scaleRev","090","",""
"","","","","","html-slider-response","22","215195","0.0-16.0","ea08oqhvbt","70","NaN","<div style=""width:500px;"">
                            <p style=""font-size:50px; font-weight:bold;""
                            >angry</p>
                            <div style=""width:240px; margin: auto;"">
                                <img src=""images/map13_RdBu_scaleRev_orientMir_270.png"" style= ""width:200px""alt=""img"">
                            </div>
                        </div>","30","","0","","","","images/map13_RdBu_scaleRev_orientMir_270.png","angry","1","13","13","RdBu","orientMir","scaleRev","270","",""
"","","","","","html-slider-response","23","217606","0.0-17.0","ea08oqhvbt","70","NaN","<div style=""width:500px;"">
                            <p style=""font-size:50px; font-weight:bold;""
                            >angry</p>
                            <div style=""width:240px; margin: auto;"">
                                <img src=""images/map27_plasma_scaleRev_orientDef_090.png"" style= ""width:200px""alt=""img"">
                            </div>
                        </div>","200","","0","","","","images/map27_plasma_scaleRev_orientDef_090.png","angry","1","27","27","plasma","orientDef","scaleRev","090","",""
"","","","","","html-slider-response","24","221674","0.0-18.0","ea08oqhvbt","70","NaN","<div style=""width:500px;"">
                            <p style=""font-size:50px; font-weight:bold;""
                            >angry</p>
                            <div style=""width:240px; margin: auto;"">
                                <img src=""images/map05_YlOrBr_scaleRev_orientMir_090.png"" style= ""width:200px""alt=""img"">
                            </div>
                        </div>","-102","","0","","","","images/map05_YlOrBr_scaleRev_orientMir_090.png","angry","1","05","05","YlOrBr","orientMir","scaleRev","090","",""
"","","","","","html-slider-response","25","223939","0.0-19.0","ea08oqhvbt","70","NaN","<div style=""width:500px;"">
                            <p style=""font-size:50px; font-weight:bold;""
                            >angry</p>
                            <div style=""width:240px; margin: auto;"">
                                <img src=""images/map12_BuGn_scaleRev_orientDef_090.png"" style= ""width:200px""alt=""img"">
                            </div>
                        </div>","-158","","0","","","","images/map12_BuGn_scaleRev_orientDef_090.png","angry","1","12","12","BuGn","orientDef","scaleRev","090","",""
"","","","","","html-slider-response","26","226148","0.0-20.0","ea08oqhvbt","70","NaN","<div style=""width:500px;"">
                            <p style=""font-size:50px; font-weight:bold;""
                            >angry</p>
                            <div style=""width:240px; margin: auto;"">
                                <img src=""images/map27_inferno_scaleRev_orientDef_270.png"" style= ""width:200px""alt=""img"">
                            </div>
                        </div>","200","","0","","","","images/map27_inferno_scaleRev_orientDef_270.png","angry","1","27","27","inferno","orientDef","scaleRev","270","",""
"","","","","","html-slider-response","27","228356","0.0-21.0","ea08oqhvbt","70","NaN","<div style=""width:500px;"">
                            <p style=""font-size:50px; font-weight:bold;""
                            >angry</p>
                            <div style=""width:240px; margin: auto;"">
                                <img src=""images/map26_viridis_scaleRev_orientMir_270.png"" style= ""width:200px""alt=""img"">
                            </div>
                        </div>","76","","0","","","","images/map26_viridis_scaleRev_orientMir_270.png","angry","1","26","26","viridis","orientMir","scaleRev","270","",""
"","","","","","html-slider-response","28","230443","0.0-22.0","ea08oqhvbt","70","NaN","<div style=""width:500px;"">
                            <p style=""font-size:50px; font-weight:bold;""
                            >angry</p>
                            <div style=""width:240px; margin: auto;"">
                                <img src=""images/map15_RdYlBu_scaleRev_orientDef_090.png"" style= ""width:200px""alt=""img"">
                            </div>
                        </div>","-88","","0","","","","images/map15_RdYlBu_scaleRev_orientDef_090.png","angry","1","15","15","RdYlBu","orientDef","scaleRev","090","",""
"","","","","","html-slider-response","29","233091","0.0-23.0","ea08oqhvbt","70","NaN","<div style=""width:500px;"">
                            <p style=""font-size:50px; font-weight:bold;""
                            >angry</p>
                            <div style=""width:240px; margin: auto;"">
                                <img src=""images/map13_BrBG_scaleRev_orientDef_090.png"" style= ""width:200px""alt=""img"">
                            </div>
                        </div>","-60","","0","","","","images/map13_BrBG_scaleRev_orientDef_090.png","angry","1","13","13","BrBG","orientDef","scaleRev","090","",""
"","","","","","html-slider-response","30","235278","0.0-24.0","ea08oqhvbt","70","NaN","<div style=""width:500px;"">
                            <p style=""font-size:50px; font-weight:bold;""
                            >angry</p>
                            <div style=""width:240px; margin: auto;"">
                                <img src=""images/map26_vanimo_scaleRev_orientDef_090.png"" style= ""width:200px""alt=""img"">
                            </div>
                        </div>","150","","0","","","","images/map26_vanimo_scaleRev_orientDef_090.png","angry","1","26","26","vanimo","orientDef","scaleRev","090","",""
"","","","","","html-slider-response","31","237394","0.0-25.0","ea08oqhvbt","70","NaN","<div style=""width:500px;"">
                            <p style=""font-size:50px; font-weight:bold;""
                            >angry</p>
                            <div style=""width:240px; margin: auto;"">
                                <img src=""images/map26_vanimo_scaleDef_orientDef_000.png"" style= ""width:200px""alt=""img"">
                            </div>
                        </div>","170","","0","","","","images/map26_vanimo_scaleDef_orientDef_000.png","angry","1","26","26","vanimo","orientDef","scaleDef","000","",""
"","","","","","html-slider-response","32","240138","0.0-26.0","ea08oqhvbt","70","NaN","<div style=""width:500px;"">
                            <p style=""font-size:50px; font-weight:bold;""
                            >angry</p>
                            <div style=""width:240px; margin: auto;"">
                                <img src=""images/map12_YlGn_scaleRev_orientDef_270.png"" style= ""width:200px""alt=""img"">
                            </div>
                        </div>","-44","","0","","","","images/map12_YlGn_scaleRev_orientDef_270.png","angry","1","12","12","YlGn","orientDef","scaleRev","270","",""
"","","","","","html-slider-response","33","241828","0.0-27.0","ea08oqhvbt","70","NaN","<div style=""width:500px;"">
                            <p style=""font-size:50px; font-weight:bold;""
                            >angry</p>
                            <div style=""width:240px; margin: auto;"">
                                <img src=""images/map05_Reds_scaleDef_orientDef_180.png"" style= ""width:200px""alt=""img"">
                            </div>
                        </div>","36","","0","","","","images/map05_Reds_scaleDef_orientDef_180.png","angry","1","05","05","Reds","orientDef","scaleDef","180","",""
"","","","","","html-slider-response","34","243915","0.0-28.0","ea08oqhvbt","70","NaN","<div style=""width:500px;"">
                            <p style=""font-size:50px; font-weight:bold;""
                            >angry</p>
                            <div style=""width:240px; margin: auto;"">
                                <img src=""images/map26_gist_earth_scaleDef_orientDef_180.png"" style= ""width:200px""alt=""img"">
                            </div>
                        </div>","60","","0","","","","images/map26_gist_earth_scaleDef_orientDef_180.png","angry","1","26","26","gist","scaleDef","earth","orientDef","",""
"","","","","","html-slider-response","35","245655","0.0-29.0","ea08oqhvbt","70","NaN","<div style=""width:500px;"">
                            <p style=""font-size:50px; font-weight:bold;""
                            >angry</p>
                            <div style=""width:240px; margin: auto;"">
                                <img src=""images/map12_PRGn_scaleRev_orientMir_270.png"" style= ""width:200px""alt=""img"">
                            </div>
                        </div>","-61","","0","","","","images/map12_PRGn_scaleRev_orientMir_270.png","angry","1","12","12","PRGn","orientMir","scaleRev","270","",""
"","","","","","html-slider-response","36","247651","0.0-30.0","ea08oqhvbt","70","NaN","<div style=""width:500px;"">
                            <p style=""font-size:50px; font-weight:bold;""
                            >angry</p>
                            <div style=""width:240px; margin: auto;"">
                                <img src=""images/map07_OrRd_scaleDef_orientDef_000.png"" style= ""width:200px""alt=""img"">
                            </div>
                        </div>","54","","0","","","","images/map07_OrRd_scaleDef_orientDef_000.png","angry","1","07","07","OrRd","orientDef","scaleDef","000","",""
"","","","","","html-slider-response","37","249632","0.0-31.0","ea08oqhvbt","70","NaN","<div style=""width:500px;"">
                            <p style=""font-size:50px; font-weight:bold;""
                            >angry</p>
                            <div style=""width:240px; margin: auto;"">
                                <img src=""images/map23_seismic_scaleDef_orientDef_180.png"" style= ""width:200px""alt=""img"">
                            </div>
                        </div>","101","","0","","","","images/map23_seismic_scaleDef_orientDef_180.png","angry","1","23","23","seismic","orientDef","scaleDef","180","",""
"","","","","","html-slider-response","38","251686","0.0-32.0","ea08oqhvbt","70","NaN","<div style=""width:500px;"">
                            <p style=""font-size:50px; font-weight:bold;""
                            >angry</p>
                            <div style=""width:240px; margin: auto;"">
                                <img src=""images/map15_RdYlGn_scaleDef_orientDef_180.png"" style= ""width:200px""alt=""img"">
                            </div>
                        </div>","-71","","0","","","","images/map15_RdYlGn_scaleDef_orientDef_180.png","angry","1","15","15","RdYlGn","orientDef","scaleDef","180","",""
"","","","","","html-slider-response","39","253529","0.0-33.0","ea08oqhvbt","70","NaN","<div style=""width:500px;"">
                            <p style=""font-size:50px; font-weight:bold;""
                            >angry</p>
                            <div style=""width:240px; margin: auto;"">
                                <img src=""images/map12_PiYG_scaleDef_orientMir_000.png"" style= ""width:200px""alt=""img"">
                            </div>
                        </div>","-77","","0","","","","images/map12_PiYG_scaleDef_orientMir_000.png","angry","1","12","12","PiYG","orientMir","scaleDef","000","",""
"","","","","","html-slider-response","40","255323","0.0-34.0","ea08oqhvbt","70","NaN","<div style=""width:500px;"">
                            <p style=""font-size:50px; font-weight:bold;""
                            >angry</p>
                            <div style=""width:240px; margin: auto;"">
                                <img src=""images/map05_YlOrRd_scaleRev_orientMir_270.png"" style= ""width:200px""alt=""img"">
                            </div>
                        </div>","70","","0","","","","images/map05_YlOrRd_scaleRev_orientMir_270.png","angry","1","05","05","YlOrRd","orientMir","scaleRev","270","",""
"","","","","","html-slider-response","41","257256","0.0-35.0","ea08oqhvbt","70","NaN","<div style=""width:500px;"">
                            <p style=""font-size:50px; font-weight:bold;""
                            >angry</p>
                            <div style=""width:240px; margin: auto;"">
                                <img src=""images/map02_Greens_scaleDef_orientMir_180.png"" style= ""width:200px""alt=""img"">
                            </div>
                        </div>","-70","","0","","","","images/map02_Greens_scaleDef_orientMir_180.png","angry","1","02","02","Greens","orientMir","scaleDef","180","",""
"","","","","","html-slider-response","42","259133","0.0-36.0","ea08oqhvbt","70","NaN","<div style=""width:500px;"">
                            <p style=""font-size:50px; font-weight:bold;""
                            >angry</p>
                            <div style=""width:240px; margin: auto;"">
                                <img src=""images/map13_RdBu_scaleDef_orientMir_180.png"" style= ""width:200px""alt=""img"">
                            </div>
                        </div>","-88","","0","","","","images/map13_RdBu_scaleDef_orientMir_180.png","angry","1","13","13","RdBu","orientMir","scaleDef","180","",""
"","","","","","html-slider-response","43","260878","0.0-37.0","ea08oqhvbt","70","NaN","<div style=""width:500px;"">
                            <p style=""font-size:50px; font-weight:bold;""
                            >angry</p>
                            <div style=""width:240px; margin: auto;"">
                                <img src=""images/map23_berlin_scaleDef_orientMir_000.png"" style= ""width:200px""alt=""img"">
                            </div>
                        </div>","149","","0","","","","images/map23_berlin_scaleDef_orientMir_000.png","angry","1","23","23","berlin","orientMir","scaleDef","000","",""
"","","","","","html-slider-response","44","262891","0.0-38.0","ea08oqhvbt","70","NaN","<div style=""width:500px;"">
                            <p style=""font-size:50px; font-weight:bold;""
                            >angry</p>
                            <div style=""width:240px; margin: auto;"">
                                <img src=""images/map12_PiYG_scaleRev_orientMir_090.png"" style= ""width:200px""alt=""img"">
                            </div>
                        </div>","-85","","0","","","","images/map12_PiYG_scaleRev_orientMir_090.png","angry","1","12","12","PiYG","orientMir","scaleRev","090","",""
"","","","","","html-slider-response","45","265166","0.0-39.0","ea08oqhvbt","70","NaN","<div style=""width:500px;"">
                            <p style=""font-size:50px; font-weight:bold;""
                            >angry</p>
                            <div style=""width:240px; margin: auto;"">
                                <img src=""images/map26_gist_earth_scaleRev_orientDef_270.png"" style= ""width:200px""alt=""img"">
                            </div>
                        </div>","53","","0","","","","images/map26_gist_earth_scaleRev_orientDef_270.png","angry","1","26","26","gist","scaleRev","earth","orientDef","",""
"","","","","","html-slider-response","46","267933","0.0-40.0","ea08oqhvbt","70","NaN","<div style=""width:500px;"">
                            <p style=""font-size:50px; font-weight:bold;""
                            >angry</p>
                            <div style=""width:240px; margin: auto;"">
                                <img src=""images/map07_OrRd_scaleRev_orientDef_090.png"" style= ""width:200px""alt=""img"">
                            </div>
                        </div>","84","","0","","","","images/map07_OrRd_scaleRev_orientDef_090.png","angry","1","07","07","OrRd","orientDef","scaleRev","090","",""
"","","","","","html-slider-response","47","270092","0.0-41.0","ea08oqhvbt","70","NaN","<div style=""width:500px;"">
                            <p style=""font-size:50px; font-weight:bold;""
                            >angry</p>
                            <div style=""width:240px; margin: auto;"">
                                <img src=""images/map10_PuBuGn_scaleRev_orientMir_270.png"" style= ""width:200px""alt=""img"">
                            </div>
                        </div>","-105","","0","","","","images/map10_PuBuGn_scaleRev_orientMir_270.png","angry","1","10","10","PuBuGn","orientMir","scaleRev","270","",""
"","","","","","html-slider-response","48","272292","0.0-42.0","ea08oqhvbt","70","NaN","<div style=""width:500px;"">
                            <p style=""font-size:50px; font-weight:bold;""
                            >angry</p>
                            <div style=""width:240px; margin: auto;"">
                                <img src=""images/map27_cividis_scaleDef_orientMir_180.png"" style= ""width:200px""alt=""img"">
                            </div>
                        </div>","57","","0","","","","images/map27_cividis_scaleDef_orientMir_180.png","angry","1","27","27","cividis","orientMir","scaleDef","180","",""
"","","","","","html-slider-response","49","274469","0.0-43.0","ea08oqhvbt","70","NaN","<div style=""width:500px;"">
                            <p style=""font-size:50px; font-weight:bold;""
                            >angry</p>
                            <div style=""width:240px; margin: auto;"">
                                <img src=""images/map07_BuPu_scaleRev_orientMir_270.png"" style= ""width:200px""alt=""img"">
                            </div>
                        </div>","-54","","0","","","","images/map07_BuPu_scaleRev_orientMir_270.png","angry","1","07","07","BuPu","orientMir","scaleRev","270","",""
"","","","","","html-slider-response","50","276155","0.0-44.0","ea08oqhvbt","70","NaN","<div style=""width:500px;"">
                            <p style=""font-size:50px; font-weight:bold;""
                            >angry</p>
                            <div style=""width:240px; margin: auto;"">
                                <img src=""images/map07_BuPu_scaleDef_orientMir_180.png"" style= ""width:200px""alt=""img"">
                            </div>
                        </div>","-58","","0","","","","images/map07_BuPu_scaleDef_orientMir_180.png","angry","1","07","07","BuPu","orientMir","scaleDef","180","",""
"","","","","","html-slider-response","51","278117","0.0-45.0","ea08oqhvbt","70","NaN","<div style=""width:500px;"">
                            <p style=""font-size:50px; font-weight:bold;""
                            >angry</p>
                            <div style=""width:240px; margin: auto;"">
                                <img src=""images/map13_RdGy_scaleDef_orientMir_000.png"" style= ""width:200px""alt=""img"">
                            </div>
                        </div>","-70","","0","","","","images/map13_RdGy_scaleDef_orientMir_000.png","angry","1","13","13","RdGy","orientMir","scaleDef","000","",""
"","","","","","html-slider-response","52","280064","0.0-46.0","ea08oqhvbt","70","NaN","<div style=""width:500px;"">
                            <p style=""font-size:50px; font-weight:bold;""
                            >angry</p>
                            <div style=""width:240px; margin: auto;"">
                                <img src=""images/map10_GnBu_scaleRev_orientDef_090.png"" style= ""width:200px""alt=""img"">
                            </div>
                        </div>","-78","","0","","","","images/map10_GnBu_scaleRev_orientDef_090.png","angry","1","10","10","GnBu","orientDef","scaleRev","090","",""
"","","","","","html-slider-response","53","281767","0.0-47.0","ea08oqhvbt","70","NaN","<div style=""width:500px;"">
                            <p style=""font-size:50px; font-weight:bold;""
                            >angry</p>
                            <div style=""width:240px; margin: auto;"">
                                <img src=""images/map12_PRGn_scaleDef_orientMir_180.png"" style= ""width:200px""alt=""img"">
                            </div>
                        </div>","-109","","0","","","","images/map12_PRGn_scaleDef_orientMir_180.png","angry","1","12","12","PRGn","orientMir","scaleDef","180","",""
"","","","","","html-slider-response","54","283619","0.0-48.0","ea08oqhvbt","70","NaN","<div style=""width:500px;"">
                            <p style=""font-size:50px; font-weight:bold;""
                            >angry</p>
                            <div style=""width:240px; margin: auto;"">
                                <img src=""images/map15_RdYlGn_scaleRev_orientDef_270.png"" style= ""width:200px""alt=""img"">
                            </div>
                        </div>","-118","","0","","","","images/map15_RdYlGn_scaleRev_orientDef_270.png","angry","1","15","15","RdYlGn","orientDef","scaleRev","270","",""
"","","","","","html-slider-response","55","285650","0.0-49.0","ea08oqhvbt","70","NaN","<div style=""width:500px;"">
                            <p style=""font-size:50px; font-weight:bold;""
                            >angry</p>
                            <div style=""width:240px; margin: auto;"">
                                <img src=""images/map15_coolwarm_scaleRev_orientMir_270.png"" style= ""width:200px""alt=""img"">
                            </div>
                        </div>","-118","","0","","","","images/map15_coolwarm_scaleRev_orientMir_270.png","angry","1","15","15","coolwarm","orientMir","scaleRev","270","",""
"","","","","","html-slider-response","56","287438","0.0-50.0","ea08oqhvbt","70","NaN","<div style=""width:500px;"">
                            <p style=""font-size:50px; font-weight:bold;""
                            >angry</p>
                            <div style=""width:240px; margin: auto;"">
                                <img src=""images/map10_YlGnBu_scaleRev_orientMir_090.png"" style= ""width:200px""alt=""img"">
                            </div>
                        </div>","-45","","0","","","","images/map10_YlGnBu_scaleRev_orientMir_090.png","angry","1","10","10","YlGnBu","orientMir","scaleRev","090","",""
"","","","","","html-slider-response","57","289408","0.0-51.0","ea08oqhvbt","70","NaN","<div style=""width:500px;"">
                            <p style=""font-size:50px; font-weight:bold;""
                            >angry</p>
                            <div style=""width:240px; margin: auto;"">
                                <img src=""images/map26_turbo_scaleDef_orientMir_000.png"" style= ""width:200px""alt=""img"">
                            </div>
                        </div>","78","","0","","","","images/map26_turbo_scaleDef_orientMir_000.png","angry","1","26","26","turbo","orientMir","scaleDef","000","",""
"","","","","","html-slider-response","58","291771","0.0-52.0","ea08oqhvbt","70","NaN","<div style=""width:500px;"">
                            <p style=""font-size:50px; font-weight:bold;""
                            >angry</p>
                            <div style=""width:240px; margin: auto;"">
                                <img src=""images/map02_Purples_scaleRev_orientDef_270.png"" style= ""width:200px""alt=""img"">
                            </div>
                        </div>","58","","0","","","","images/map02_Purples_scaleRev_orientDef_270.png","angry","1","02","02","Purples","orientDef","scaleRev","270","",""
"","","","","","html-slider-response","59","293403","0.0-53.0","ea08oqhvbt","70","NaN","<div style=""width:500px;"">
                            <p style=""font-size:50px; font-weight:bold;""
                            >angry</p>
                            <div style=""width:240px; margin: auto;"">
                                <img src=""images/map27_cividis_scaleRev_orientMir_270.png"" style= ""width:200px""alt=""img"">
                            </div>
                        </div>","70","","0","","","","images/map27_cividis_scaleRev_orientMir_270.png","angry","1","27","27","cividis","orientMir","scaleRev","270","",""
"","","","","","html-button-response","60","297161","0.0-54.0","ea08oqhvbt","70","3256","<p>You are doing great!<br></br> You are halway done with the current block. When you are ready to continue, click the 'Continue' button.</p>","0","","","","","","","","","","","","","","","",""
"","","","","","html-slider-response","61","300104","0.0-55.0","ea08oqhvbt","70","NaN","<div style=""width:500px;"">
                            <p style=""font-size:50px; font-weight:bold;""
                            >angry</p>
                            <div style=""width:240px; margin: auto;"">
                                <img src=""images/map12_BuGn_scaleDef_orientDef_000.png"" style= ""width:200px""alt=""img"">
                            </div>
                        </div>","-103","","0","","","","images/map12_BuGn_scaleDef_orientDef_000.png","angry","1","12","12","BuGn","orientDef","scaleDef","000","",""
"","","","","","html-slider-response","62","301994","0.0-56.0","ea08oqhvbt","70","NaN","<div style=""width:500px;"">
                            <p style=""font-size:50px; font-weight:bold;""
                            >angry</p>
                            <div style=""width:240px; margin: auto;"">
                                <img src=""images/map27_plasma_scaleDef_orientDef_000.png"" style= ""width:200px""alt=""img"">
                            </div>
                        </div>","200","","0","","","","images/map27_plasma_scaleDef_orientDef_000.png","angry","1","27","27","plasma","orientDef","scaleDef","000","",""
"","","","","","html-slider-response","63","303726","0.0-57.0","ea08oqhvbt","70","NaN","<div style=""width:500px;"">
                            <p style=""font-size:50px; font-weight:bold;""
                            >angry</p>
                            <div style=""width:240px; margin: auto;"">
                                <img src=""images/map23_managua_scaleDef_orientMir_180.png"" style= ""width:200px""alt=""img"">
                            </div>
                        </div>","84","","0","","","","images/map23_managua_scaleDef_orientMir_180.png","angry","1","23","23","managua","orientMir","scaleDef","180","",""
"","","","","","html-slider-response","64","305591","0.0-58.0","ea08oqhvbt","70","NaN","<div style=""width:500px;"">
                            <p style=""font-size:50px; font-weight:bold;""
                            >angry</p>
                            <div style=""width:240px; margin: auto;"">
                                <img src=""images/map23_bwr_scaleDef_orientDef_000.png"" style= ""width:200px""alt=""img"">
                            </div>
                        </div>","77","","0","","","","images/map23_bwr_scaleDef_orientDef_000.png","angry","1","23","23","bwr","orientDef","scaleDef","000","",""
"","","","","","html-slider-response","65","307815","0.0-59.0","ea08oqhvbt","70","NaN","<div style=""width:500px;"">
                            <p style=""font-size:50px; font-weight:bold;""
                            >angry</p>
                            <div style=""width:240px; margin: auto;"">
                                <img src=""images/map05_Oranges_scaleDef_orientDef_000.png"" style= ""width:200px""alt=""img"">
                            </div>
                        </div>","42","","0","","","","images/map05_Oranges_scaleDef_orientDef_000.png","angry","1","05","05","Oranges","orientDef","scaleDef","000","",""
"","","","","","html-slider-response","66","309625","0.0-60.0","ea08oqhvbt","70","NaN","<div style=""width:500px;"">
                            <p style=""font-size:50px; font-weight:bold;""
                            >angry</p>
                            <div style=""width:240px; margin: auto;"">
                                <img src=""images/map05_Oranges_scaleRev_orientDef_090.png"" style= ""width:200px""alt=""img"">
                            </div>
                        </div>","56","","0","","","","images/map05_Oranges_scaleRev_orientDef_090.png","angry","1","05","05","Oranges","orientDef","scaleRev","090","",""
"","","","","","html-slider-response","67","311436","0.0-61.0","ea08oqhvbt","70","NaN","<div style=""width:500px;"">
                            <p style=""font-size:50px; font-weight:bold;""
                            >angry</p>
                            <div style=""width:240px; margin: auto;"">
                                <img src=""images/map27_inferno_scaleDef_orientDef_180.png"" style= ""width:200px""alt=""img"">
                            </div>
                        </div>","200","","0","","","","images/map27_inferno_scaleDef_orientDef_180.png","angry","1","27","27","inferno","orientDef","scaleDef","180","",""
"","","","","","html-slider-response","68","313776","0.0-62.0","ea08oqhvbt","70","NaN","<div style=""width:500px;"">
                            <p style=""font-size:50px; font-weight:bold;""
                            >angry</p>
                            <div style=""width:240px; margin: auto;"">
                                <img src=""images/map10_PuBu_scaleRev_orientDef_270.png"" style= ""width:200px""alt=""img"">
                            </div>
                        </div>","-99","","0","","","","images/map10_PuBu_scaleRev_orientDef_270.png","angry","1","10","10","PuBu","orientDef","scaleRev","270","",""
"","","","","","html-slider-response","69","315569","0.0-63.0","ea08oqhvbt","70","NaN","<div style=""width:500px;"">
                            <p style=""font-size:50px; font-weight:bold;""
                            >angry</p>
                            <div style=""width:240px; margin: auto;"">
                                <img src=""images/map13_RdGy_scaleRev_orientMir_090.png"" style= ""width:200px""alt=""img"">
                            </div>
                        </div>","-67","","0","","","","images/map13_RdGy_scaleRev_orientMir_090.png","angry","1","13","13","RdGy","orientMir","scaleRev","090","",""
"","","","","","html-slider-response","70","317485","0.0-64.0","ea08oqhvbt","70","NaN","<div style=""width:500px;"">
                            <p style=""font-size:50px; font-weight:bold;""
                            >angry</p>
                            <div style=""width:240px; margin: auto;"">
                                <img src=""images/map10_GnBu_scaleDef_orientDef_000.png"" style= ""width:200px""alt=""img"">
                            </div>
                        </div>","-87","","0","","","","images/map10_GnBu_scaleDef_orientDef_000.png","angry","1","10","10","GnBu","orientDef","scaleDef","000","",""
"","","","","","html-slider-response","71","319199","0.0-65.0","ea08oqhvbt","70","NaN","<div style=""width:500px;"">
                            <p style=""font-size:50px; font-weight:bold;""
                            >angry</p>
                            <div style=""width:240px; margin: auto;"">
                                <img src=""images/map15_RdYlBu_scaleDef_orientDef_000.png"" style= ""width:200px""alt=""img"">
                            </div>
                        </div>","-51","","0","","","","images/map15_RdYlBu_scaleDef_orientDef_000.png","angry","1","15","15","RdYlBu","orientDef","scaleDef","000","",""
"","","","","","html-slider-response","72","321387","0.0-66.0","ea08oqhvbt","70","NaN","<div style=""width:500px;"">
                            <p style=""font-size:50px; font-weight:bold;""
                            >angry</p>
                            <div style=""width:240px; margin: auto;"">
                                <img src=""images/map05_YlOrBr_scaleDef_orientMir_000.png"" style= ""width:200px""alt=""img"">
                            </div>
                        </div>","37","","0","","","","images/map05_YlOrBr_scaleDef_orientMir_000.png","angry","1","05","05","YlOrBr","orientMir","scaleDef","000","",""
"","","","","","html-slider-response","73","323371","0.0-67.0","ea08oqhvbt","70","NaN","<div style=""width:500px;"">
                            <p style=""font-size:50px; font-weight:bold;""
                            >angry</p>
                            <div style=""width:240px; margin: auto;"">
                                <img src=""images/map23_managua_scaleRev_orientMir_270.png"" style= ""width:200px""alt=""img"">
                            </div>
                        </div>","81","","0","","","","images/map23_managua_scaleRev_orientMir_270.png","angry","1","23","23","managua","orientMir","scaleRev","270","",""
"","","","","","html-slider-response","74","326198","0.0-68.0","ea08oqhvbt","70","NaN","<div style=""width:500px;"">
                            <p style=""font-size:50px; font-weight:bold;""
                            >angry</p>
                            <div style=""width:240px; margin: auto;"">
                                <img src=""images/map02_Greys_scaleDef_orientDef_000.png"" style= ""width:200px""alt=""img"">
                            </div>
                        </div>","-4","","0","","","","images/map02_Greys_scaleDef_orientDef_000.png","angry","1","02","02","Greys","orientDef","scaleDef","000","",""
"","","","","","html-slider-response","75","327993","0.0-69.0","ea08oqhvbt","70","NaN","<div style=""width:500px;"">
                            <p style=""font-size:50px; font-weight:bold;""
                            >angry</p>
                            <div style=""width:240px; margin: auto;"">
                                <img src=""images/map10_PuBuGn_scaleDef_orientMir_180.png"" style= ""width:200px""alt=""img"">
                            </div>
                        </div>","-78","","0","","","","images/map10_PuBuGn_scaleDef_orientMir_180.png","angry","1","10","10","PuBuGn","orientMir","scaleDef","180","",""
"","","","","","html-slider-response","76","329920","0.0-70.0","ea08oqhvbt","70","NaN","<div style=""width:500px;"">
                            <p style=""font-size:50px; font-weight:bold;""
                            >angry</p>
                            <div style=""width:240px; margin: auto;"">
                                <img src=""images/map12_YlGn_scaleDef_orientDef_180.png"" style= ""width:200px""alt=""img"">
                            </div>
                        </div>","-95","","0","","","","images/map12_YlGn_scaleDef_orientDef_180.png","angry","1","12","12","YlGn","orientDef","scaleDef","180","",""
"","","","","","html-slider-response","77","331636","0.0-71.0","ea08oqhvbt","70","NaN","<div style=""width:500px;"">
                            <p style=""font-size:50px; font-weight:bold;""
                            >angry</p>
                            <div style=""width:240px; margin: auto;"">
                                <img src=""images/map05_YlOrRd_scaleDef_orientMir_180.png"" style= ""width:200px""alt=""img"">
                            </div>
                        </div>","60","","0","","","","images/map05_YlOrRd_scaleDef_orientMir_180.png","angry","1","05","05","YlOrRd","orientMir","scaleDef","180","",""
"","","","","","html-slider-response","78","333319","0.0-72.0","ea08oqhvbt","70","NaN","<div style=""width:500px;"">
                            <p style=""font-size:50px; font-weight:bold;""
                            >angry</p>
                            <div style=""width:240px; margin: auto;"">
                                <img src=""images/map15_Spectral_scaleDef_orientMir_000.png"" style= ""width:200px""alt=""img"">
                            </div>
                        </div>","-103","","0","","","","images/map15_Spectral_scaleDef_orientMir_000.png","angry","1","15","15","Spectral","orientMir","scaleDef","000","",""
"","","","","","html-slider-response","79","335307","0.0-73.0","ea08oqhvbt","70","NaN","<div style=""width:500px;"">
                            <p style=""font-size:50px; font-weight:bold;""
                            >angry</p>
                            <div style=""width:240px; margin: auto;"">
                                <img src=""images/map07_RdPu_scaleDef_orientMir_000.png"" style= ""width:200px""alt=""img"">
                            </div>
                        </div>","-149","","0","","","","images/map07_RdPu_scaleDef_orientMir_000.png","angry","1","07","07","RdPu","orientMir","scaleDef","000","",""
"","","","","","html-slider-response","80","337176","0.0-74.0","ea08oqhvbt","70","NaN","<div style=""width:500px;"">
                            <p style=""font-size:50px; font-weight:bold;""
                            >angry</p>
                            <div style=""width:240px; margin: auto;"">
                                <img src=""images/map02_Blues_scaleRev_orientMir_090.png"" style= ""width:200px""alt=""img"">
                            </div>
                        </div>","-56","","0","","","","images/map02_Blues_scaleRev_orientMir_090.png","angry","1","02","02","Blues","orientMir","scaleRev","090","",""
"","","","","","html-slider-response","81","338837","0.0-75.0","ea08oqhvbt","70","NaN","<div style=""width:500px;"">
                            <p style=""font-size:50px; font-weight:bold;""
                            >angry</p>
                            <div style=""width:240px; margin: auto;"">
                                <img src=""images/map05_Reds_scaleRev_orientDef_270.png"" style= ""width:200px""alt=""img"">
                            </div>
                        </div>","70","","0","","","","images/map05_Reds_scaleRev_orientDef_270.png","angry","1","05","05","Reds","orientDef","scaleRev","270","",""
"","","","","","html-slider-response","82","340625","0.0-76.0","ea08oqhvbt","70","NaN","<div style=""width:500px;"">
                            <p style=""font-size:50px; font-weight:bold;""
                            >angry</p>
                            <div style=""width:240px; margin: auto;"">
                                <img src=""images/map02_Greys_scaleRev_orientDef_090.png"" style= ""width:200px""alt=""img"">
                            </div>
                        </div>","-106","","0","","","","images/map02_Greys_scaleRev_orientDef_090.png","angry","1","02","02","Greys","orientDef","scaleRev","090","",""
"","","","","","html-slider-response","83","343046","0.0-77.0","ea08oqhvbt","70","NaN","<div style=""width:500px;"">
                            <p style=""font-size:50px; font-weight:bold;""
                            >angry</p>
                            <div style=""width:240px; margin: auto;"">
                                <img src=""images/map26_viridis_scaleDef_orientMir_180.png"" style= ""width:200px""alt=""img"">
                            </div>
                        </div>","127","","0","","","","images/map26_viridis_scaleDef_orientMir_180.png","angry","1","26","26","viridis","orientMir","scaleDef","180","",""
"","","","","","html-slider-response","84","344852","0.0-78.0","ea08oqhvbt","70","NaN","<div style=""width:500px;"">
                            <p style=""font-size:50px; font-weight:bold;""
                            >angry</p>
                            <div style=""width:240px; margin: auto;"">
                                <img src=""images/map07_PuRd_scaleDef_orientDef_180.png"" style= ""width:200px""alt=""img"">
                            </div>
                        </div>","-67","","0","","","","images/map07_PuRd_scaleDef_orientDef_180.png","angry","1","07","07","PuRd","orientDef","scaleDef","180","",""
"","","","","","html-slider-response","85","346716","0.0-79.0","ea08oqhvbt","70","NaN","<div style=""width:500px;"">
                            <p style=""font-size:50px; font-weight:bold;""
                            >angry</p>
                            <div style=""width:240px; margin: auto;"">
                                <img src=""images/map13_BrBG_scaleDef_orientDef_000.png"" style= ""width:200px""alt=""img"">
                            </div>
                        </div>","-172","","0","","","","images/map13_BrBG_scaleDef_orientDef_000.png","angry","1","13","13","BrBG","orientDef","scaleDef","000","",""
"","","","","","html-slider-response","86","348607","0.0-80.0","ea08oqhvbt","70","NaN","<div style=""width:500px;"">
                            <p style=""font-size:50px; font-weight:bold;""
                            >angry</p>
                            <div style=""width:240px; margin: auto;"">
                                <img src=""images/map10_PuBu_scaleDef_orientDef_180.png"" style= ""width:200px""alt=""img"">
                            </div>
                        </div>","-80","","0","","","","images/map10_PuBu_scaleDef_orientDef_180.png","angry","1","10","10","PuBu","orientDef","scaleDef","180","",""
"","","","","","html-slider-response","87","350281","0.0-81.0","ea08oqhvbt","70","NaN","<div style=""width:500px;"">
                            <p style=""font-size:50px; font-weight:bold;""
                            >angry</p>
                            <div style=""width:240px; margin: auto;"">
                                <img src=""images/map02_Greens_scaleRev_orientMir_270.png"" style= ""width:200px""alt=""img"">
                            </div>
                        </div>","-94","","0","","","","images/map02_Greens_scaleRev_orientMir_270.png","angry","1","02","02","Greens","orientMir","scaleRev","270","",""
"","","","","","html-slider-response","88","352651","0.0-82.0","ea08oqhvbt","70","NaN","<div style=""width:500px;"">
                            <p style=""font-size:50px; font-weight:bold;""
                            >angry</p>
                            <div style=""width:240px; margin: auto;"">
                                <img src=""images/map23_seismic_scaleRev_orientDef_270.png"" style= ""width:200px""alt=""img"">
                            </div>
                        </div>","152","","0","","","","images/map23_seismic_scaleRev_orientDef_270.png","angry","1","23","23","seismic","orientDef","scaleRev","270","",""
"","","","","","html-slider-response","89","354551","0.0-83.0","ea08oqhvbt","70","NaN","<div style=""width:500px;"">
                            <p style=""font-size:50px; font-weight:bold;""
                            >angry</p>
                            <div style=""width:240px; margin: auto;"">
                                <img src=""images/map23_bwr_scaleRev_orientDef_090.png"" style= ""width:200px""alt=""img"">
                            </div>
                        </div>","118","","0","","","","images/map23_bwr_scaleRev_orientDef_090.png","angry","1","23","23","bwr","orientDef","scaleRev","090","",""
"","","","","","html-slider-response","90","356304","0.0-84.0","ea08oqhvbt","70","NaN","<div style=""width:500px;"">
                            <p style=""font-size:50px; font-weight:bold;""
                            >angry</p>
                            <div style=""width:240px; margin: auto;"">
                                <img src=""images/map07_RdPu_scaleRev_orientMir_090.png"" style= ""width:200px""alt=""img"">
                            </div>
                        </div>","-83","","0","","","","images/map07_RdPu_scaleRev_orientMir_090.png","angry","1","07","07","RdPu","orientMir","scaleRev","090","",""
"","","","","","html-slider-response","91","358320","0.0-85.0","ea08oqhvbt","70","NaN","<div style=""width:500px;"">
                            <p style=""font-size:50px; font-weight:bold;""
                            >angry</p>
                            <div style=""width:240px; margin: auto;"">
                                <img src=""images/map07_PuRd_scaleRev_orientDef_270.png"" style= ""width:200px""alt=""img"">
                            </div>
                        </div>","-113","","0","","","","images/map07_PuRd_scaleRev_orientDef_270.png","angry","1","07","07","PuRd","orientDef","scaleRev","270","",""
"","","","","","html-slider-response","92","360170","0.0-86.0","ea08oqhvbt","70","NaN","<div style=""width:500px;"">
                            <p style=""font-size:50px; font-weight:bold;""
                            >angry</p>
                            <div style=""width:240px; margin: auto;"">
                                <img src=""images/map15_Spectral_scaleRev_orientMir_090.png"" style= ""width:200px""alt=""img"">
                            </div>
                        </div>","-142","","0","","","","images/map15_Spectral_scaleRev_orientMir_090.png","angry","1","15","15","Spectral","orientMir","scaleRev","090","",""
"","","","","","html-slider-response","93","361949","0.0-87.0","ea08oqhvbt","70","NaN","<div style=""width:500px;"">
                            <p style=""font-size:50px; font-weight:bold;""
                            >angry</p>
                            <div style=""width:240px; margin: auto;"">
                                <img src=""images/map10_YlGnBu_scaleDef_orientMir_000.png"" style= ""width:200px""alt=""img"">
                            </div>
                        </div>","-80","","0","","","","images/map10_YlGnBu_scaleDef_orientMir_000.png","angry","1","10","10","YlGnBu","orientMir","scaleDef","000","",""
"","","","","","html-slider-response","94","363816","0.0-88.0","ea08oqhvbt","70","NaN","<div style=""width:500px;"">
                            <p style=""font-size:50px; font-weight:bold;""
                            >angry</p>
                            <div style=""width:240px; margin: auto;"">
                                <img src=""images/map13_PuOr_scaleDef_orientDef_180.png"" style= ""width:200px""alt=""img"">
                            </div>
                        </div>","-90","","0","","","","images/map13_PuOr_scaleDef_orientDef_180.png","angry","1","13","13","PuOr","orientDef","scaleDef","180","",""
"","","","","","html-slider-response","95","365611","0.0-89.0","ea08oqhvbt","70","NaN","<div style=""width:500px;"">
                            <p style=""font-size:50px; font-weight:bold;""
                            >angry</p>
                            <div style=""width:240px; margin: auto;"">
                                <img src=""images/map02_Blues_scaleDef_orientMir_000.png"" style= ""width:200px""alt=""img"">
                            </div>
                        </div>","-154","","0","","","","images/map02_Blues_scaleDef_orientMir_000.png","angry","1","02","02","Blues","orientMir","scaleDef","000","",""
"","","","","","html-slider-response","96","367470","0.0-90.0","ea08oqhvbt","70","NaN","<div style=""width:500px;"">
                            <p style=""font-size:50px; font-weight:bold;""
                            >angry</p>
                            <div style=""width:240px; margin: auto;"">
                                <img src=""images/map23_berlin_scaleRev_orientMir_090.png"" style= ""width:200px""alt=""img"">
                            </div>
                        </div>","200","","0","","","","images/map23_berlin_scaleRev_orientMir_090.png","angry","1","23","23","berlin","orientMir","scaleRev","090","",""
"","","","","","html-slider-response","97","369305","0.0-91.0","ea08oqhvbt","70","NaN","<div style=""width:500px;"">
                            <p style=""font-size:50px; font-weight:bold;""
                            >angry</p>
                            <div style=""width:240px; margin: auto;"">
                                <img src=""images/map02_Purples_scaleDef_orientDef_180.png"" style= ""width:200px""alt=""img"">
                            </div>
                        </div>","-119","","0","","","","images/map02_Purples_scaleDef_orientDef_180.png","angry","1","02","02","Purples","orientDef","scaleDef","180","",""
"","","","","","html-slider-response","98","371222","0.0-92.0","ea08oqhvbt","70","NaN","<div style=""width:500px;"">
                            <p style=""font-size:50px; font-weight:bold;""
                            >angry</p>
                            <div style=""width:240px; margin: auto;"">
                                <img src=""images/map26_turbo_scaleRev_orientMir_090.png"" style= ""width:200px""alt=""img"">
                            </div>
                        </div>","104","","0","","","","images/map26_turbo_scaleRev_orientMir_090.png","angry","1","26","26","turbo","orientMir","scaleRev","090","",""
"","","","","","html-slider-response","99","372984","0.0-93.0","ea08oqhvbt","70","NaN","<div style=""width:500px;"">
                            <p style=""font-size:50px; font-weight:bold;""
                            >angry</p>
                            <div style=""width:240px; margin: auto;"">
                                <img src=""images/map27_magma_scaleDef_orientMir_000.png"" style= ""width:200px""alt=""img"">
                            </div>
                        </div>","200","","0","","","","images/map27_magma_scaleDef_orientMir_000.png","angry","1","27","27","magma","orientMir","scaleDef","000","",""
"","","","","","html-slider-response","100","374891","0.0-94.0","ea08oqhvbt","70","NaN","<div style=""width:500px;"">
                            <p style=""font-size:50px; font-weight:bold;""
                            >angry</p>
                            <div style=""width:240px; margin: auto;"">
                                <img src=""images/map13_PuOr_scaleRev_orientDef_270.png"" style= ""width:200px""alt=""img"">
                            </div>
                        </div>","-86","","0","","","","images/map13_PuOr_scaleRev_orientDef_270.png","angry","1","13","13","PuOr","orientDef","scaleRev","270","",""
"","","","","","html-button-response","101","377626","0.0-95.0","ea08oqhvbt","70","2232","<p>Great Job! You've finished block 1.<br></br> You have 4 block(s) left to go.<br></br></p>","0","","","","","","","","","","","","","","","",""
"","","","","","html-button-response","102","382548","0.0-96.0","ea08oqhvbt","70","4921","<p>In this block of trials, you will be asked to rate how much you associate each map with:</p > <p style = 'font-size:150%; font-weight: bold'>fearful</p><br></br>","0","","","","","","","","","","","","","","","",""
"","","","","","html-slider-response","103","387079","0.0-97.0","ea08oqhvbt","70","NaN","<div style=""width:500px;"">
                            <p style=""font-size:50px; font-weight:bold;""
                            >fearful</p>
                            <div style=""width:240px; margin: auto;"">
                                <img src=""images/map05_YlOrBr_scaleDef_orientMir_000.png"" style= ""width:200px""alt=""img"">
                            </div>
                        </div>","-102","","0","","","","images/map05_YlOrBr_scaleDef_orientMir_000.png","fearful","1","05","05","YlOrBr","orientMir","scaleDef","000","",""
"","","","","","html-slider-response","104","389108","0.0-98.0","ea08oqhvbt","70","NaN","<div style=""width:500px;"">
                            <p style=""font-size:50px; font-weight:bold;""
                            >fearful</p>
                            <div style=""width:240px; margin: auto;"">
                                <img src=""images/map26_vanimo_scaleDef_orientDef_000.png"" style= ""width:200px""alt=""img"">
                            </div>
                        </div>","200","","0","","","","images/map26_vanimo_scaleDef_orientDef_000.png","fearful","1","26","26","vanimo","orientDef","scaleDef","000","",""
"","","","","","html-slider-response","105","391041","0.0-99.0","ea08oqhvbt","70","NaN","<div style=""width:500px;"">
                            <p style=""font-size:50px; font-weight:bold;""
                            >fearful</p>
                            <div style=""width:240px; margin: auto;"">
                                <img src=""images/map27_inferno_scaleRev_orientDef_270.png"" style= ""width:200px""alt=""img"">
                            </div>
                        </div>","200","","0","","","","images/map27_inferno_scaleRev_orientDef_270.png","fearful","1","27","27","inferno","orientDef","scaleRev","270","",""
"","","","","","html-slider-response","106","393201","0.0-100.0","ea08oqhvbt","70","NaN","<div style=""width:500px;"">
                            <p style=""font-size:50px; font-weight:bold;""
                            >fearful</p>
                            <div style=""width:240px; margin: auto;"">
                                <img src=""images/map15_Spectral_scaleRev_orientMir_090.png"" style= ""width:200px""alt=""img"">
                            </div>
                        </div>","-200","","0","","","","images/map15_Spectral_scaleRev_orientMir_090.png","fearful","1","15","15","Spectral","orientMir","scaleRev","090","",""
"","","","","","html-slider-response","107","394923","0.0-101.0","ea08oqhvbt","70","NaN","<div style=""width:500px;"">
                            <p style=""font-size:50px; font-weight:bold;""
                            >fearful</p>
                            <div style=""width:240px; margin: auto;"">
                                <img src=""images/map13_PuOr_scaleRev_orientDef_270.png"" style= ""width:200px""alt=""img"">
                            </div>
                        </div>","-195","","0","","","","images/map13_PuOr_scaleRev_orientDef_270.png","fearful","1","13","13","PuOr","orientDef","scaleRev","270","",""
"","","","","","html-slider-response","108","396669","0.0-102.0","ea08oqhvbt","70","NaN","<div style=""width:500px;"">
                            <p style=""font-size:50px; font-weight:bold;""
                            >fearful</p>
                            <div style=""width:240px; margin: auto;"">
                                <img src=""images/map26_gist_earth_scaleDef_orientDef_180.png"" style= ""width:200px""alt=""img"">
                            </div>
                        </div>","81","","0","","","","images/map26_gist_earth_scaleDef_orientDef_180.png","fearful","1","26","26","gist","scaleDef","earth","orientDef","",""
"","","","","","html-slider-response","109","398269","0.0-103.0","ea08oqhvbt","70","NaN","<div style=""width:500px;"">
                            <p style=""font-size:50px; font-weight:bold;""
                            >fearful</p>
                            <div style=""width:240px; margin: auto;"">
                                <img src=""images/map26_turbo_scaleRev_orientMir_090.png"" style= ""width:200px""alt=""img"">
                            </div>
                        </div>","117","","0","","","","images/map26_turbo_scaleRev_orientMir_090.png","fearful","1","26","26","turbo","orientMir","scaleRev","090","",""
"","","","","","html-slider-response","110","400071","0.0-104.0","ea08oqhvbt","70","NaN","<div style=""width:500px;"">
                            <p style=""font-size:50px; font-weight:bold;""
                            >fearful</p>
                            <div style=""width:240px; margin: auto;"">
                                <img src=""images/map12_YlGn_scaleRev_orientDef_270.png"" style= ""width:200px""alt=""img"">
                            </div>
                        </div>","-200","","0","","","","images/map12_YlGn_scaleRev_orientDef_270.png","fearful","1","12","12","YlGn","orientDef","scaleRev","270","",""
"","","","","","html-slider-response","111","401841","0.0-105.0","ea08oqhvbt","70","NaN","<div style=""width:500px;"">
                            <p style=""font-size:50px; font-weight:bold;""
                            >fearful</p>
                            <div style=""width:240px; margin: auto;"">
                                <img src=""images/map13_PuOr_scaleDef_orientDef_180.png"" style= ""width:200px""alt=""img"">
                            </div>
                        </div>","-182","","0","","","","images/map13_PuOr_scaleDef_orientDef_180.png","fearful","1","13","13","PuOr","orientDef","scaleDef","180","",""
"","","","","","html-slider-response","112","403741","0.0-106.0","ea08oqhvbt","70","NaN","<div style=""width:500px;"">
                            <p style=""font-size:50px; font-weight:bold;""
                            >fearful</p>
                            <div style=""width:240px; margin: auto;"">
                                <img src=""images/map15_RdYlBu_scaleDef_orientDef_000.png"" style= ""width:200px""alt=""img"">
                            </div>
                        </div>","-172","","0","","","","images/map15_RdYlBu_scaleDef_orientDef_000.png","fearful","1","15","15","RdYlBu","orientDef","scaleDef","000","",""
"","","","","","html-slider-response","113","405659","0.0-107.0","ea08oqhvbt","70","NaN","<div style=""width:500px;"">
                            <p style=""font-size:50px; font-weight:bold;""
                            >fearful</p>
                            <div style=""width:240px; margin: auto;"">
                                <img src=""images/map02_Greens_scaleRev_orientMir_270.png"" style= ""width:200px""alt=""img"">
                            </div>
                        </div>","-122","","0","","","","images/map02_Greens_scaleRev_orientMir_270.png","fearful","1","02","02","Greens","orientMir","scaleRev","270","",""
"","","","","","html-slider-response","114","407477","0.0-108.0","ea08oqhvbt","70","NaN","<div style=""width:500px;"">
                            <p style=""font-size:50px; font-weight:bold;""
                            >fearful</p>
                            <div style=""width:240px; margin: auto;"">
                                <img src=""images/map15_RdYlGn_scaleDef_orientDef_180.png"" style= ""width:200px""alt=""img"">
                            </div>
                        </div>","-141","","0","","","","images/map15_RdYlGn_scaleDef_orientDef_180.png","fearful","1","15","15","RdYlGn","orientDef","scaleDef","180","",""
"","","","","","html-slider-response","115","409215","0.0-109.0","ea08oqhvbt","70","NaN","<div style=""width:500px;"">
                            <p style=""font-size:50px; font-weight:bold;""
                            >fearful</p>
                            <div style=""width:240px; margin: auto;"">
                                <img src=""images/map05_Reds_scaleDef_orientDef_180.png"" style= ""width:200px""alt=""img"">
                            </div>
                        </div>","107","","0","","","","images/map05_Reds_scaleDef_orientDef_180.png","fearful","1","05","05","Reds","orientDef","scaleDef","180","",""
"","","","","","html-slider-response","116","410977","0.0-110.0","ea08oqhvbt","70","NaN","<div style=""width:500px;"">
                            <p style=""font-size:50px; font-weight:bold;""
                            >fearful</p>
                            <div style=""width:240px; margin: auto;"">
                                <img src=""images/map15_Spectral_scaleDef_orientMir_000.png"" style= ""width:200px""alt=""img"">
                            </div>
                        </div>","-150","","0","","","","images/map15_Spectral_scaleDef_orientMir_000.png","fearful","1","15","15","Spectral","orientMir","scaleDef","000","",""
"","","","","","html-slider-response","117","412792","0.0-111.0","ea08oqhvbt","70","NaN","<div style=""width:500px;"">
                            <p style=""font-size:50px; font-weight:bold;""
                            >fearful</p>
                            <div style=""width:240px; margin: auto;"">
                                <img src=""images/map07_BuPu_scaleDef_orientMir_180.png"" style= ""width:200px""alt=""img"">
                            </div>
                        </div>","42","","0","","","","images/map07_BuPu_scaleDef_orientMir_180.png","fearful","1","07","07","BuPu","orientMir","scaleDef","180","",""
"","","","","","html-slider-response","118","414543","0.0-112.0","ea08oqhvbt","70","NaN","<div style=""width:500px;"">
                            <p style=""font-size:50px; font-weight:bold;""
                            >fearful</p>
                            <div style=""width:240px; margin: auto;"">
                                <img src=""images/map05_YlOrRd_scaleDef_orientMir_180.png"" style= ""width:200px""alt=""img"">
                            </div>
                        </div>","105","","0","","","","images/map05_YlOrRd_scaleDef_orientMir_180.png","fearful","1","05","05","YlOrRd","orientMir","scaleDef","180","",""
"","","","","","html-slider-response","119","416240","0.0-113.0","ea08oqhvbt","70","NaN","<div style=""width:500px;"">
                            <p style=""font-size:50px; font-weight:bold;""
                            >fearful</p>
                            <div style=""width:240px; margin: auto;"">
                                <img src=""images/map26_turbo_scaleDef_orientMir_000.png"" style= ""width:200px""alt=""img"">
                            </div>
                        </div>","97","","0","","","","images/map26_turbo_scaleDef_orientMir_000.png","fearful","1","26","26","turbo","orientMir","scaleDef","000","",""
"","","","","","html-slider-response","120","418253","0.0-114.0","ea08oqhvbt","70","NaN","<div style=""width:500px;"">
                            <p style=""font-size:50px; font-weight:bold;""
                            >fearful</p>
                            <div style=""width:240px; margin: auto;"">
                                <img src=""images/map10_GnBu_scaleDef_orientDef_000.png"" style= ""width:200px""alt=""img"">
                            </div>
                        </div>","46","","0","","","","images/map10_GnBu_scaleDef_orientDef_000.png","fearful","1","10","10","GnBu","orientDef","scaleDef","000","",""
"","","","","","html-slider-response","121","419961","0.0-115.0","ea08oqhvbt","70","NaN","<div style=""width:500px;"">
                            <p style=""font-size:50px; font-weight:bold;""
                            >fearful</p>
                            <div style=""width:240px; margin: auto;"">
                                <img src=""images/map27_cividis_scaleRev_orientMir_270.png"" style= ""width:200px""alt=""img"">
                            </div>
                        </div>","50","","0","","","","images/map27_cividis_scaleRev_orientMir_270.png","fearful","1","27","27","cividis","orientMir","scaleRev","270","",""
"","","","","","html-slider-response","122","421672","0.0-116.0","ea08oqhvbt","70","NaN","<div style=""width:500px;"">
                            <p style=""font-size:50px; font-weight:bold;""
                            >fearful</p>
                            <div style=""width:240px; margin: auto;"">
                                <img src=""images/map15_coolwarm_scaleRev_orientMir_270.png"" style= ""width:200px""alt=""img"">
                            </div>
                        </div>","-130","","0","","","","images/map15_coolwarm_scaleRev_orientMir_270.png","fearful","1","15","15","coolwarm","orientMir","scaleRev","270","",""
"","","","","","html-slider-response","123","423468","0.0-117.0","ea08oqhvbt","70","NaN","<div style=""width:500px;"">
                            <p style=""font-size:50px; font-weight:bold;""
                            >fearful</p>
                            <div style=""width:240px; margin: auto;"">
                                <img src=""images/map23_managua_scaleRev_orientMir_270.png"" style= ""width:200px""alt=""img"">
                            </div>
                        </div>","171","","0","","","","images/map23_managua_scaleRev_orientMir_270.png","fearful","1","23","23","managua","orientMir","scaleRev","270","",""
"","","","","","html-slider-response","124","425245","0.0-118.0","ea08oqhvbt","70","NaN","<div style=""width:500px;"">
                            <p style=""font-size:50px; font-weight:bold;""
                            >fearful</p>
                            <div style=""width:240px; margin: auto;"">
                                <img src=""images/map26_vanimo_scaleRev_orientDef_090.png"" style= ""width:200px""alt=""img"">
                            </div>
                        </div>","200","","0","","","","images/map26_vanimo_scaleRev_orientDef_090.png","fearful","1","26","26","vanimo","orientDef","scaleRev","090","",""
"","","","","","html-slider-response","125","427519","0.0-119.0","ea08oqhvbt","70","NaN","<div style=""width:500px;"">
                            <p style=""font-size:50px; font-weight:bold;""
                            >fearful</p>
                            <div style=""width:240px; margin: auto;"">
                                <img src=""images/map07_RdPu_scaleRev_orientMir_090.png"" style= ""width:200px""alt=""img"">
                            </div>
                        </div>","51","","0","","","","images/map07_RdPu_scaleRev_orientMir_090.png","fearful","1","07","07","RdPu","orientMir","scaleRev","090","",""
"","","","","","html-slider-response","126","429144","0.0-120.0","ea08oqhvbt","70","NaN","<div style=""width:500px;"">
                            <p style=""font-size:50px; font-weight:bold;""
                            >fearful</p>
                            <div style=""width:240px; margin: auto;"">
                                <img src=""images/map15_RdYlGn_scaleRev_orientDef_270.png"" style= ""width:200px""alt=""img"">
                            </div>
                        </div>","-173","","0","","","","images/map15_RdYlGn_scaleRev_orientDef_270.png","fearful","1","15","15","RdYlGn","orientDef","scaleRev","270","",""
"","","","","","html-slider-response","127","430727","0.0-121.0","ea08oqhvbt","70","NaN","<div style=""width:500px;"">
                            <p style=""font-size:50px; font-weight:bold;""
                            >fearful</p>
                            <div style=""width:240px; margin: auto;"">
                                <img src=""images/map27_magma_scaleDef_orientMir_000.png"" style= ""width:200px""alt=""img"">
                            </div>
                        </div>","200","","0","","","","images/map27_magma_scaleDef_orientMir_000.png","fearful","1","27","27","magma","orientMir","scaleDef","000","",""
"","","","","","html-slider-response","128","432351","0.0-122.0","ea08oqhvbt","70","NaN","<div style=""width:500px;"">
                            <p style=""font-size:50px; font-weight:bold;""
                            >fearful</p>
                            <div style=""width:240px; margin: auto;"">
                                <img src=""images/map02_Blues_scaleRev_orientMir_090.png"" style= ""width:200px""alt=""img"">
                            </div>
                        </div>","-93","","0","","","","images/map02_Blues_scaleRev_orientMir_090.png","fearful","1","02","02","Blues","orientMir","scaleRev","090","",""
"","","","","","html-slider-response","129","434057","0.0-123.0","ea08oqhvbt","70","NaN","<div style=""width:500px;"">
                            <p style=""font-size:50px; font-weight:bold;""
                            >fearful</p>
                            <div style=""width:240px; margin: auto;"">
                                <img src=""images/map23_managua_scaleDef_orientMir_180.png"" style= ""width:200px""alt=""img"">
                            </div>
                        </div>","149","","0","","","","images/map23_managua_scaleDef_orientMir_180.png","fearful","1","23","23","managua","orientMir","scaleDef","180","",""
"","","","","","html-slider-response","130","436591","0.0-124.0","ea08oqhvbt","70","NaN","<div style=""width:500px;"">
                            <p style=""font-size:50px; font-weight:bold;""
                            >fearful</p>
                            <div style=""width:240px; margin: auto;"">
                                <img src=""images/map05_Reds_scaleRev_orientDef_270.png"" style= ""width:200px""alt=""img"">
                            </div>
                        </div>","58","","0","","","","images/map05_Reds_scaleRev_orientDef_270.png","fearful","1","05","05","Reds","orientDef","scaleRev","270","",""
"","","","","","html-slider-response","131","438117","0.0-125.0","ea08oqhvbt","70","NaN","<div style=""width:500px;"">
                            <p style=""font-size:50px; font-weight:bold;""
                            >fearful</p>
                            <div style=""width:240px; margin: auto;"">
                                <img src=""images/map02_Greens_scaleDef_orientMir_180.png"" style= ""width:200px""alt=""img"">
                            </div>
                        </div>","-195","","0","","","","images/map02_Greens_scaleDef_orientMir_180.png","fearful","1","02","02","Greens","orientMir","scaleDef","180","",""
"","","","","","html-slider-response","132","439945","0.0-126.0","ea08oqhvbt","70","NaN","<div style=""width:500px;"">
                            <p style=""font-size:50px; font-weight:bold;""
                            >fearful</p>
                            <div style=""width:240px; margin: auto;"">
                                <img src=""images/map13_BrBG_scaleRev_orientDef_090.png"" style= ""width:200px""alt=""img"">
                            </div>
                        </div>","-190","","0","","","","images/map13_BrBG_scaleRev_orientDef_090.png","fearful","1","13","13","BrBG","orientDef","scaleRev","090","",""
"","","","","","html-slider-response","133","441724","0.0-127.0","ea08oqhvbt","70","NaN","<div style=""width:500px;"">
                            <p style=""font-size:50px; font-weight:bold;""
                            >fearful</p>
                            <div style=""width:240px; margin: auto;"">
                                <img src=""images/map05_YlOrBr_scaleRev_orientMir_090.png"" style= ""width:200px""alt=""img"">
                            </div>
                        </div>","49","","0","","","","images/map05_YlOrBr_scaleRev_orientMir_090.png","fearful","1","05","05","YlOrBr","orientMir","scaleRev","090","",""
"","","","","","html-slider-response","134","443502","0.0-128.0","ea08oqhvbt","70","NaN","<div style=""width:500px;"">
                            <p style=""font-size:50px; font-weight:bold;""
                            >fearful</p>
                            <div style=""width:240px; margin: auto;"">
                                <img src=""images/map10_PuBuGn_scaleDef_orientMir_180.png"" style= ""width:200px""alt=""img"">
                            </div>
                        </div>","51","","0","","","","images/map10_PuBuGn_scaleDef_orientMir_180.png","fearful","1","10","10","PuBuGn","orientMir","scaleDef","180","",""
"","","","","","html-slider-response","135","445256","0.0-129.0","ea08oqhvbt","70","NaN","<div style=""width:500px;"">
                            <p style=""font-size:50px; font-weight:bold;""
                            >fearful</p>
                            <div style=""width:240px; margin: auto;"">
                                <img src=""images/map10_PuBuGn_scaleRev_orientMir_270.png"" style= ""width:200px""alt=""img"">
                            </div>
                        </div>","62","","0","","","","images/map10_PuBuGn_scaleRev_orientMir_270.png","fearful","1","10","10","PuBuGn","orientMir","scaleRev","270","",""
"","","","","","html-slider-response","136","446929","0.0-130.0","ea08oqhvbt","70","NaN","<div style=""width:500px;"">
                            <p style=""font-size:50px; font-weight:bold;""
                            >fearful</p>
                            <div style=""width:240px; margin: auto;"">
                                <img src=""images/map23_berlin_scaleRev_orientMir_090.png"" style= ""width:200px""alt=""img"">
                            </div>
                        </div>","200","","0","","","","images/map23_berlin_scaleRev_orientMir_090.png","fearful","1","23","23","berlin","orientMir","scaleRev","090","",""
"","","","","","html-slider-response","137","449268","0.0-131.0","ea08oqhvbt","70","NaN","<div style=""width:500px;"">
                            <p style=""font-size:50px; font-weight:bold;""
                            >fearful</p>
                            <div style=""width:240px; margin: auto;"">
                                <img src=""images/map10_YlGnBu_scaleRev_orientMir_090.png"" style= ""width:200px""alt=""img"">
                            </div>
                        </div>","56","","0","","","","images/map10_YlGnBu_scaleRev_orientMir_090.png","fearful","1","10","10","YlGnBu","orientMir","scaleRev","090","",""
"","","","","","html-slider-response","138","451351","0.0-132.0","ea08oqhvbt","70","NaN","<div style=""width:500px;"">
                            <p style=""font-size:50px; font-weight:bold;""
                            >fearful</p>
                            <div style=""width:240px; margin: auto;"">
                                <img src=""images/map05_Oranges_scaleRev_orientDef_090.png"" style= ""width:200px""alt=""img"">
                            </div>
                        </div>","53","","0","","","","images/map05_Oranges_scaleRev_orientDef_090.png","fearful","1","05","05","Oranges","orientDef","scaleRev","090","",""
"","","","","","html-slider-response","139","453284","0.0-133.0","ea08oqhvbt","70","NaN","<div style=""width:500px;"">
                            <p style=""font-size:50px; font-weight:bold;""
                            >fearful</p>
                            <div style=""width:240px; margin: auto;"">
                                <img src=""images/map23_seismic_scaleDef_orientDef_180.png"" style= ""width:200px""alt=""img"">
                            </div>
                        </div>","76","","0","","","","images/map23_seismic_scaleDef_orientDef_180.png","fearful","1","23","23","seismic","orientDef","scaleDef","180","",""
"","","","","","html-slider-response","140","455190","0.0-134.0","ea08oqhvbt","70","NaN","<div style=""width:500px;"">
                            <p style=""font-size:50px; font-weight:bold;""
                            >fearful</p>
                            <div style=""width:240px; margin: auto;"">
                                <img src=""images/map07_RdPu_scaleDef_orientMir_000.png"" style= ""width:200px""alt=""img"">
                            </div>
                        </div>","-54","","0","","","","images/map07_RdPu_scaleDef_orientMir_000.png","fearful","1","07","07","RdPu","orientMir","scaleDef","000","",""
"","","","","","html-slider-response","141","456723","0.0-135.0","ea08oqhvbt","70","NaN","<div style=""width:500px;"">
                            <p style=""font-size:50px; font-weight:bold;""
                            >fearful</p>
                            <div style=""width:240px; margin: auto;"">
                                <img src=""images/map15_RdYlBu_scaleRev_orientDef_090.png"" style= ""width:200px""alt=""img"">
                            </div>
                        </div>","-65","","0","","","","images/map15_RdYlBu_scaleRev_orientDef_090.png","fearful","1","15","15","RdYlBu","orientDef","scaleRev","090","",""
"","","","","","html-slider-response","142","458916","0.0-136.0","ea08oqhvbt","70","NaN","<div style=""width:500px;"">
                            <p style=""font-size:50px; font-weight:bold;""
                            >fearful</p>
                            <div style=""width:240px; margin: auto;"">
                                <img src=""images/map07_OrRd_scaleRev_orientDef_090.png"" style= ""width:200px""alt=""img"">
                            </div>
                        </div>","-173","","0","","","","images/map07_OrRd_scaleRev_orientDef_090.png","fearful","1","07","07","OrRd","orientDef","scaleRev","090","",""
"","","","","","html-button-response","143","461008","0.0-137.0","ea08oqhvbt","70","1590","<p>You are doing great!<br></br> You are halway done with the current block. When you are ready to continue, click the 'Continue' button.</p>","0","","","","","","","","","","","","","","","",""
"","","","","","html-slider-response","144","462952","0.0-138.0","ea08oqhvbt","70","NaN","<div style=""width:500px;"">
                            <p style=""font-size:50px; font-weight:bold;""
                            >fearful</p>
                            <div style=""width:240px; margin: auto;"">
                                <img src=""images/map23_berlin_scaleDef_orientMir_000.png"" style= ""width:200px""alt=""img"">
                            </div>
                        </div>","200","","0","","","","images/map23_berlin_scaleDef_orientMir_000.png","fearful","1","23","23","berlin","orientMir","scaleDef","000","",""
"","","","","","html-slider-response","145","464690","0.0-139.0","ea08oqhvbt","70","NaN","<div style=""width:500px;"">
                            <p style=""font-size:50px; font-weight:bold;""
                            >fearful</p>
                            <div style=""width:240px; margin: auto;"">
                                <img src=""images/map02_Greys_scaleDef_orientDef_000.png"" style= ""width:200px""alt=""img"">
                            </div>
                        </div>","76","","0","","","","images/map02_Greys_scaleDef_orientDef_000.png","fearful","1","02","02","Greys","orientDef","scaleDef","000","",""
"","","","","","html-slider-response","146","466516","0.0-140.0","ea08oqhvbt","70","NaN","<div style=""width:500px;"">
                            <p style=""font-size:50px; font-weight:bold;""
                            >fearful</p>
                            <div style=""width:240px; margin: auto;"">
                                <img src=""images/map27_plasma_scaleRev_orientDef_090.png"" style= ""width:200px""alt=""img"">
                            </div>
                        </div>","155","","0","","","","images/map27_plasma_scaleRev_orientDef_090.png","fearful","1","27","27","plasma","orientDef","scaleRev","090","",""
"","","","","","html-slider-response","147","468362","0.0-141.0","ea08oqhvbt","70","NaN","<div style=""width:500px;"">
                            <p style=""font-size:50px; font-weight:bold;""
                            >fearful</p>
                            <div style=""width:240px; margin: auto;"">
                                <img src=""images/map15_coolwarm_scaleDef_orientMir_180.png"" style= ""width:200px""alt=""img"">
                            </div>
                        </div>","-200","","0","","","","images/map15_coolwarm_scaleDef_orientMir_180.png","fearful","1","15","15","coolwarm","orientMir","scaleDef","180","",""
"","","","","","html-slider-response","148","470496","0.0-142.0","ea08oqhvbt","70","NaN","<div style=""width:500px;"">
                            <p style=""font-size:50px; font-weight:bold;""
                            >fearful</p>
                            <div style=""width:240px; margin: auto;"">
                                <img src=""images/map12_BuGn_scaleRev_orientDef_090.png"" style= ""width:200px""alt=""img"">
                            </div>
                        </div>","-191","","0","","","","images/map12_BuGn_scaleRev_orientDef_090.png","fearful","1","12","12","BuGn","orientDef","scaleRev","090","",""
"","","","","","html-slider-response","149","472697","0.0-143.0","ea08oqhvbt","70","NaN","<div style=""width:500px;"">
                            <p style=""font-size:50px; font-weight:bold;""
                            >fearful</p>
                            <div style=""width:240px; margin: auto;"">
                                <img src=""images/map12_PiYG_scaleRev_orientMir_090.png"" style= ""width:200px""alt=""img"">
                            </div>
                        </div>","-189","","0","","","","images/map12_PiYG_scaleRev_orientMir_090.png","fearful","1","12","12","PiYG","orientMir","scaleRev","090","",""
"","","","","","html-slider-response","150","474678","0.0-144.0","ea08oqhvbt","70","NaN","<div style=""width:500px;"">
                            <p style=""font-size:50px; font-weight:bold;""
                            >fearful</p>
                            <div style=""width:240px; margin: auto;"">
                                <img src=""images/map26_viridis_scaleDef_orientMir_180.png"" style= ""width:200px""alt=""img"">
                            </div>
                        </div>","131","","0","","","","images/map26_viridis_scaleDef_orientMir_180.png","fearful","1","26","26","viridis","orientMir","scaleDef","180","",""
"","","","","","html-slider-response","151","476579","0.0-145.0","ea08oqhvbt","70","NaN","<div style=""width:500px;"">
                            <p style=""font-size:50px; font-weight:bold;""
                            >fearful</p>
                            <div style=""width:240px; margin: auto;"">
                                <img src=""images/map05_Oranges_scaleDef_orientDef_000.png"" style= ""width:200px""alt=""img"">
                            </div>
                        </div>","126","","0","","","","images/map05_Oranges_scaleDef_orientDef_000.png","fearful","1","05","05","Oranges","orientDef","scaleDef","000","",""
"","","","","","html-slider-response","152","478715","0.0-146.0","ea08oqhvbt","70","NaN","<div style=""width:500px;"">
                            <p style=""font-size:50px; font-weight:bold;""
                            >fearful</p>
                            <div style=""width:240px; margin: auto;"">
                                <img src=""images/map10_GnBu_scaleRev_orientDef_090.png"" style= ""width:200px""alt=""img"">
                            </div>
                        </div>","-124","","0","","","","images/map10_GnBu_scaleRev_orientDef_090.png","fearful","1","10","10","GnBu","orientDef","scaleRev","090","",""
"","","","","","html-slider-response","153","480518","0.0-147.0","ea08oqhvbt","70","NaN","<div style=""width:500px;"">
                            <p style=""font-size:50px; font-weight:bold;""
                            >fearful</p>
                            <div style=""width:240px; margin: auto;"">
                                <img src=""images/map13_RdGy_scaleRev_orientMir_090.png"" style= ""width:200px""alt=""img"">
                            </div>
                        </div>","-150","","0","","","","images/map13_RdGy_scaleRev_orientMir_090.png","fearful","1","13","13","RdGy","orientMir","scaleRev","090","",""
"","","","","","html-slider-response","154","482663","0.0-148.0","ea08oqhvbt","70","NaN","<div style=""width:500px;"">
                            <p style=""font-size:50px; font-weight:bold;""
                            >fearful</p>
                            <div style=""width:240px; margin: auto;"">
                                <img src=""images/map23_bwr_scaleRev_orientDef_090.png"" style= ""width:200px""alt=""img"">
                            </div>
                        </div>","63","","0","","","","images/map23_bwr_scaleRev_orientDef_090.png","fearful","1","23","23","bwr","orientDef","scaleRev","090","",""
"","","","","","html-slider-response","155","484440","0.0-149.0","ea08oqhvbt","70","NaN","<div style=""width:500px;"">
                            <p style=""font-size:50px; font-weight:bold;""
                            >fearful</p>
                            <div style=""width:240px; margin: auto;"">
                                <img src=""images/map05_YlOrRd_scaleRev_orientMir_270.png"" style= ""width:200px""alt=""img"">
                            </div>
                        </div>","92","","0","","","","images/map05_YlOrRd_scaleRev_orientMir_270.png","fearful","1","05","05","YlOrRd","orientMir","scaleRev","270","",""
"","","","","","html-slider-response","156","486233","0.0-150.0","ea08oqhvbt","70","NaN","<div style=""width:500px;"">
                            <p style=""font-size:50px; font-weight:bold;""
                            >fearful</p>
                            <div style=""width:240px; margin: auto;"">
                                <img src=""images/map13_RdBu_scaleRev_orientMir_270.png"" style= ""width:200px""alt=""img"">
                            </div>
                        </div>","-139","","0","","","","images/map13_RdBu_scaleRev_orientMir_270.png","fearful","1","13","13","RdBu","orientMir","scaleRev","270","",""
"","","","","","html-slider-response","157","488907","0.0-151.0","ea08oqhvbt","70","NaN","<div style=""width:500px;"">
                            <p style=""font-size:50px; font-weight:bold;""
                            >fearful</p>
                            <div style=""width:240px; margin: auto;"">
                                <img src=""images/map10_YlGnBu_scaleDef_orientMir_000.png"" style= ""width:200px""alt=""img"">
                            </div>
                        </div>","60","","0","","","","images/map10_YlGnBu_scaleDef_orientMir_000.png","fearful","1","10","10","YlGnBu","orientMir","scaleDef","000","",""
"","","","","","html-slider-response","158","490807","0.0-152.0","ea08oqhvbt","70","NaN","<div style=""width:500px;"">
                            <p style=""font-size:50px; font-weight:bold;""
                            >fearful</p>
                            <div style=""width:240px; margin: auto;"">
