"success","timeout","failed_images","failed_audio","failed_video","trial_type","trial_index","time_elapsed","internal_node_id","subject_id","condition_num","rt","stimulus","response","question_order","slider_start","practiceTrial","practiceTrialNum","correct","image_path","concept","repetition","map_id","map_num","scale_name","orientation_code","mapping_code","rotation_code","ishihara_plate","correct_response"
"true","false","[]","[]","[]","preload","0","927","0.0-0.0","eauwyou3fb","2","","","","","","","","","","","","","","","","","","",""
"","","","","","html-button-response","1","3323","0.0-1.0","eauwyou3fb","2","2395","Welcome to our experiment!<p>At the bottom of this screen, you will see a button that says ""Begin Experiment"".<br>Please only click that button when you are ready to complete the 30 minute experiment in one sitting.</p><p> Once you click that button, it will not be possible to restart the experiment.","0","","","","","","","","","","","","","","","",""
"true","","","","","fullscreen","2","5554","0.0-2.0","eauwyou3fb","2","1220","","","","","","","","","","","","","","","","","",""
"","","","","","survey-multi-select","3","32257","0.0-3.0","eauwyou3fb","2","26701","","{""Consent"":[""<strong>I consent</strong>""]}","[0]","","","","","","","","","","","","","","",""
"","","","","","html-button-response","4","36086","0.0-4.0","eauwyou3fb","2","3827","Welcome! <p> This experiment involves two parts: demographic information, followed by the experimental task.<p> It will take about 30 minutes to complete both parts.","0","","","","","","","","","","","","","","","",""
"","","","","","survey-text","5","57034","0.0-5.0","eauwyou3fb","2","20930","","{""Age"":""19"",""Gender"":""Female"",""Race/ethnicity"":""White"",""Languages"":""English, Spanish""}","","","","","","","","","","","","","","","",""
"","","","","","html-slider-response","6","89264","0.0-6.0","eauwyou3fb","2","32225","<div style='text-align:left; font-size:20px; line-height:25px; width: 1000px;'>
                                During this experiment you will be asked to rate how much you associate maps with                    different concepts.<br> Below, you can see some examples of the maps you will be asked to rate. Above the maps
                    is the list of concepts.<br>You will be asked                    to rate how much you associate each map with each concept on a scale from 'not at all' to 'very much' like the
                    one below. <br><br>
                    Now, please look at the list of concepts and maps. For each concept, think about the map you associate 'very
                    much' with the concept.<br>                     When you see that map during the experiment, please rate it near the 'very much' endpoint of the
                    scale.<br>Now, please think about which map you associate 'not at all'                     with each concept. When you see that map during the experiment, please rate it near the 'not at all' endpoint
                    of the scale.<br>
                    Please use the full range of the scale. That is, if a map is somewhat associated with the concept, you would
                    click partway between the middle point and right side of the scale.                    You will be asked to rate each map for a given concept before moving on to the next concept.<br>Press the
                    'Continue' button for instructions on how to use the slider.                    <br>
                </div>

                <div style=""width: 500px; margin: 0 auto;"">
                    <!-- Centered text paragraphs -->
                    <div style=""text-align: center; width: 500px;"">
                        <p style=""font-size:25px; line-height:15px;"">
                            fearful&nbsp;&nbsp;&nbsp;&nbsp;
                            angry&nbsp;&nbsp;&nbsp;&nbsp;
                            disgust&nbsp;&nbsp;&nbsp;&nbsp;
                            sad&nbsp;&nbsp;&nbsp;&nbsp;
                            happy
                        </p>
                        <!-- <p style=""font-size:20px; line-height:15px;"">angry</p>
                        <p style=""font-size:20px;line-height:15px;"">disgust</p>
                        <p style=""font-size:20px;line-height:15px;"">sad</p>
                        <p style=""font-size:20px;line-height:15px;"">happy</p> -->
                    </div>
            

                    <!-- Grid section -->
                   <div style=""display: flex; justify-content: center; padding-top: 15px;"">
                    <div style=""display: grid; grid-template-columns: repeat(10, 55px); grid-gap: 5px; width: auto;"">
                        <img src=""images/map15_PiYG_scaleRev_orientDef_090.png"" alt=""map"" style=""width: 100%;""><img src=""images/map05_cividis_scaleRev_orientDef_270.png"" alt=""map"" style=""width: 100%;""><img src=""images/map26_Spectral_scaleRev_orientDef_090.png"" alt=""map"" style=""width: 100%;""><img src=""images/map07_Oranges_scaleDef_orientMir_000.png"" alt=""map"" style=""width: 100%;""><img src=""images/map10_OrRd_scaleRev_orientMir_090.png"" alt=""map"" style=""width: 100%;""><img src=""images/map27_berlin_scaleDef_orientDef_000.png"" alt=""map"" style=""width: 100%;""><img src=""images/map12_PuBu_scaleDef_orientMir_180.png"" alt=""map"" style=""width: 100%;""><img src=""images/map27_vanimo_scaleDef_orientMir_000.png"" alt=""map"" style=""width: 100%;""><img src=""images/map13_YlGnBu_scaleRev_orientDef_090.png"" alt=""map"" style=""width: 100%;""><img src=""images/map02_plasma_scaleRev_orientMir_090.png"" alt=""map"" style=""width: 100%;""><img src=""images/map23_RdYlGn_scaleDef_orientMir_180.png"" alt=""map"" style=""width: 100%;""><img src=""images/map27_gist_earth_scaleDef_orientMir_180.png"" alt=""map"" style=""width: 100%;""><img src=""images/map15_PuOr_scaleRev_orientMir_270.png"" alt=""map"" style=""width: 100%;""><img src=""images/map10_YlOrBr_scaleRev_orientDef_090.png"" alt=""map"" style=""width: 100%;""><img src=""images/map10_PuRd_scaleDef_orientMir_180.png"" alt=""map"" style=""width: 100%;""><img src=""images/map02_turbo_scaleDef_orientDef_000.png"" alt=""map"" style=""width: 100%;""><img src=""images/map13_PuBuGn_scaleDef_orientDef_180.png"" alt=""map"" style=""width: 100%;""><img src=""images/map15_BrBG_scaleDef_orientMir_000.png"" alt=""map"" style=""width: 100%;""><img src=""images/map02_inferno_scaleRev_orientMir_270.png"" alt=""map"" style=""width: 100%;""><img src=""images/map13_BuGn_scaleRev_orientMir_090.png"" alt=""map"" style=""width: 100%;""><img src=""images/map12_RdPu_scaleDef_orientDef_000.png"" alt=""map"" style=""width: 100%;""><img src=""images/map10_YlOrRd_scaleRev_orientDef_270.png"" alt=""map"" style=""width: 100%;""><img src=""images/map07_Reds_scaleRev_orientMir_270.png"" alt=""map"" style=""width: 100%;""><img src=""images/map23_RdBu_scaleDef_orientDef_180.png"" alt=""map"" style=""width: 100%;""><img src=""images/map05_Purples_scaleRev_orientMir_270.png"" alt=""map"" style=""width: 100%;""><img src=""images/map15_PRGn_scaleRev_orientDef_270.png"" alt=""map"" style=""width: 100%;""><img src=""images/map07_Blues_scaleDef_orientDef_000.png"" alt=""map"" style=""width: 100%;""><img src=""images/map13_YlGn_scaleRev_orientMir_270.png"" alt=""map"" style=""width: 100%;""><img src=""images/map05_magma_scaleDef_orientDef_000.png"" alt=""map"" style=""width: 100%;""><img src=""images/map23_RdYlBu_scaleRev_orientMir_090.png"" alt=""map"" style=""width: 100%;""><img src=""images/map27_managua_scaleRev_orientDef_270.png"" alt=""map"" style=""width: 100%;""><img src=""images/map12_BuPu_scaleRev_orientDef_270.png"" alt=""map"" style=""width: 100%;""><img src=""images/map02_viridis_scaleRev_orientDef_270.png"" alt=""map"" style=""width: 100%;""><img src=""images/map05_Greys_scaleRev_orientMir_090.png"" alt=""map"" style=""width: 100%;""><img src=""images/map26_bwr_scaleRev_orientMir_090.png"" alt=""map"" style=""width: 100%;""><img src=""images/map26_coolwarm_scaleDef_orientDef_180.png"" alt=""map"" style=""width: 100%;""><img src=""images/map26_seismic_scaleRev_orientMir_270.png"" alt=""map"" style=""width: 100%;""><img src=""images/map23_RdGy_scaleDef_orientDef_000.png"" alt=""map"" style=""width: 100%;""><img src=""images/map07_Greens_scaleRev_orientDef_270.png"" alt=""map"" style=""width: 100%;""><img src=""images/map12_GnBu_scaleDef_orientMir_000.png"" alt=""map"" style=""width: 100%;"">
                    </div>
                </div>

                    <!-- Clear floats -->
                    <div style=""clear: both;""></div>
                </div>
                            ","null","","0","true","","","","","","","","","","","","",""
"","","","","","html-button-response","7","94216","0.0-7.0","eauwyou3fb","2","4949","<div style=""width:800px;""><p style=""text-align:left"">To move the slider, click and drag your cursor to the location of the scale where you would like to make your rating and then let go. When you let go of the slider, your response will be recorded and the next trial will begin. <br>
                    We are interested in your initial impressions of each map for the given concept, so please go with your first intuition. <br>
                    Before you begin the experiment, there will be four training trials for you to practice using the scale. <br>
                     When you are ready to start the training trials, please click ""Continue"".</p><br></div>","0","","","","","","","","","","","","","","","",""
"","","","","","html-slider-response","8","97739","0.0-8.0-0.0","eauwyou3fb","2","NaN","<div style=""width:500px;"">
                                    <p style=""font-size:25px;"">Please move the slider all the way to the <br> right endpoint of the scale</p>

                                    </div>
                                </div>","200","","0","true","0","true","","","","","","","","","","",""
"","","","","","html-button-response","9","99198","0.0-8.0-1.0","eauwyou3fb","2","955","<p align='center'><b>Good job!</b> Click on 'Continue' to proceed.</p>","0","","","","","","","","","","","","","","","",""
"","","","","","html-slider-response","10","101123","0.0-9.0-0.0","eauwyou3fb","2","NaN","<div style=""width:500px;"">
                                    <p style=""font-size:25px;"">Please move the slider all the way to the <br> left endpoint of the scale</p>

                                    </div>
                                </div>","-200","","0","true","1","true","","","","","","","","","","",""
"","","","","","html-button-response","11","102941","0.0-9.0-1.0","eauwyou3fb","2","1307","<p align='center'><b>Good job!</b> Click on 'Continue' to proceed.</p>","0","","","","","","","","","","","","","","","",""
"","","","","","html-slider-response","12","108599","0.0-10.0-0.0","eauwyou3fb","2","NaN","<div style=""width:500px;"">
                                    <p style=""font-size:25px;"">Please move the slider halfway between the center and right endpoint of the scale</p>

                                    </div>
                                </div>","95","","0","true","2","true","","","","","","","","","","",""
"","","","","","html-button-response","13","109991","0.0-10.0-1.0","eauwyou3fb","2","889","<p align='center'><b>Good job!</b> Click on 'Continue' to proceed.</p>","0","","","","","","","","","","","","","","","",""
"","","","","","html-slider-response","14","112763","0.0-11.0-0.0","eauwyou3fb","2","NaN","<div style=""width:500px;"">
                                    <p style=""font-size:25px;"">Please move the slider halfway between the center and left endpoint of the scale</p>

                                    </div>
                                </div>","-106","","0","true","3","true","","","","","","","","","","",""
"","","","","","html-button-response","15","114212","0.0-11.0-1.0","eauwyou3fb","2","947","<p align='center'><b>Good job!</b> Click on 'Continue' to proceed.</p>","0","","","","","","","","","","","","","","","",""
"","","","","","html-button-response","16","115384","0.0-12.0","eauwyou3fb","2","1171","<p>Great job! You've completed the practice trials. Now you will begin the main task.</p>","0","","","","","","","","","","","","","","","",""
"","","","","","html-button-response","17","117671","0.0-13.0","eauwyou3fb","2","2286","<p>In this block of trials, you will be asked to rate how much you associate each map with:</p > <p style = 'font-size:150%; font-weight: bold'>fearful</p><br></br>","0","","","","","","","","","","","","","","","",""
"","","","","","html-slider-response","18","120291","0.0-14.0","eauwyou3fb","2","NaN","<div style=""width:500px;"">
                            <p style=""font-size:50px; font-weight:bold;""
                            >fearful</p>
                            <div style=""width:240px; margin: auto;"">
                                <img src=""images/map27_gist_earth_scaleRev_orientMir_270.png"" style= ""width:200px""alt=""img"">
                            </div>
                        </div>","46","","0","","","","images/map27_gist_earth_scaleRev_orientMir_270.png","fearful","1","27","27","gist","scaleRev","earth","orientMir","",""
"","","","","","html-slider-response","19","122706","0.0-15.0","eauwyou3fb","2","NaN","<div style=""width:500px;"">
                            <p style=""font-size:50px; font-weight:bold;""
                            >fearful</p>
                            <div style=""width:240px; margin: auto;"">
                                <img src=""images/map23_RdYlGn_scaleDef_orientMir_180.png"" style= ""width:200px""alt=""img"">
                            </div>
                        </div>","166","","0","","","","images/map23_RdYlGn_scaleDef_orientMir_180.png","fearful","1","23","23","RdYlGn","orientMir","scaleDef","180","",""
"","","","","","html-slider-response","20","124742","0.0-16.0","eauwyou3fb","2","NaN","<div style=""width:500px;"">
                            <p style=""font-size:50px; font-weight:bold;""
                            >fearful</p>
                            <div style=""width:240px; margin: auto;"">
                                <img src=""images/map07_Greens_scaleRev_orientDef_270.png"" style= ""width:200px""alt=""img"">
                            </div>
                        </div>","-48","","0","","","","images/map07_Greens_scaleRev_orientDef_270.png","fearful","1","07","07","Greens","orientDef","scaleRev","270","",""
"","","","","","html-slider-response","21","127202","0.0-17.0","eauwyou3fb","2","NaN","<div style=""width:500px;"">
                            <p style=""font-size:50px; font-weight:bold;""
                            >fearful</p>
                            <div style=""width:240px; margin: auto;"">
                                <img src=""images/map05_magma_scaleRev_orientDef_090.png"" style= ""width:200px""alt=""img"">
                            </div>
                        </div>","190","","0","","","","images/map05_magma_scaleRev_orientDef_090.png","fearful","1","05","05","magma","orientDef","scaleRev","090","",""
"","","","","","html-slider-response","22","129524","0.0-18.0","eauwyou3fb","2","NaN","<div style=""width:500px;"">
                            <p style=""font-size:50px; font-weight:bold;""
                            >fearful</p>
                            <div style=""width:240px; margin: auto;"">
                                <img src=""images/map12_GnBu_scaleDef_orientMir_000.png"" style= ""width:200px""alt=""img"">
                            </div>
                        </div>","-200","","0","","","","images/map12_GnBu_scaleDef_orientMir_000.png","fearful","1","12","12","GnBu","orientMir","scaleDef","000","",""
"","","","","","html-slider-response","23","132126","0.0-19.0","eauwyou3fb","2","NaN","<div style=""width:500px;"">
                            <p style=""font-size:50px; font-weight:bold;""
                            >fearful</p>
                            <div style=""width:240px; margin: auto;"">
                                <img src=""images/map02_turbo_scaleRev_orientDef_090.png"" style= ""width:200px""alt=""img"">
                            </div>
                        </div>","51","","0","","","","images/map02_turbo_scaleRev_orientDef_090.png","fearful","1","02","02","turbo","orientDef","scaleRev","090","",""
"","","","","","html-slider-response","24","134290","0.0-20.0","eauwyou3fb","2","NaN","<div style=""width:500px;"">
                            <p style=""font-size:50px; font-weight:bold;""
                            >fearful</p>
                            <div style=""width:240px; margin: auto;"">
                                <img src=""images/map02_plasma_scaleRev_orientMir_090.png"" style= ""width:200px""alt=""img"">
                            </div>
                        </div>","128","","0","","","","images/map02_plasma_scaleRev_orientMir_090.png","fearful","1","02","02","plasma","orientMir","scaleRev","090","",""
"","","","","","html-slider-response","25","136920","0.0-21.0","eauwyou3fb","2","NaN","<div style=""width:500px;"">
                            <p style=""font-size:50px; font-weight:bold;""
                            >fearful</p>
                            <div style=""width:240px; margin: auto;"">
                                <img src=""images/map13_YlGn_scaleRev_orientMir_270.png"" style= ""width:200px""alt=""img"">
                            </div>
                        </div>","17","","0","","","","images/map13_YlGn_scaleRev_orientMir_270.png","fearful","1","13","13","YlGn","orientMir","scaleRev","270","",""
"","","","","","html-slider-response","26","139793","0.0-22.0","eauwyou3fb","2","NaN","<div style=""width:500px;"">
                            <p style=""font-size:50px; font-weight:bold;""
                            >fearful</p>
                            <div style=""width:240px; margin: auto;"">
                                <img src=""images/map26_Spectral_scaleDef_orientDef_000.png"" style= ""width:200px""alt=""img"">
                            </div>
                        </div>","19","","0","","","","images/map26_Spectral_scaleDef_orientDef_000.png","fearful","1","26","26","Spectral","orientDef","scaleDef","000","",""
"","","","","","html-slider-response","27","142360","0.0-23.0","eauwyou3fb","2","NaN","<div style=""width:500px;"">
                            <p style=""font-size:50px; font-weight:bold;""
                            >fearful</p>
                            <div style=""width:240px; margin: auto;"">
                                <img src=""images/map12_BuPu_scaleDef_orientDef_180.png"" style= ""width:200px""alt=""img"">
                            </div>
                        </div>","-200","","0","","","","images/map12_BuPu_scaleDef_orientDef_180.png","fearful","1","12","12","BuPu","orientDef","scaleDef","180","",""
"","","","","","html-slider-response","28","144525","0.0-24.0","eauwyou3fb","2","NaN","<div style=""width:500px;"">
                            <p style=""font-size:50px; font-weight:bold;""
                            >fearful</p>
                            <div style=""width:240px; margin: auto;"">
                                <img src=""images/map27_managua_scaleDef_orientDef_180.png"" style= ""width:200px""alt=""img"">
                            </div>
                        </div>","-22","","0","","","","images/map27_managua_scaleDef_orientDef_180.png","fearful","1","27","27","managua","orientDef","scaleDef","180","",""
"","","","","","html-slider-response","29","147291","0.0-25.0","eauwyou3fb","2","NaN","<div style=""width:500px;"">
                            <p style=""font-size:50px; font-weight:bold;""
                            >fearful</p>
                            <div style=""width:240px; margin: auto;"">
                                <img src=""images/map27_gist_earth_scaleDef_orientMir_180.png"" style= ""width:200px""alt=""img"">
                            </div>
                        </div>","-200","","0","","","","images/map27_gist_earth_scaleDef_orientMir_180.png","fearful","1","27","27","gist","scaleDef","earth","orientMir","",""
"","","","","","html-slider-response","30","150125","0.0-26.0","eauwyou3fb","2","NaN","<div style=""width:500px;"">
                            <p style=""font-size:50px; font-weight:bold;""
                            >fearful</p>
                            <div style=""width:240px; margin: auto;"">
                                <img src=""images/map23_RdYlBu_scaleRev_orientMir_090.png"" style= ""width:200px""alt=""img"">
                            </div>
                        </div>","104","","0","","","","images/map23_RdYlBu_scaleRev_orientMir_090.png","fearful","1","23","23","RdYlBu","orientMir","scaleRev","090","",""
"","","","","","html-slider-response","31","152409","0.0-27.0","eauwyou3fb","2","NaN","<div style=""width:500px;"">
                            <p style=""font-size:50px; font-weight:bold;""
                            >fearful</p>
                            <div style=""width:240px; margin: auto;"">
                                <img src=""images/map07_Oranges_scaleRev_orientMir_090.png"" style= ""width:200px""alt=""img"">
                            </div>
                        </div>","170","","0","","","","images/map07_Oranges_scaleRev_orientMir_090.png","fearful","1","07","07","Oranges","orientMir","scaleRev","090","",""
"","","","","","html-slider-response","32","154341","0.0-28.0","eauwyou3fb","2","NaN","<div style=""width:500px;"">
                            <p style=""font-size:50px; font-weight:bold;""
                            >fearful</p>
                            <div style=""width:240px; margin: auto;"">
                                <img src=""images/map27_vanimo_scaleDef_orientMir_000.png"" style= ""width:200px""alt=""img"">
                            </div>
                        </div>","200","","0","","","","images/map27_vanimo_scaleDef_orientMir_000.png","fearful","1","27","27","vanimo","orientMir","scaleDef","000","",""
"","","","","","html-slider-response","33","156140","0.0-29.0","eauwyou3fb","2","NaN","<div style=""width:500px;"">
                            <p style=""font-size:50px; font-weight:bold;""
                            >fearful</p>
                            <div style=""width:240px; margin: auto;"">
                                <img src=""images/map05_Purples_scaleDef_orientMir_180.png"" style= ""width:200px""alt=""img"">
                            </div>
                        </div>","-200","","0","","","","images/map05_Purples_scaleDef_orientMir_180.png","fearful","1","05","05","Purples","orientMir","scaleDef","180","",""
"","","","","","html-slider-response","34","159287","0.0-30.0","eauwyou3fb","2","NaN","<div style=""width:500px;"">
                            <p style=""font-size:50px; font-weight:bold;""
                            >fearful</p>
                            <div style=""width:240px; margin: auto;"">
                                <img src=""images/map27_managua_scaleRev_orientDef_270.png"" style= ""width:200px""alt=""img"">
                            </div>
                        </div>","14","","0","","","","images/map27_managua_scaleRev_orientDef_270.png","fearful","1","27","27","managua","orientDef","scaleRev","270","",""
"","","","","","html-slider-response","35","161355","0.0-31.0","eauwyou3fb","2","NaN","<div style=""width:500px;"">
                            <p style=""font-size:50px; font-weight:bold;""
                            >fearful</p>
                            <div style=""width:240px; margin: auto;"">
                                <img src=""images/map12_RdPu_scaleRev_orientDef_090.png"" style= ""width:200px""alt=""img"">
                            </div>
                        </div>","-163","","0","","","","images/map12_RdPu_scaleRev_orientDef_090.png","fearful","1","12","12","RdPu","orientDef","scaleRev","090","",""
"","","","","","html-slider-response","36","163995","0.0-32.0","eauwyou3fb","2","NaN","<div style=""width:500px;"">
                            <p style=""font-size:50px; font-weight:bold;""
                            >fearful</p>
                            <div style=""width:240px; margin: auto;"">
                                <img src=""images/map05_cividis_scaleDef_orientDef_180.png"" style= ""width:200px""alt=""img"">
                            </div>
                        </div>","-53","","0","","","","images/map05_cividis_scaleDef_orientDef_180.png","fearful","1","05","05","cividis","orientDef","scaleDef","180","",""
"","","","","","html-slider-response","37","165960","0.0-33.0","eauwyou3fb","2","NaN","<div style=""width:500px;"">
                            <p style=""font-size:50px; font-weight:bold;""
                            >fearful</p>
                            <div style=""width:240px; margin: auto;"">
                                <img src=""images/map15_BrBG_scaleRev_orientMir_090.png"" style= ""width:200px""alt=""img"">
                            </div>
                        </div>","-56","","0","","","","images/map15_BrBG_scaleRev_orientMir_090.png","fearful","1","15","15","BrBG","orientMir","scaleRev","090","",""
"","","","","","html-slider-response","38","167728","0.0-34.0","eauwyou3fb","2","NaN","<div style=""width:500px;"">
                            <p style=""font-size:50px; font-weight:bold;""
                            >fearful</p>
                            <div style=""width:240px; margin: auto;"">
                                <img src=""images/map23_RdGy_scaleDef_orientDef_000.png"" style= ""width:200px""alt=""img"">
                            </div>
                        </div>","70","","0","","","","images/map23_RdGy_scaleDef_orientDef_000.png","fearful","1","23","23","RdGy","orientDef","scaleDef","000","",""
"","","","","","html-slider-response","39","169832","0.0-35.0","eauwyou3fb","2","NaN","<div style=""width:500px;"">
                            <p style=""font-size:50px; font-weight:bold;""
                            >fearful</p>
                            <div style=""width:240px; margin: auto;"">
                                <img src=""images/map15_PuOr_scaleRev_orientMir_270.png"" style= ""width:200px""alt=""img"">
                            </div>
                        </div>","-98","","0","","","","images/map15_PuOr_scaleRev_orientMir_270.png","fearful","1","15","15","PuOr","orientMir","scaleRev","270","",""
"","","","","","html-slider-response","40","171970","0.0-36.0","eauwyou3fb","2","NaN","<div style=""width:500px;"">
                            <p style=""font-size:50px; font-weight:bold;""
                            >fearful</p>
                            <div style=""width:240px; margin: auto;"">
                                <img src=""images/map26_Spectral_scaleRev_orientDef_090.png"" style= ""width:200px""alt=""img"">
                            </div>
                        </div>","48","","0","","","","images/map26_Spectral_scaleRev_orientDef_090.png","fearful","1","26","26","Spectral","orientDef","scaleRev","090","",""
"","","","","","html-slider-response","41","174268","0.0-37.0","eauwyou3fb","2","NaN","<div style=""width:500px;"">
                            <p style=""font-size:50px; font-weight:bold;""
                            >fearful</p>
                            <div style=""width:240px; margin: auto;"">
                                <img src=""images/map05_Greys_scaleDef_orientMir_000.png"" style= ""width:200px""alt=""img"">
                            </div>
                        </div>","-128","","0","","","","images/map05_Greys_scaleDef_orientMir_000.png","fearful","1","05","05","Greys","orientMir","scaleDef","000","",""
"","","","","","html-slider-response","42","176510","0.0-38.0","eauwyou3fb","2","NaN","<div style=""width:500px;"">
                            <p style=""font-size:50px; font-weight:bold;""
                            >fearful</p>
                            <div style=""width:240px; margin: auto;"">
                                <img src=""images/map12_PuBu_scaleRev_orientMir_270.png"" style= ""width:200px""alt=""img"">
                            </div>
                        </div>","-199","","0","","","","images/map12_PuBu_scaleRev_orientMir_270.png","fearful","1","12","12","PuBu","orientMir","scaleRev","270","",""
"","","","","","html-slider-response","43","179043","0.0-39.0","eauwyou3fb","2","NaN","<div style=""width:500px;"">
                            <p style=""font-size:50px; font-weight:bold;""
                            >fearful</p>
                            <div style=""width:240px; margin: auto;"">
                                <img src=""images/map13_YlGnBu_scaleDef_orientDef_000.png"" style= ""width:200px""alt=""img"">
                            </div>
                        </div>","-176","","0","","","","images/map13_YlGnBu_scaleDef_orientDef_000.png","fearful","1","13","13","YlGnBu","orientDef","scaleDef","000","",""
"","","","","","html-slider-response","44","181569","0.0-40.0","eauwyou3fb","2","NaN","<div style=""width:500px;"">
                            <p style=""font-size:50px; font-weight:bold;""
                            >fearful</p>
                            <div style=""width:240px; margin: auto;"">
                                <img src=""images/map15_PuOr_scaleDef_orientMir_180.png"" style= ""width:200px""alt=""img"">
                            </div>
                        </div>","-19","","0","","","","images/map15_PuOr_scaleDef_orientMir_180.png","fearful","1","15","15","PuOr","orientMir","scaleDef","180","",""
"","","","","","html-slider-response","45","183809","0.0-41.0","eauwyou3fb","2","NaN","<div style=""width:500px;"">
                            <p style=""font-size:50px; font-weight:bold;""
                            >fearful</p>
                            <div style=""width:240px; margin: auto;"">
                                <img src=""images/map02_inferno_scaleRev_orientMir_270.png"" style= ""width:200px""alt=""img"">
                            </div>
                        </div>","52","","0","","","","images/map02_inferno_scaleRev_orientMir_270.png","fearful","1","02","02","inferno","orientMir","scaleRev","270","",""
"","","","","","html-slider-response","46","187468","0.0-42.0","eauwyou3fb","2","NaN","<div style=""width:500px;"">
                            <p style=""font-size:50px; font-weight:bold;""
                            >fearful</p>
                            <div style=""width:240px; margin: auto;"">
                                <img src=""images/map26_coolwarm_scaleDef_orientDef_180.png"" style= ""width:200px""alt=""img"">
                            </div>
                        </div>","-32","","0","","","","images/map26_coolwarm_scaleDef_orientDef_180.png","fearful","1","26","26","coolwarm","orientDef","scaleDef","180","",""
"","","","","","html-slider-response","47","189226","0.0-43.0","eauwyou3fb","2","NaN","<div style=""width:500px;"">
                            <p style=""font-size:50px; font-weight:bold;""
                            >fearful</p>
                            <div style=""width:240px; margin: auto;"">
                                <img src=""images/map13_PuBuGn_scaleDef_orientDef_180.png"" style= ""width:200px""alt=""img"">
                            </div>
                        </div>","-200","","0","","","","images/map13_PuBuGn_scaleDef_orientDef_180.png","fearful","1","13","13","PuBuGn","orientDef","scaleDef","180","",""
"","","","","","html-slider-response","48","190926","0.0-44.0","eauwyou3fb","2","NaN","<div style=""width:500px;"">
                            <p style=""font-size:50px; font-weight:bold;""
                            >fearful</p>
                            <div style=""width:240px; margin: auto;"">
                                <img src=""images/map10_YlOrRd_scaleDef_orientDef_180.png"" style= ""width:200px""alt=""img"">
                            </div>
                        </div>","147","","0","","","","images/map10_YlOrRd_scaleDef_orientDef_180.png","fearful","1","10","10","YlOrRd","orientDef","scaleDef","180","",""
"","","","","","html-slider-response","49","192904","0.0-45.0","eauwyou3fb","2","NaN","<div style=""width:500px;"">
                            <p style=""font-size:50px; font-weight:bold;""
                            >fearful</p>
                            <div style=""width:240px; margin: auto;"">
                                <img src=""images/map02_turbo_scaleDef_orientDef_000.png"" style= ""width:200px""alt=""img"">
                            </div>
                        </div>","32","","0","","","","images/map02_turbo_scaleDef_orientDef_000.png","fearful","1","02","02","turbo","orientDef","scaleDef","000","",""
"","","","","","html-slider-response","50","196468","0.0-46.0","eauwyou3fb","2","NaN","<div style=""width:500px;"">
                            <p style=""font-size:50px; font-weight:bold;""
                            >fearful</p>
                            <div style=""width:240px; margin: auto;"">
                                <img src=""images/map26_seismic_scaleDef_orientMir_180.png"" style= ""width:200px""alt=""img"">
                            </div>
                        </div>","82","","0","","","","images/map26_seismic_scaleDef_orientMir_180.png","fearful","1","26","26","seismic","orientMir","scaleDef","180","",""
"","","","","","html-slider-response","51","198924","0.0-47.0","eauwyou3fb","2","NaN","<div style=""width:500px;"">
                            <p style=""font-size:50px; font-weight:bold;""
                            >fearful</p>
                            <div style=""width:240px; margin: auto;"">
                                <img src=""images/map10_PuRd_scaleDef_orientMir_180.png"" style= ""width:200px""alt=""img"">
                            </div>
                        </div>","-130","","0","","","","images/map10_PuRd_scaleDef_orientMir_180.png","fearful","1","10","10","PuRd","orientMir","scaleDef","180","",""
"","","","","","html-slider-response","52","201125","0.0-48.0","eauwyou3fb","2","NaN","<div style=""width:500px;"">
                            <p style=""font-size:50px; font-weight:bold;""
                            >fearful</p>
                            <div style=""width:240px; margin: auto;"">
                                <img src=""images/map13_BuGn_scaleRev_orientMir_090.png"" style= ""width:200px""alt=""img"">
                            </div>
                        </div>","-78","","0","","","","images/map13_BuGn_scaleRev_orientMir_090.png","fearful","1","13","13","BuGn","orientMir","scaleRev","090","",""
"","","","","","html-slider-response","53","203030","0.0-49.0","eauwyou3fb","2","NaN","<div style=""width:500px;"">
                            <p style=""font-size:50px; font-weight:bold;""
                            >fearful</p>
                            <div style=""width:240px; margin: auto;"">
                                <img src=""images/map15_PiYG_scaleRev_orientDef_090.png"" style= ""width:200px""alt=""img"">
                            </div>
                        </div>","-43","","0","","","","images/map15_PiYG_scaleRev_orientDef_090.png","fearful","1","15","15","PiYG","orientDef","scaleRev","090","",""
"","","","","","html-slider-response","54","205061","0.0-50.0","eauwyou3fb","2","NaN","<div style=""width:500px;"">
                            <p style=""font-size:50px; font-weight:bold;""
                            >fearful</p>
                            <div style=""width:240px; margin: auto;"">
                                <img src=""images/map27_vanimo_scaleRev_orientMir_090.png"" style= ""width:200px""alt=""img"">
                            </div>
                        </div>","69","","0","","","","images/map27_vanimo_scaleRev_orientMir_090.png","fearful","1","27","27","vanimo","orientMir","scaleRev","090","",""
"","","","","","html-slider-response","55","207143","0.0-51.0","eauwyou3fb","2","NaN","<div style=""width:500px;"">
                            <p style=""font-size:50px; font-weight:bold;""
                            >fearful</p>
                            <div style=""width:240px; margin: auto;"">
                                <img src=""images/map07_Blues_scaleRev_orientDef_090.png"" style= ""width:200px""alt=""img"">
                            </div>
                        </div>","-200","","0","","","","images/map07_Blues_scaleRev_orientDef_090.png","fearful","1","07","07","Blues","orientDef","scaleRev","090","",""
"","","","","","html-slider-response","56","208994","0.0-52.0","eauwyou3fb","2","NaN","<div style=""width:500px;"">
                            <p style=""font-size:50px; font-weight:bold;""
                            >fearful</p>
                            <div style=""width:240px; margin: auto;"">
                                <img src=""images/map23_RdBu_scaleRev_orientDef_270.png"" style= ""width:200px""alt=""img"">
                            </div>
                        </div>","50","","0","","","","images/map23_RdBu_scaleRev_orientDef_270.png","fearful","1","23","23","RdBu","orientDef","scaleRev","270","",""
"","","","","","html-slider-response","57","211203","0.0-53.0","eauwyou3fb","2","NaN","<div style=""width:500px;"">
                            <p style=""font-size:50px; font-weight:bold;""
                            >fearful</p>
                            <div style=""width:240px; margin: auto;"">
                                <img src=""images/map10_YlOrBr_scaleDef_orientDef_000.png"" style= ""width:200px""alt=""img"">
                            </div>
                        </div>","149","","0","","","","images/map10_YlOrBr_scaleDef_orientDef_000.png","fearful","1","10","10","YlOrBr","orientDef","scaleDef","000","",""
"","","","","","html-button-response","58","225160","0.0-54.0","eauwyou3fb","2","13452","<p>You are doing great!<br></br> You are halway done with the current block. When you are ready to continue, click the 'Continue' button.</p>","0","","","","","","","","","","","","","","","",""
"","","","","","html-slider-response","59","227119","0.0-55.0","eauwyou3fb","2","NaN","<div style=""width:500px;"">
                            <p style=""font-size:50px; font-weight:bold;""
                            >fearful</p>
                            <div style=""width:240px; margin: auto;"">
                                <img src=""images/map02_viridis_scaleDef_orientDef_180.png"" style= ""width:200px""alt=""img"">
                            </div>
                        </div>","46","","0","","","","images/map02_viridis_scaleDef_orientDef_180.png","fearful","1","02","02","viridis","orientDef","scaleDef","180","",""
"","","","","","html-slider-response","60","229114","0.0-56.0","eauwyou3fb","2","NaN","<div style=""width:500px;"">
                            <p style=""font-size:50px; font-weight:bold;""
                            >fearful</p>
                            <div style=""width:240px; margin: auto;"">
                                <img src=""images/map13_PuBuGn_scaleRev_orientDef_270.png"" style= ""width:200px""alt=""img"">
                            </div>
                        </div>","-134","","0","","","","images/map13_PuBuGn_scaleRev_orientDef_270.png","fearful","1","13","13","PuBuGn","orientDef","scaleRev","270","",""
"","","","","","html-slider-response","61","231087","0.0-57.0","eauwyou3fb","2","NaN","<div style=""width:500px;"">
                            <p style=""font-size:50px; font-weight:bold;""
                            >fearful</p>
                            <div style=""width:240px; margin: auto;"">
                                <img src=""images/map07_Greens_scaleDef_orientDef_180.png"" style= ""width:200px""alt=""img"">
                            </div>
                        </div>","-46","","0","","","","images/map07_Greens_scaleDef_orientDef_180.png","fearful","1","07","07","Greens","orientDef","scaleDef","180","",""
"","","","","","html-slider-response","62","232872","0.0-58.0","eauwyou3fb","2","NaN","<div style=""width:500px;"">
                            <p style=""font-size:50px; font-weight:bold;""
                            >fearful</p>
                            <div style=""width:240px; margin: auto;"">
                                <img src=""images/map27_berlin_scaleDef_orientDef_000.png"" style= ""width:200px""alt=""img"">
                            </div>
                        </div>","93","","0","","","","images/map27_berlin_scaleDef_orientDef_000.png","fearful","1","27","27","berlin","orientDef","scaleDef","000","",""
"","","","","","html-slider-response","63","234781","0.0-59.0","eauwyou3fb","2","NaN","<div style=""width:500px;"">
                            <p style=""font-size:50px; font-weight:bold;""
                            >fearful</p>
                            <div style=""width:240px; margin: auto;"">
                                <img src=""images/map23_RdGy_scaleRev_orientDef_090.png"" style= ""width:200px""alt=""img"">
                            </div>
                        </div>","92","","0","","","","images/map23_RdGy_scaleRev_orientDef_090.png","fearful","1","23","23","RdGy","orientDef","scaleRev","090","",""
"","","","","","html-slider-response","64","236904","0.0-60.0","eauwyou3fb","2","NaN","<div style=""width:500px;"">
                            <p style=""font-size:50px; font-weight:bold;""
                            >fearful</p>
                            <div style=""width:240px; margin: auto;"">
                                <img src=""images/map10_YlOrRd_scaleRev_orientDef_270.png"" style= ""width:200px""alt=""img"">
                            </div>
                        </div>","163","","0","","","","images/map10_YlOrRd_scaleRev_orientDef_270.png","fearful","1","10","10","YlOrRd","orientDef","scaleRev","270","",""
"","","","","","html-slider-response","65","238697","0.0-61.0","eauwyou3fb","2","NaN","<div style=""width:500px;"">
                            <p style=""font-size:50px; font-weight:bold;""
                            >fearful</p>
                            <div style=""width:240px; margin: auto;"">
                                <img src=""images/map10_PuRd_scaleRev_orientMir_270.png"" style= ""width:200px""alt=""img"">
                            </div>
                        </div>","-138","","0","","","","images/map10_PuRd_scaleRev_orientMir_270.png","fearful","1","10","10","PuRd","orientMir","scaleRev","270","",""
"","","","","","html-slider-response","66","240588","0.0-62.0","eauwyou3fb","2","NaN","<div style=""width:500px;"">
                            <p style=""font-size:50px; font-weight:bold;""
                            >fearful</p>
                            <div style=""width:240px; margin: auto;"">
                                <img src=""images/map12_BuPu_scaleRev_orientDef_270.png"" style= ""width:200px""alt=""img"">
                            </div>
                        </div>","-200","","0","","","","images/map12_BuPu_scaleRev_orientDef_270.png","fearful","1","12","12","BuPu","orientDef","scaleRev","270","",""
"","","","","","html-slider-response","67","243068","0.0-63.0","eauwyou3fb","2","NaN","<div style=""width:500px;"">
                            <p style=""font-size:50px; font-weight:bold;""
                            >fearful</p>
                            <div style=""width:240px; margin: auto;"">
                                <img src=""images/map12_RdPu_scaleDef_orientDef_000.png"" style= ""width:200px""alt=""img"">
                            </div>
                        </div>","-45","","0","","","","images/map12_RdPu_scaleDef_orientDef_000.png","fearful","1","12","12","RdPu","orientDef","scaleDef","000","",""
"","","","","","html-slider-response","68","244999","0.0-64.0","eauwyou3fb","2","NaN","<div style=""width:500px;"">
                            <p style=""font-size:50px; font-weight:bold;""
                            >fearful</p>
                            <div style=""width:240px; margin: auto;"">
                                <img src=""images/map10_YlOrBr_scaleRev_orientDef_090.png"" style= ""width:200px""alt=""img"">
                            </div>
                        </div>","67","","0","","","","images/map10_YlOrBr_scaleRev_orientDef_090.png","fearful","1","10","10","YlOrBr","orientDef","scaleRev","090","",""
"","","","","","html-slider-response","69","247293","0.0-65.0","eauwyou3fb","2","NaN","<div style=""width:500px;"">
                            <p style=""font-size:50px; font-weight:bold;""
                            >fearful</p>
                            <div style=""width:240px; margin: auto;"">
                                <img src=""images/map23_RdBu_scaleDef_orientDef_180.png"" style= ""width:200px""alt=""img"">
                            </div>
                        </div>","24","","0","","","","images/map23_RdBu_scaleDef_orientDef_180.png","fearful","1","23","23","RdBu","orientDef","scaleDef","180","",""
"","","","","","html-slider-response","70","249061","0.0-66.0","eauwyou3fb","2","NaN","<div style=""width:500px;"">
                            <p style=""font-size:50px; font-weight:bold;""
                            >fearful</p>
                            <div style=""width:240px; margin: auto;"">
                                <img src=""images/map15_PRGn_scaleRev_orientDef_270.png"" style= ""width:200px""alt=""img"">
                            </div>
                        </div>","66","","0","","","","images/map15_PRGn_scaleRev_orientDef_270.png","fearful","1","15","15","PRGn","orientDef","scaleRev","270","",""
"","","","","","html-slider-response","71","251497","0.0-67.0","eauwyou3fb","2","NaN","<div style=""width:500px;"">
                            <p style=""font-size:50px; font-weight:bold;""
                            >fearful</p>
                            <div style=""width:240px; margin: auto;"">
                                <img src=""images/map05_Purples_scaleRev_orientMir_270.png"" style= ""width:200px""alt=""img"">
                            </div>
                        </div>","-192","","0","","","","images/map05_Purples_scaleRev_orientMir_270.png","fearful","1","05","05","Purples","orientMir","scaleRev","270","",""
"","","","","","html-slider-response","72","253521","0.0-68.0","eauwyou3fb","2","NaN","<div style=""width:500px;"">
                            <p style=""font-size:50px; font-weight:bold;""
                            >fearful</p>
                            <div style=""width:240px; margin: auto;"">
                                <img src=""images/map13_YlGn_scaleDef_orientMir_180.png"" style= ""width:200px""alt=""img"">
                            </div>
                        </div>","-33","","0","","","","images/map13_YlGn_scaleDef_orientMir_180.png","fearful","1","13","13","YlGn","orientMir","scaleDef","180","",""
"","","","","","html-slider-response","73","255564","0.0-69.0","eauwyou3fb","2","NaN","<div style=""width:500px;"">
                            <p style=""font-size:50px; font-weight:bold;""
                            >fearful</p>
                            <div style=""width:240px; margin: auto;"">
                                <img src=""images/map12_GnBu_scaleRev_orientMir_090.png"" style= ""width:200px""alt=""img"">
                            </div>
                        </div>","-200","","0","","","","images/map12_GnBu_scaleRev_orientMir_090.png","fearful","1","12","12","GnBu","orientMir","scaleRev","090","",""
"","","","","","html-slider-response","74","258063","0.0-70.0","eauwyou3fb","2","NaN","<div style=""width:500px;"">
                            <p style=""font-size:50px; font-weight:bold;""
                            >fearful</p>
                            <div style=""width:240px; margin: auto;"">
                                <img src=""images/map05_Greys_scaleRev_orientMir_090.png"" style= ""width:200px""alt=""img"">
                            </div>
                        </div>","29","","0","","","","images/map05_Greys_scaleRev_orientMir_090.png","fearful","1","05","05","Greys","orientMir","scaleRev","090","",""
"","","","","","html-slider-response","75","259771","0.0-71.0","eauwyou3fb","2","NaN","<div style=""width:500px;"">
                            <p style=""font-size:50px; font-weight:bold;""
                            >fearful</p>
                            <div style=""width:240px; margin: auto;"">
                                <img src=""images/map02_viridis_scaleRev_orientDef_270.png"" style= ""width:200px""alt=""img"">
                            </div>
                        </div>","42","","0","","","","images/map02_viridis_scaleRev_orientDef_270.png","fearful","1","02","02","viridis","orientDef","scaleRev","270","",""
"","","","","","html-slider-response","76","262030","0.0-72.0","eauwyou3fb","2","NaN","<div style=""width:500px;"">
                            <p style=""font-size:50px; font-weight:bold;""
                            >fearful</p>
                            <div style=""width:240px; margin: auto;"">
                                <img src=""images/map02_inferno_scaleDef_orientMir_180.png"" style= ""width:200px""alt=""img"">
                            </div>
                        </div>","144","","0","","","","images/map02_inferno_scaleDef_orientMir_180.png","fearful","1","02","02","inferno","orientMir","scaleDef","180","",""
"","","","","","html-slider-response","77","263837","0.0-73.0","eauwyou3fb","2","NaN","<div style=""width:500px;"">
                            <p style=""font-size:50px; font-weight:bold;""
                            >fearful</p>
                            <div style=""width:240px; margin: auto;"">
                                <img src=""images/map05_magma_scaleDef_orientDef_000.png"" style= ""width:200px""alt=""img"">
                            </div>
                        </div>","99","","0","","","","images/map05_magma_scaleDef_orientDef_000.png","fearful","1","05","05","magma","orientDef","scaleDef","000","",""
"","","","","","html-slider-response","78","265894","0.0-74.0","eauwyou3fb","2","NaN","<div style=""width:500px;"">
                            <p style=""font-size:50px; font-weight:bold;""
                            >fearful</p>
                            <div style=""width:240px; margin: auto;"">
                                <img src=""images/map07_Reds_scaleDef_orientMir_180.png"" style= ""width:200px""alt=""img"">
                            </div>
                        </div>","21","","0","","","","images/map07_Reds_scaleDef_orientMir_180.png","fearful","1","07","07","Reds","orientMir","scaleDef","180","",""
"","","","","","html-slider-response","79","267780","0.0-75.0","eauwyou3fb","2","NaN","<div style=""width:500px;"">
                            <p style=""font-size:50px; font-weight:bold;""
                            >fearful</p>
                            <div style=""width:240px; margin: auto;"">
                                <img src=""images/map12_PuBu_scaleDef_orientMir_180.png"" style= ""width:200px""alt=""img"">
                            </div>
                        </div>","-200","","0","","","","images/map12_PuBu_scaleDef_orientMir_180.png","fearful","1","12","12","PuBu","orientMir","scaleDef","180","",""
"","","","","","html-slider-response","80","270433","0.0-76.0","eauwyou3fb","2","NaN","<div style=""width:500px;"">
                            <p style=""font-size:50px; font-weight:bold;""
                            >fearful</p>
                            <div style=""width:240px; margin: auto;"">
                                <img src=""images/map02_plasma_scaleDef_orientMir_000.png"" style= ""width:200px""alt=""img"">
                            </div>
                        </div>","46","","0","","","","images/map02_plasma_scaleDef_orientMir_000.png","fearful","1","02","02","plasma","orientMir","scaleDef","000","",""
"","","","","","html-slider-response","81","272307","0.0-77.0","eauwyou3fb","2","NaN","<div style=""width:500px;"">
                            <p style=""font-size:50px; font-weight:bold;""
                            >fearful</p>
                            <div style=""width:240px; margin: auto;"">
                                <img src=""images/map07_Blues_scaleDef_orientDef_000.png"" style= ""width:200px""alt=""img"">
                            </div>
                        </div>","-200","","0","","","","images/map07_Blues_scaleDef_orientDef_000.png","fearful","1","07","07","Blues","orientDef","scaleDef","000","",""
"","","","","","html-slider-response","82","274462","0.0-78.0","eauwyou3fb","2","NaN","<div style=""width:500px;"">
                            <p style=""font-size:50px; font-weight:bold;""
                            >fearful</p>
                            <div style=""width:240px; margin: auto;"">
                                <img src=""images/map23_RdYlGn_scaleRev_orientMir_270.png"" style= ""width:200px""alt=""img"">
                            </div>
                        </div>","23","","0","","","","images/map23_RdYlGn_scaleRev_orientMir_270.png","fearful","1","23","23","RdYlGn","orientMir","scaleRev","270","",""
"","","","","","html-slider-response","83","276264","0.0-79.0","eauwyou3fb","2","NaN","<div style=""width:500px;"">
                            <p style=""font-size:50px; font-weight:bold;""
                            >fearful</p>
                            <div style=""width:240px; margin: auto;"">
                                <img src=""images/map10_OrRd_scaleDef_orientMir_000.png"" style= ""width:200px""alt=""img"">
                            </div>
                        </div>","130","","0","","","","images/map10_OrRd_scaleDef_orientMir_000.png","fearful","1","10","10","OrRd","orientMir","scaleDef","000","",""
"","","","","","html-slider-response","84","278471","0.0-80.0","eauwyou3fb","2","NaN","<div style=""width:500px;"">
                            <p style=""font-size:50px; font-weight:bold;""
                            >fearful</p>
                            <div style=""width:240px; margin: auto;"">
                                <img src=""images/map15_PiYG_scaleDef_orientDef_000.png"" style= ""width:200px""alt=""img"">
                            </div>
                        </div>","26","","0","","","","images/map15_PiYG_scaleDef_orientDef_000.png","fearful","1","15","15","PiYG","orientDef","scaleDef","000","",""
"","","","","","html-slider-response","85","280314","0.0-81.0","eauwyou3fb","2","NaN","<div style=""width:500px;"">
                            <p style=""font-size:50px; font-weight:bold;""
                            >fearful</p>
                            <div style=""width:240px; margin: auto;"">
                                <img src=""images/map05_cividis_scaleRev_orientDef_270.png"" style= ""width:200px""alt=""img"">
                            </div>
                        </div>","24","","0","","","","images/map05_cividis_scaleRev_orientDef_270.png","fearful","1","05","05","cividis","orientDef","scaleRev","270","",""
"","","","","","html-slider-response","86","282381","0.0-82.0","eauwyou3fb","2","NaN","<div style=""width:500px;"">
                            <p style=""font-size:50px; font-weight:bold;""
                            >fearful</p>
                            <div style=""width:240px; margin: auto;"">
                                <img src=""images/map13_YlGnBu_scaleRev_orientDef_090.png"" style= ""width:200px""alt=""img"">
                            </div>
                        </div>","-192","","0","","","","images/map13_YlGnBu_scaleRev_orientDef_090.png","fearful","1","13","13","YlGnBu","orientDef","scaleRev","090","",""
"","","","","","html-slider-response","87","284851","0.0-83.0","eauwyou3fb","2","NaN","<div style=""width:500px;"">
                            <p style=""font-size:50px; font-weight:bold;""
                            >fearful</p>
                            <div style=""width:240px; margin: auto;"">
                                <img src=""images/map26_bwr_scaleRev_orientMir_090.png"" style= ""width:200px""alt=""img"">
                            </div>
                        </div>","26","","0","","","","images/map26_bwr_scaleRev_orientMir_090.png","fearful","1","26","26","bwr","orientMir","scaleRev","090","",""
"","","","","","html-slider-response","88","286516","0.0-84.0","eauwyou3fb","2","NaN","<div style=""width:500px;"">
                            <p style=""font-size:50px; font-weight:bold;""
                            >fearful</p>
                            <div style=""width:240px; margin: auto;"">
                                <img src=""images/map26_seismic_scaleRev_orientMir_270.png"" style= ""width:200px""alt=""img"">
                            </div>
                        </div>","26","","0","","","","images/map26_seismic_scaleRev_orientMir_270.png","fearful","1","26","26","seismic","orientMir","scaleRev","270","",""
"","","","","","html-slider-response","89","289431","0.0-85.0","eauwyou3fb","2","NaN","<div style=""width:500px;"">
                            <p style=""font-size:50px; font-weight:bold;""
                            >fearful</p>
                            <div style=""width:240px; margin: auto;"">
                                <img src=""images/map15_BrBG_scaleDef_orientMir_000.png"" style= ""width:200px""alt=""img"">
                            </div>
                        </div>","-29","","0","","","","images/map15_BrBG_scaleDef_orientMir_000.png","fearful","1","15","15","BrBG","orientMir","scaleDef","000","",""
"","","","","","html-slider-response","90","291125","0.0-86.0","eauwyou3fb","2","NaN","<div style=""width:500px;"">
                            <p style=""font-size:50px; font-weight:bold;""
                            >fearful</p>
                            <div style=""width:240px; margin: auto;"">
                                <img src=""images/map23_RdYlBu_scaleDef_orientMir_000.png"" style= ""width:200px""alt=""img"">
                            </div>
                        </div>","10","","0","","","","images/map23_RdYlBu_scaleDef_orientMir_000.png","fearful","1","23","23","RdYlBu","orientMir","scaleDef","000","",""
"","","","","","html-slider-response","91","295374","0.0-87.0","eauwyou3fb","2","NaN","<div style=""width:500px;"">
                            <p style=""font-size:50px; font-weight:bold;""
                            >fearful</p>
                            <div style=""width:240px; margin: auto;"">
                                <img src=""images/map15_PRGn_scaleDef_orientDef_180.png"" style= ""width:200px""alt=""img"">
                            </div>
                        </div>","38","","0","","","","images/map15_PRGn_scaleDef_orientDef_180.png","fearful","1","15","15","PRGn","orientDef","scaleDef","180","",""
"","","","","","html-slider-response","92","297798","0.0-88.0","eauwyou3fb","2","NaN","<div style=""width:500px;"">
                            <p style=""font-size:50px; font-weight:bold;""
                            >fearful</p>
                            <div style=""width:240px; margin: auto;"">
                                <img src=""images/map07_Oranges_scaleDef_orientMir_000.png"" style= ""width:200px""alt=""img"">
                            </div>
                        </div>","83","","0","","","","images/map07_Oranges_scaleDef_orientMir_000.png","fearful","1","07","07","Oranges","orientMir","scaleDef","000","",""
"","","","","","html-slider-response","93","300264","0.0-89.0","eauwyou3fb","2","NaN","<div style=""width:500px;"">
                            <p style=""font-size:50px; font-weight:bold;""
                            >fearful</p>
                            <div style=""width:240px; margin: auto;"">
                                <img src=""images/map26_coolwarm_scaleRev_orientDef_270.png"" style= ""width:200px""alt=""img"">
                            </div>
                        </div>","55","","0","","","","images/map26_coolwarm_scaleRev_orientDef_270.png","fearful","1","26","26","coolwarm","orientDef","scaleRev","270","",""
"","","","","","html-slider-response","94","302565","0.0-90.0","eauwyou3fb","2","NaN","<div style=""width:500px;"">
                            <p style=""font-size:50px; font-weight:bold;""
                            >fearful</p>
                            <div style=""width:240px; margin: auto;"">
                                <img src=""images/map26_bwr_scaleDef_orientMir_000.png"" style= ""width:200px""alt=""img"">
                            </div>
                        </div>","131","","0","","","","images/map26_bwr_scaleDef_orientMir_000.png","fearful","1","26","26","bwr","orientMir","scaleDef","000","",""
"","","","","","html-slider-response","95","304484","0.0-91.0","eauwyou3fb","2","NaN","<div style=""width:500px;"">
                            <p style=""font-size:50px; font-weight:bold;""
                            >fearful</p>
                            <div style=""width:240px; margin: auto;"">
                                <img src=""images/map13_BuGn_scaleDef_orientMir_000.png"" style= ""width:200px""alt=""img"">
                            </div>
                        </div>","-182","","0","","","","images/map13_BuGn_scaleDef_orientMir_000.png","fearful","1","13","13","BuGn","orientMir","scaleDef","000","",""
"","","","","","html-slider-response","96","306444","0.0-92.0","eauwyou3fb","2","NaN","<div style=""width:500px;"">
                            <p style=""font-size:50px; font-weight:bold;""
                            >fearful</p>
                            <div style=""width:240px; margin: auto;"">
                                <img src=""images/map07_Reds_scaleRev_orientMir_270.png"" style= ""width:200px""alt=""img"">
                            </div>
                        </div>","24","","0","","","","images/map07_Reds_scaleRev_orientMir_270.png","fearful","1","07","07","Reds","orientMir","scaleRev","270","",""
"","","","","","html-slider-response","97","308733","0.0-93.0","eauwyou3fb","2","NaN","<div style=""width:500px;"">
                            <p style=""font-size:50px; font-weight:bold;""
                            >fearful</p>
                            <div style=""width:240px; margin: auto;"">
                                <img src=""images/map10_OrRd_scaleRev_orientMir_090.png"" style= ""width:200px""alt=""img"">
                            </div>
                        </div>","112","","0","","","","images/map10_OrRd_scaleRev_orientMir_090.png","fearful","1","10","10","OrRd","orientMir","scaleRev","090","",""
"","","","","","html-slider-response","98","310894","0.0-94.0","eauwyou3fb","2","NaN","<div style=""width:500px;"">
                            <p style=""font-size:50px; font-weight:bold;""
                            >fearful</p>
                            <div style=""width:240px; margin: auto;"">
                                <img src=""images/map27_berlin_scaleRev_orientDef_090.png"" style= ""width:200px""alt=""img"">
                            </div>
                        </div>","150","","0","","","","images/map27_berlin_scaleRev_orientDef_090.png","fearful","1","27","27","berlin","orientDef","scaleRev","090","",""
"","","","","","html-button-response","99","313026","0.0-95.0","eauwyou3fb","2","1626","<p>Great Job! You've finished block 1.<br></br> You have 4 block(s) left to go.<br></br></p>","0","","","","","","","","","","","","","","","",""
"","","","","","html-button-response","100","316014","0.0-96.0","eauwyou3fb","2","2987","<p>In this block of trials, you will be asked to rate how much you associate each map with:</p > <p style = 'font-size:150%; font-weight: bold'>angry</p><br></br>","0","","","","","","","","","","","","","","","",""
"","","","","","html-slider-response","101","317961","0.0-97.0","eauwyou3fb","2","NaN","<div style=""width:500px;"">
                            <p style=""font-size:50px; font-weight:bold;""
                            >angry</p>
                            <div style=""width:240px; margin: auto;"">
                                <img src=""images/map05_cividis_scaleRev_orientDef_270.png"" style= ""width:200px""alt=""img"">
                            </div>
                        </div>","-163","","0","","","","images/map05_cividis_scaleRev_orientDef_270.png","angry","1","05","05","cividis","orientDef","scaleRev","270","",""
"","","","","","html-slider-response","102","321302","0.0-98.0","eauwyou3fb","2","NaN","<div style=""width:500px;"">
                            <p style=""font-size:50px; font-weight:bold;""
                            >angry</p>
                            <div style=""width:240px; margin: auto;"">
                                <img src=""images/map15_BrBG_scaleDef_orientMir_000.png"" style= ""width:200px""alt=""img"">
                            </div>
                        </div>","-111","","0","","","","images/map15_BrBG_scaleDef_orientMir_000.png","angry","1","15","15","BrBG","orientMir","scaleDef","000","",""
"","","","","","html-slider-response","103","323150","0.0-99.0","eauwyou3fb","2","NaN","<div style=""width:500px;"">
                            <p style=""font-size:50px; font-weight:bold;""
                            >angry</p>
                            <div style=""width:240px; margin: auto;"">
                                <img src=""images/map23_RdGy_scaleDef_orientDef_000.png"" style= ""width:200px""alt=""img"">
                            </div>
                        </div>","200","","0","","","","images/map23_RdGy_scaleDef_orientDef_000.png","angry","1","23","23","RdGy","orientDef","scaleDef","000","",""
"","","","","","html-slider-response","104","325666","0.0-100.0","eauwyou3fb","2","NaN","<div style=""width:500px;"">
                            <p style=""font-size:50px; font-weight:bold;""
                            >angry</p>
                            <div style=""width:240px; margin: auto;"">
                                <img src=""images/map27_gist_earth_scaleDef_orientMir_180.png"" style= ""width:200px""alt=""img"">
                            </div>
                        </div>","-200","","0","","","","images/map27_gist_earth_scaleDef_orientMir_180.png","angry","1","27","27","gist","scaleDef","earth","orientMir","",""
"","","","","","html-slider-response","105","328250","0.0-101.0","eauwyou3fb","2","NaN","<div style=""width:500px;"">
                            <p style=""font-size:50px; font-weight:bold;""
                            >angry</p>
                            <div style=""width:240px; margin: auto;"">
                                <img src=""images/map27_berlin_scaleRev_orientDef_090.png"" style= ""width:200px""alt=""img"">
                            </div>
                        </div>","118","","0","","","","images/map27_berlin_scaleRev_orientDef_090.png","angry","1","27","27","berlin","orientDef","scaleRev","090","",""
"","","","","","html-slider-response","106","330583","0.0-102.0","eauwyou3fb","2","NaN","<div style=""width:500px;"">
                            <p style=""font-size:50px; font-weight:bold;""
                            >angry</p>
                            <div style=""width:240px; margin: auto;"">
                                <img src=""images/map26_bwr_scaleRev_orientMir_090.png"" style= ""width:200px""alt=""img"">
                            </div>
                        </div>","179","","0","","","","images/map26_bwr_scaleRev_orientMir_090.png","angry","1","26","26","bwr","orientMir","scaleRev","090","",""
"","","","","","html-slider-response","107","332381","0.0-103.0","eauwyou3fb","2","NaN","<div style=""width:500px;"">
                            <p style=""font-size:50px; font-weight:bold;""
                            >angry</p>
                            <div style=""width:240px; margin: auto;"">
                                <img src=""images/map05_magma_scaleRev_orientDef_090.png"" style= ""width:200px""alt=""img"">
                            </div>
                        </div>","200","","0","","","","images/map05_magma_scaleRev_orientDef_090.png","angry","1","05","05","magma","orientDef","scaleRev","090","",""
"","","","","","html-slider-response","108","334119","0.0-104.0","eauwyou3fb","2","NaN","<div style=""width:500px;"">
                            <p style=""font-size:50px; font-weight:bold;""
                            >angry</p>
                            <div style=""width:240px; margin: auto;"">
                                <img src=""images/map07_Reds_scaleDef_orientMir_180.png"" style= ""width:200px""alt=""img"">
                            </div>
                        </div>","102","","0","","","","images/map07_Reds_scaleDef_orientMir_180.png","angry","1","07","07","Reds","orientMir","scaleDef","180","",""
"","","","","","html-slider-response","109","336036","0.0-105.0","eauwyou3fb","2","NaN","<div style=""width:500px;"">
                            <p style=""font-size:50px; font-weight:bold;""
                            >angry</p>
                            <div style=""width:240px; margin: auto;"">
                                <img src=""images/map02_plasma_scaleDef_orientMir_000.png"" style= ""width:200px""alt=""img"">
                            </div>
                        </div>","23","","0","","","","images/map02_plasma_scaleDef_orientMir_000.png","angry","1","02","02","plasma","orientMir","scaleDef","000","",""
"","","","","","html-slider-response","110","338768","0.0-106.0","eauwyou3fb","2","NaN","<div style=""width:500px;"">
                            <p style=""font-size:50px; font-weight:bold;""
                            >angry</p>
                            <div style=""width:240px; margin: auto;"">
                                <img src=""images/map02_turbo_scaleDef_orientDef_000.png"" style= ""width:200px""alt=""img"">
                            </div>
                        </div>","22","","0","","","","images/map02_turbo_scaleDef_orientDef_000.png","angry","1","02","02","turbo","orientDef","scaleDef","000","",""
"","","","","","html-slider-response","111","341193","0.0-107.0","eauwyou3fb","2","NaN","<div style=""width:500px;"">
                            <p style=""font-size:50px; font-weight:bold;""
                            >angry</p>
                            <div style=""width:240px; margin: auto;"">
                                <img src=""images/map27_berlin_scaleDef_orientDef_000.png"" style= ""width:200px""alt=""img"">
                            </div>
                        </div>","106","","0","","","","images/map27_berlin_scaleDef_orientDef_000.png","angry","1","27","27","berlin","orientDef","scaleDef","000","",""
"","","","","","html-slider-response","112","343570","0.0-108.0","eauwyou3fb","2","NaN","<div style=""width:500px;"">
                            <p style=""font-size:50px; font-weight:bold;""
                            >angry</p>
                            <div style=""width:240px; margin: auto;"">
                                <img src=""images/map26_seismic_scaleDef_orientMir_180.png"" style= ""width:200px""alt=""img"">
                            </div>
                        </div>","173","","0","","","","images/map26_seismic_scaleDef_orientMir_180.png","angry","1","26","26","seismic","orientMir","scaleDef","180","",""
"","","","","","html-slider-response","113","345735","0.0-109.0","eauwyou3fb","2","NaN","<div style=""width:500px;"">
                            <p style=""font-size:50px; font-weight:bold;""
                            >angry</p>
                            <div style=""width:240px; margin: auto;"">
                                <img src=""images/map15_BrBG_scaleRev_orientMir_090.png"" style= ""width:200px""alt=""img"">
                            </div>
                        </div>","-54","","0","","","","images/map15_BrBG_scaleRev_orientMir_090.png","angry","1","15","15","BrBG","orientMir","scaleRev","090","",""
"","","","","","html-slider-response","114","347668","0.0-110.0","eauwyou3fb","2","NaN","<div style=""width:500px;"">
                            <p style=""font-size:50px; font-weight:bold;""
                            >angry</p>
                            <div style=""width:240px; margin: auto;"">
                                <img src=""images/map26_Spectral_scaleRev_orientDef_090.png"" style= ""width:200px""alt=""img"">
                            </div>
                        </div>","23","","0","","","","images/map26_Spectral_scaleRev_orientDef_090.png","angry","1","26","26","Spectral","orientDef","scaleRev","090","",""
"","","","","","html-slider-response","115","349416","0.0-111.0","eauwyou3fb","2","NaN","<div style=""width:500px;"">
                            <p style=""font-size:50px; font-weight:bold;""
                            >angry</p>
                            <div style=""width:240px; margin: auto;"">
                                <img src=""images/map26_Spectral_scaleDef_orientDef_000.png"" style= ""width:200px""alt=""img"">
                            </div>
                        </div>","59","","0","","","","images/map26_Spectral_scaleDef_orientDef_000.png","angry","1","26","26","Spectral","orientDef","scaleDef","000","",""
"","","","","","html-slider-response","116","351849","0.0-112.0","eauwyou3fb","2","NaN","<div style=""width:500px;"">
                            <p style=""font-size:50px; font-weight:bold;""
                            >angry</p>
                            <div style=""width:240px; margin: auto;"">
                                <img src=""images/map02_plasma_scaleRev_orientMir_090.png"" style= ""width:200px""alt=""img"">
                            </div>
                        </div>","45","","0","","","","images/map02_plasma_scaleRev_orientMir_090.png","angry","1","02","02","plasma","orientMir","scaleRev","090","",""
"","","","","","html-slider-response","117","353720","0.0-113.0","eauwyou3fb","2","NaN","<div style=""width:500px;"">
                            <p style=""font-size:50px; font-weight:bold;""
                            >angry</p>
                            <div style=""width:240px; margin: auto;"">
                                <img src=""images/map07_Oranges_scaleDef_orientMir_000.png"" style= ""width:200px""alt=""img"">
                            </div>
                        </div>","64","","0","","","","images/map07_Oranges_scaleDef_orientMir_000.png","angry","1","07","07","Oranges","orientMir","scaleDef","000","",""
"","","","","","html-slider-response","118","356072","0.0-114.0","eauwyou3fb","2","NaN","<div style=""width:500px;"">
                            <p style=""font-size:50px; font-weight:bold;""
                            >angry</p>
                            <div style=""width:240px; margin: auto;"">
                                <img src=""images/map02_inferno_scaleDef_orientMir_180.png"" style= ""width:200px""alt=""img"">
                            </div>
                        </div>","155","","0","","","","images/map02_inferno_scaleDef_orientMir_180.png","angry","1","02","02","inferno","orientMir","scaleDef","180","",""
"","","","","","html-slider-response","119","358270","0.0-115.0","eauwyou3fb","2","NaN","<div style=""width:500px;"">
                            <p style=""font-size:50px; font-weight:bold;""
                            >angry</p>
                            <div style=""width:240px; margin: auto;"">
                                <img src=""images/map23_RdYlGn_scaleRev_orientMir_270.png"" style= ""width:200px""alt=""img"">
                            </div>
                        </div>","18","","0","","","","images/map23_RdYlGn_scaleRev_orientMir_270.png","angry","1","23","23","RdYlGn","orientMir","scaleRev","270","",""
"","","","","","html-slider-response","120","360516","0.0-116.0","eauwyou3fb","2","NaN","<div style=""width:500px;"">
                            <p style=""font-size:50px; font-weight:bold;""
                            >angry</p>
                            <div style=""width:240px; margin: auto;"">
                                <img src=""images/map05_Greys_scaleDef_orientMir_000.png"" style= ""width:200px""alt=""img"">
                            </div>
                        </div>","-46","","0","","","","images/map05_Greys_scaleDef_orientMir_000.png","angry","1","05","05","Greys","orientMir","scaleDef","000","",""
"","","","","","html-slider-response","121","362336","0.0-117.0","eauwyou3fb","2","NaN","<div style=""width:500px;"">
                            <p style=""font-size:50px; font-weight:bold;""
                            >angry</p>
                            <div style=""width:240px; margin: auto;"">
                                <img src=""images/map10_PuRd_scaleRev_orientMir_270.png"" style= ""width:200px""alt=""img"">
                            </div>
                        </div>","-74","","0","","","","images/map10_PuRd_scaleRev_orientMir_270.png","angry","1","10","10","PuRd","orientMir","scaleRev","270","",""
"","","","","","html-slider-response","122","364836","0.0-118.0","eauwyou3fb","2","NaN","<div style=""width:500px;"">
                            <p style=""font-size:50px; font-weight:bold;""
                            >angry</p>
                            <div style=""width:240px; margin: auto;"">
                                <img src=""images/map26_coolwarm_scaleRev_orientDef_270.png"" style= ""width:200px""alt=""img"">
                            </div>
                        </div>","14","","0","","","","images/map26_coolwarm_scaleRev_orientDef_270.png","angry","1","26","26","coolwarm","orientDef","scaleRev","270","",""
"","","","","","html-slider-response","123","366653","0.0-119.0","eauwyou3fb","2","NaN","<div style=""width:500px;"">
                            <p style=""font-size:50px; font-weight:bold;""
                            >angry</p>
                            <div style=""width:240px; margin: auto;"">
                                <img src=""images/map07_Blues_scaleDef_orientDef_000.png"" style= ""width:200px""alt=""img"">
                            </div>
                        </div>","-200","","0","","","","images/map07_Blues_scaleDef_orientDef_000.png","angry","1","07","07","Blues","orientDef","scaleDef","000","",""
"","","","","","html-slider-response","124","368468","0.0-120.0","eauwyou3fb","2","NaN","<div style=""width:500px;"">
                            <p style=""font-size:50px; font-weight:bold;""
                            >angry</p>
                            <div style=""width:240px; margin: auto;"">
                                <img src=""images/map10_YlOrBr_scaleDef_orientDef_000.png"" style= ""width:200px""alt=""img"">
                            </div>
                        </div>","90","","0","","","","images/map10_YlOrBr_scaleDef_orientDef_000.png","angry","1","10","10","YlOrBr","orientDef","scaleDef","000","",""
"","","","","","html-slider-response","125","370286","0.0-121.0","eauwyou3fb","2","NaN","<div style=""width:500px;"">
                            <p style=""font-size:50px; font-weight:bold;""
                            >angry</p>
                            <div style=""width:240px; margin: auto;"">
                                <img src=""images/map07_Greens_scaleRev_orientDef_270.png"" style= ""width:200px""alt=""img"">
                            </div>
                        </div>","-200","","0","","","","images/map07_Greens_scaleRev_orientDef_270.png","angry","1","07","07","Greens","orientDef","scaleRev","270","",""
"","","","","","html-slider-response","126","372300","0.0-122.0","eauwyou3fb","2","NaN","<div style=""width:500px;"">
                            <p style=""font-size:50px; font-weight:bold;""
                            >angry</p>
                            <div style=""width:240px; margin: auto;"">
                                <img src=""images/map12_GnBu_scaleDef_orientMir_000.png"" style= ""width:200px""alt=""img"">
                            </div>
                        </div>","-200","","0","","","","images/map12_GnBu_scaleDef_orientMir_000.png","angry","1","12","12","GnBu","orientMir","scaleDef","000","",""
"","","","","","html-slider-response","127","374545","0.0-123.0","eauwyou3fb","2","NaN","<div style=""width:500px;"">
                            <p style=""font-size:50px; font-weight:bold;""
                            >angry</p>
                            <div style=""width:240px; margin: auto;"">
                                <img src=""images/map02_viridis_scaleRev_orientDef_270.png"" style= ""width:200px""alt=""img"">
                            </div>
                        </div>","-26","","0","","","","images/map02_viridis_scaleRev_orientDef_270.png","angry","1","02","02","viridis","orientDef","scaleRev","270","",""
"","","","","","html-slider-response","128","376536","0.0-124.0","eauwyou3fb","2","NaN","<div style=""width:500px;"">
                            <p style=""font-size:50px; font-weight:bold;""
                            >angry</p>
                            <div style=""width:240px; margin: auto;"">
                                <img src=""images/map23_RdGy_scaleRev_orientDef_090.png"" style= ""width:200px""alt=""img"">
                            </div>
                        </div>","140","","0","","","","images/map23_RdGy_scaleRev_orientDef_090.png","angry","1","23","23","RdGy","orientDef","scaleRev","090","",""
"","","","","","html-slider-response","129","378136","0.0-125.0","eauwyou3fb","2","NaN","<div style=""width:500px;"">
                            <p style=""font-size:50px; font-weight:bold;""
                            >angry</p>
                            <div style=""width:240px; margin: auto;"">
                                <img src=""images/map12_BuPu_scaleDef_orientDef_180.png"" style= ""width:200px""alt=""img"">
                            </div>
                        </div>","-102","","0","","","","images/map12_BuPu_scaleDef_orientDef_180.png","angry","1","12","12","BuPu","orientDef","scaleDef","180","",""
"","","","","","html-slider-response","130","380944","0.0-126.0","eauwyou3fb","2","NaN","<div style=""width:500px;"">
                            <p style=""font-size:50px; font-weight:bold;""
                            >angry</p>
                            <div style=""width:240px; margin: auto;"">
                                <img src=""images/map10_YlOrBr_scaleRev_orientDef_090.png"" style= ""width:200px""alt=""img"">
                            </div>
                        </div>","99","","0","","","","images/map10_YlOrBr_scaleRev_orientDef_090.png","angry","1","10","10","YlOrBr","orientDef","scaleRev","090","",""
"","","","","","html-slider-response","131","382937","0.0-127.0","eauwyou3fb","2","NaN","<div style=""width:500px;"">
                            <p style=""font-size:50px; font-weight:bold;""
                            >angry</p>
                            <div style=""width:240px; margin: auto;"">
                                <img src=""images/map23_RdBu_scaleDef_orientDef_180.png"" style= ""width:200px""alt=""img"">
                            </div>
                        </div>","23","","0","","","","images/map23_RdBu_scaleDef_orientDef_180.png","angry","1","23","23","RdBu","orientDef","scaleDef","180","",""
"","","","","","html-slider-response","132","384704","0.0-128.0","eauwyou3fb","2","NaN","<div style=""width:500px;"">
                            <p style=""font-size:50px; font-weight:bold;""
                            >angry</p>
                            <div style=""width:240px; margin: auto;"">
                                <img src=""images/map12_PuBu_scaleDef_orientMir_180.png"" style= ""width:200px""alt=""img"">
                            </div>
                        </div>","-200","","0","","","","images/map12_PuBu_scaleDef_orientMir_180.png","angry","1","12","12","PuBu","orientMir","scaleDef","180","",""
"","","","","","html-slider-response","133","386333","0.0-129.0","eauwyou3fb","2","NaN","<div style=""width:500px;"">
                            <p style=""font-size:50px; font-weight:bold;""
                            >angry</p>
                            <div style=""width:240px; margin: auto;"">
                                <img src=""images/map07_Blues_scaleRev_orientDef_090.png"" style= ""width:200px""alt=""img"">
                            </div>
                        </div>","-200","","0","","","","images/map07_Blues_scaleRev_orientDef_090.png","angry","1","07","07","Blues","orientDef","scaleRev","090","",""
"","","","","","html-slider-response","134","388636","0.0-130.0","eauwyou3fb","2","NaN","<div style=""width:500px;"">
                            <p style=""font-size:50px; font-weight:bold;""
                            >angry</p>
                            <div style=""width:240px; margin: auto;"">
                                <img src=""images/map05_Greys_scaleRev_orientMir_090.png"" style= ""width:200px""alt=""img"">
                            </div>
                        </div>","-7","","0","","","","images/map05_Greys_scaleRev_orientMir_090.png","angry","1","05","05","Greys","orientMir","scaleRev","090","",""
"","","","","","html-slider-response","135","390434","0.0-131.0","eauwyou3fb","2","NaN","<div style=""width:500px;"">
                            <p style=""font-size:50px; font-weight:bold;""
                            >angry</p>
                            <div style=""width:240px; margin: auto;"">
                                <img src=""images/map13_PuBuGn_scaleRev_orientDef_270.png"" style= ""width:200px""alt=""img"">
                            </div>
                        </div>","-200","","0","","","","images/map13_PuBuGn_scaleRev_orientDef_270.png","angry","1","13","13","PuBuGn","orientDef","scaleRev","270","",""
"","","","","","html-slider-response","136","392465","0.0-132.0","eauwyou3fb","2","NaN","<div style=""width:500px;"">
                            <p style=""font-size:50px; font-weight:bold;""
                            >angry</p>
                            <div style=""width:240px; margin: auto;"">
                                <img src=""images/map26_coolwarm_scaleDef_orientDef_180.png"" style= ""width:200px""alt=""img"">
                            </div>
                        </div>","18","","0","","","","images/map26_coolwarm_scaleDef_orientDef_180.png","angry","1","26","26","coolwarm","orientDef","scaleDef","180","",""
"","","","","","html-slider-response","137","394638","0.0-133.0","eauwyou3fb","2","NaN","<div style=""width:500px;"">
                            <p style=""font-size:50px; font-weight:bold;""
                            >angry</p>
                            <div style=""width:240px; margin: auto;"">
                                <img src=""images/map15_PuOr_scaleRev_orientMir_270.png"" style= ""width:200px""alt=""img"">
                            </div>
                        </div>","16","","0","","","","images/map15_PuOr_scaleRev_orientMir_270.png","angry","1","15","15","PuOr","orientMir","scaleRev","270","",""
"","","","","","html-slider-response","138","396429","0.0-134.0","eauwyou3fb","2","NaN","<div style=""width:500px;"">
                            <p style=""font-size:50px; font-weight:bold;""
                            >angry</p>
                            <div style=""width:240px; margin: auto;"">
                                <img src=""images/map13_BuGn_scaleRev_orientMir_090.png"" style= ""width:200px""alt=""img"">
                            </div>
                        </div>","-142","","0","","","","images/map13_BuGn_scaleRev_orientMir_090.png","angry","1","13","13","BuGn","orientMir","scaleRev","090","",""
"","","","","","html-slider-response","139","398450","0.0-135.0","eauwyou3fb","2","NaN","<div style=""width:500px;"">
                            <p style=""font-size:50px; font-weight:bold;""
                            >angry</p>
                            <div style=""width:240px; margin: auto;"">
                                <img src=""images/map15_PRGn_scaleRev_orientDef_270.png"" style= ""width:200px""alt=""img"">
                            </div>
                        </div>","-20","","0","","","","images/map15_PRGn_scaleRev_orientDef_270.png","angry","1","15","15","PRGn","orientDef","scaleRev","270","",""
"","","","","","html-slider-response","140","400974","0.0-136.0","eauwyou3fb","2","NaN","<div style=""width:500px;"">
                            <p style=""font-size:50px; font-weight:bold;""
                            >angry</p>
                            <div style=""width:240px; margin: auto;"">
                                <img src=""images/map15_PuOr_scaleDef_orientMir_180.png"" style= ""width:200px""alt=""img"">
                            </div>
                        </div>","10","","0","","","","images/map15_PuOr_scaleDef_orientMir_180.png","angry","1","15","15","PuOr","orientMir","scaleDef","180","",""
"","","","","","html-button-response","141","406368","0.0-137.0","eauwyou3fb","2","4882","<p>You are doing great!<br></br> You are halway done with the current block. When you are ready to continue, click the 'Continue' button.</p>","0","","","","","","","","","","","","","","","",""
"","","","","","html-slider-response","142","408559","0.0-138.0","eauwyou3fb","2","NaN","<div style=""width:500px;"">
                            <p style=""font-size:50px; font-weight:bold;""
                            >angry</p>
                            <div style=""width:240px; margin: auto;"">
                                <img src=""images/map10_YlOrRd_scaleRev_orientDef_270.png"" style= ""width:200px""alt=""img"">
                            </div>
                        </div>","126","","0","","","","images/map10_YlOrRd_scaleRev_orientDef_270.png","angry","1","10","10","YlOrRd","orientDef","scaleRev","270","",""
"","","","","","html-slider-response","143","410422","0.0-139.0","eauwyou3fb","2","NaN","<div style=""width:500px;"">
                            <p style=""font-size:50px; font-weight:bold;""
                            >angry</p>
                            <div style=""width:240px; margin: auto;"">
                                <img src=""images/map26_bwr_scaleDef_orientMir_000.png"" style= ""width:200px""alt=""img"">
                            </div>
                        </div>","72","","0","","","","images/map26_bwr_scaleDef_orientMir_000.png","angry","1","26","26","bwr","orientMir","scaleDef","000","",""
"","","","","","html-slider-response","144","412296","0.0-140.0","eauwyou3fb","2","NaN","<div style=""width:500px;"">
                            <p style=""font-size:50px; font-weight:bold;""
                            >angry</p>
                            <div style=""width:240px; margin: auto;"">
                                <img src=""images/map02_turbo_scaleRev_orientDef_090.png"" style= ""width:200px""alt=""img"">
                            </div>
                        </div>","29","","0","","","","images/map02_turbo_scaleRev_orientDef_090.png","angry","1","02","02","turbo","orientDef","scaleRev","090","",""
"","","","","","html-slider-response","145","414485","0.0-141.0","eauwyou3fb","2","NaN","<div style=""width:500px;"">
                            <p style=""font-size:50px; font-weight:bold;""
                            >angry</p>
                            <div style=""width:240px; margin: auto;"">
                                <img src=""images/map13_BuGn_scaleDef_orientMir_000.png"" style= ""width:200px""alt=""img"">
                            </div>
                        </div>","-179","","0","","","","images/map13_BuGn_scaleDef_orientMir_000.png","angry","1","13","13","BuGn","orientMir","scaleDef","000","",""
"","","","","","html-slider-response","146","416132","0.0-142.0","eauwyou3fb","2","NaN","<div style=""width:500px;"">
                            <p style=""font-size:50px; font-weight:bold;""
                            >angry</p>
                            <div style=""width:240px; margin: auto;"">
                                <img src=""images/map27_managua_scaleDef_orientDef_180.png"" style= ""width:200px""alt=""img"">
                            </div>
                        </div>","102","","0","","","","images/map27_managua_scaleDef_orientDef_180.png","angry","1","27","27","managua","orientDef","scaleDef","180","",""
"","","","","","html-slider-response","147","417762","0.0-143.0","eauwyou3fb","2","NaN","<div style=""width:500px;"">
                            <p style=""font-size:50px; font-weight:bold;""
                            >angry</p>
                            <div style=""width:240px; margin: auto;"">
                                <img src=""images/map27_managua_scaleRev_orientDef_270.png"" style= ""width:200px""alt=""img"">
                            </div>
                        </div>","56","","0","","","","images/map27_managua_scaleRev_orientDef_270.png","angry","1","27","27","managua","orientDef","scaleRev","270","",""
"","","","","","html-slider-response","148","420008","0.0-144.0","eauwyou3fb","2","NaN","<div style=""width:500px;"">
                            <p style=""font-size:50px; font-weight:bold;""
                            >angry</p>
                            <div style=""width:240px; margin: auto;"">
                                <img src=""images/map07_Oranges_scaleRev_orientMir_090.png"" style= ""width:200px""alt=""img"">
                            </div>
                        </div>","170","","0","","","","images/map07_Oranges_scaleRev_orientMir_090.png","angry","1","07","07","Oranges","orientMir","scaleRev","090","",""
"","","","","","html-slider-response","149","421897","0.0-145.0","eauwyou3fb","2","NaN","<div style=""width:500px;"">
                            <p style=""font-size:50px; font-weight:bold;""
                            >angry</p>
                            <div style=""width:240px; margin: auto;"">
                                <img src=""images/map13_PuBuGn_scaleDef_orientDef_180.png"" style= ""width:200px""alt=""img"">
                            </div>
                        </div>","-198","","0","","","","images/map13_PuBuGn_scaleDef_orientDef_180.png","angry","1","13","13","PuBuGn","orientDef","scaleDef","180","",""
"","","","","","html-slider-response","150","423931","0.0-146.0","eauwyou3fb","2","NaN","<div style=""width:500px;"">
                            <p style=""font-size:50px; font-weight:bold;""
                            >angry</p>
                            <div style=""width:240px; margin: auto;"">
                                <img src=""images/map13_YlGnBu_scaleRev_orientDef_090.png"" style= ""width:200px""alt=""img"">
                            </div>
                        </div>","-200","","0","","","","images/map13_YlGnBu_scaleRev_orientDef_090.png","angry","1","13","13","YlGnBu","orientDef","scaleRev","090","",""
"","","","","","html-slider-response","151","425906","0.0-147.0","eauwyou3fb","2","NaN","<div style=""width:500px;"">
                            <p style=""font-size:50px; font-weight:bold;""
                            >angry</p>
                            <div style=""width:240px; margin: auto;"">
                                <img src=""images/map12_BuPu_scaleRev_orientDef_270.png"" style= ""width:200px""alt=""img"">
                            </div>
                        </div>","-184","","0","","","","images/map12_BuPu_scaleRev_orientDef_270.png","angry","1","12","12","BuPu","orientDef","scaleRev","270","",""
"","","","","","html-slider-response","152","427515","0.0-148.0","eauwyou3fb","2","NaN","<div style=""width:500px;"">
                            <p style=""font-size:50px; font-weight:bold;""
                            >angry</p>
                            <div style=""width:240px; margin: auto;"">
                                <img src=""images/map23_RdYlBu_scaleDef_orientMir_000.png"" style= ""width:200px""alt=""img"">
                            </div>
                        </div>","40","","0","","","","images/map23_RdYlBu_scaleDef_orientMir_000.png","angry","1","23","23","RdYlBu","orientMir","scaleDef","000","",""
"","","","","","html-slider-response","153","429625","0.0-149.0","eauwyou3fb","2","NaN","<div style=""width:500px;"">
                            <p style=""font-size:50px; font-weight:bold;""
                            >angry</p>
                            <div style=""width:240px; margin: auto;"">
                                <img src=""images/map07_Reds_scaleRev_orientMir_270.png"" style= ""width:200px""alt=""img"">
                            </div>
                        </div>","186","","0","","","","images/map07_Reds_scaleRev_orientMir_270.png","angry","1","07","07","Reds","orientMir","scaleRev","270","",""
"","","","","","html-slider-response","154","432063","0.0-150.0","eauwyou3fb","2","NaN","<div style=""width:500px;"">
                            <p style=""font-size:50px; font-weight:bold;""
                            >angry</p>
                            <div style=""width:240px; margin: auto;"">
                                <img src=""images/map05_Purples_scaleDef_orientMir_180.png"" style= ""width:200px""alt=""img"">
                            </div>
                        </div>","-189","","0","","","","images/map05_Purples_scaleDef_orientMir_180.png","angry","1","05","05","Purples","orientMir","scaleDef","180","",""
"","","","","","html-slider-response","155","434069","0.0-151.0","eauwyou3fb","2","NaN","<div style=""width:500px;"">
                            <p style=""font-size:50px; font-weight:bold;""
                            >angry</p>
                            <div style=""width:240px; margin: auto;"">
                                <img src=""images/map12_RdPu_scaleRev_orientDef_090.png"" style= ""width:200px""alt=""img"">
                            </div>
                        </div>","-189","","0","","","","images/map12_RdPu_scaleRev_orientDef_090.png","angry","1","12","12","RdPu","orientDef","scaleRev","090","",""
"","","","","","html-slider-response","156","436938","0.0-152.0","eauwyou3fb","2","NaN","<div style=""width:500px;"">
                            <p style=""font-size:50px; font-weight:bold;""
                            >angry</p>
                            <div style=""width:240px; margin: auto;"">
                                <img src=""images/map05_Purples_scaleRev_orientMir_270.png"" style= ""width:200px""alt=""img"">
                            </div>
                        </div>","-194","","0","","","","images/map05_Purples_scaleRev_orientMir_270.png","angry","1","05","05","Purples","orientMir","scaleRev","270","",""
"","","","","","html-slider-response","157","439972","0.0-153.0","eauwyou3fb","2","NaN","<div style=""width:500px;"">
                            <p style=""font-size:50px; font-weight:bold;""
                            >angry</p>
                            <div style=""width:240px; margin: auto;"">
                                <img src=""images/map23_RdBu_scaleRev_orientDef_270.png"" style= ""width:200px""alt=""img"">
                            </div>
