"success","timeout","failed_images","failed_audio","failed_video","trial_type","trial_index","time_elapsed","internal_node_id","subject_id","condition_num","rt","stimulus","response","question_order","slider_start","practiceTrial","practiceTrialNum","correct","image_path","concept","repetition","map_id","map_num","scale_name","orientation_code","mapping_code","rotation_code","ishihara_plate","correct_response"
"true","false","[]","[]","[]","preload","0","511","0.0-0.0","eez5wr4xz9","67","","","","","","","","","","","","","","","","","","",""
"","","","","","html-button-response","1","23974","0.0-1.0","eez5wr4xz9","67","23461","Welcome to our experiment!<p>At the bottom of this screen, you will see a button that says ""Begin Experiment"".<br>Please only click that button when you are ready to complete the 30 minute experiment in one sitting.</p><p> Once you click that button, it will not be possible to restart the experiment.","0","","","","","","","","","","","","","","","",""
"true","","","","","fullscreen","2","26825","0.0-2.0","eez5wr4xz9","67","1849","","","","","","","","","","","","","","","","","",""
"","","","","","survey-multi-select","3","39012","0.0-3.0","eez5wr4xz9","67","12183","","{""Consent"":[""<strong>I consent</strong>""]}","[0]","","","","","","","","","","","","","","",""
"","","","","","html-button-response","4","41675","0.0-4.0","eez5wr4xz9","67","2661","Welcome! <p> This experiment involves two parts: demographic information, followed by the experimental task.<p> It will take about 30 minutes to complete both parts.","0","","","","","","","","","","","","","","","",""
"","","","","","survey-text","5","59278","0.0-5.0","eez5wr4xz9","67","17590","","{""Age"":""18"",""Gender"":""female"",""Race/ethnicity"":""white"",""Languages"":""English""}","","","","","","","","","","","","","","","",""
"","","","","","html-slider-response","6","99759","0.0-6.0","eez5wr4xz9","67","40478","<div style='text-align:left; font-size:20px; line-height:25px; width: 1000px;'>
                                During this experiment you will be asked to rate how much you associate maps with                    different concepts.<br> Below, you can see some examples of the maps you will be asked to rate. Above the maps
                    is the list of concepts.<br>You will be asked                    to rate how much you associate each map with each concept on a scale from 'not at all' to 'very much' like the
                    one below. <br><br>
                    Now, please look at the list of concepts and maps. For each concept, think about the map you associate 'very
                    much' with the concept.<br>                     When you see that map during the experiment, please rate it near the 'very much' endpoint of the
                    scale.<br>Now, please think about which map you associate 'not at all'                     with each concept. When you see that map during the experiment, please rate it near the 'not at all' endpoint
                    of the scale.<br>
                    Please use the full range of the scale. That is, if a map is somewhat associated with the concept, you would
                    click partway between the middle point and right side of the scale.                    You will be asked to rate each map for a given concept before moving on to the next concept.<br>Press the
                    'Continue' button for instructions on how to use the slider.                    <br>
                </div>

                <div style=""width: 500px; margin: 0 auto;"">
                    <!-- Centered text paragraphs -->
                    <div style=""text-align: center; width: 500px;"">
                        <p style=""font-size:25px; line-height:15px;"">
                            sad&nbsp;&nbsp;&nbsp;&nbsp;
                            fearful&nbsp;&nbsp;&nbsp;&nbsp;
                            angry&nbsp;&nbsp;&nbsp;&nbsp;
                            disgust&nbsp;&nbsp;&nbsp;&nbsp;
                            happy
                        </p>
                        <!-- <p style=""font-size:20px; line-height:15px;"">fearful</p>
                        <p style=""font-size:20px;line-height:15px;"">angry</p>
                        <p style=""font-size:20px;line-height:15px;"">disgust</p>
                        <p style=""font-size:20px;line-height:15px;"">happy</p> -->
                    </div>
            

                    <!-- Grid section -->
                   <div style=""display: flex; justify-content: center; padding-top: 15px;"">
                    <div style=""display: grid; grid-template-columns: repeat(10, 55px); grid-gap: 5px; width: auto;"">
                        <img src=""images/map13_magma_scaleDef_orientDef_270.png"" alt=""map"" style=""width: 100%;""><img src=""images/map05_RdYlBu_scaleDef_orientMir_270.png"" alt=""map"" style=""width: 100%;""><img src=""images/map02_PRGn_scaleRev_orientMir_180.png"" alt=""map"" style=""width: 100%;""><img src=""images/map12_gist_earth_scaleDef_orientDef_090.png"" alt=""map"" style=""width: 100%;""><img src=""images/map15_Blues_scaleDef_orientDef_270.png"" alt=""map"" style=""width: 100%;""><img src=""images/map10_berlin_scaleRev_orientMir_000.png"" alt=""map"" style=""width: 100%;""><img src=""images/map07_Spectral_scaleRev_orientMir_000.png"" alt=""map"" style=""width: 100%;""><img src=""images/map23_Reds_scaleDef_orientDef_090.png"" alt=""map"" style=""width: 100%;""><img src=""images/map10_bwr_scaleRev_orientDef_000.png"" alt=""map"" style=""width: 100%;""><img src=""images/map10_seismic_scaleRev_orientDef_180.png"" alt=""map"" style=""width: 100%;""><img src=""images/map15_Greens_scaleRev_orientMir_180.png"" alt=""map"" style=""width: 100%;""><img src=""images/map23_YlOrRd_scaleDef_orientMir_090.png"" alt=""map"" style=""width: 100%;""><img src=""images/map10_managua_scaleRev_orientMir_180.png"" alt=""map"" style=""width: 100%;""><img src=""images/map07_coolwarm_scaleDef_orientMir_090.png"" alt=""map"" style=""width: 100%;""><img src=""images/map27_PuBuGn_scaleRev_orientMir_180.png"" alt=""map"" style=""width: 100%;""><img src=""images/map15_Purples_scaleDef_orientDef_090.png"" alt=""map"" style=""width: 100%;""><img src=""images/map27_PuBu_scaleRev_orientDef_180.png"" alt=""map"" style=""width: 100%;""><img src=""images/map02_BuGn_scaleRev_orientDef_000.png"" alt=""map"" style=""width: 100%;""><img src=""images/map13_cividis_scaleDef_orientMir_090.png"" alt=""map"" style=""width: 100%;""><img src=""images/map10_vanimo_scaleDef_orientMir_270.png"" alt=""map"" style=""width: 100%;""><img src=""images/map23_OrRd_scaleDef_orientMir_270.png"" alt=""map"" style=""width: 100%;""><img src=""images/map13_inferno_scaleDef_orientDef_090.png"" alt=""map"" style=""width: 100%;""><img src=""images/map05_RdBu_scaleDef_orientMir_090.png"" alt=""map"" style=""width: 100%;""><img src=""images/map12_turbo_scaleRev_orientMir_000.png"" alt=""map"" style=""width: 100%;""><img src=""images/map26_RdPu_scaleRev_orientMir_000.png"" alt=""map"" style=""width: 100%;""><img src=""images/map02_PiYG_scaleRev_orientMir_000.png"" alt=""map"" style=""width: 100%;""><img src=""images/map02_YlGn_scaleRev_orientDef_180.png"" alt=""map"" style=""width: 100%;""><img src=""images/map02_BrBG_scaleDef_orientMir_270.png"" alt=""map"" style=""width: 100%;""><img src=""images/map05_RdGy_scaleRev_orientMir_000.png"" alt=""map"" style=""width: 100%;""><img src=""images/map27_YlGnBu_scaleDef_orientDef_270.png"" alt=""map"" style=""width: 100%;""><img src=""images/map26_PuRd_scaleDef_orientDef_090.png"" alt=""map"" style=""width: 100%;""><img src=""images/map23_YlOrBr_scaleRev_orientMir_000.png"" alt=""map"" style=""width: 100%;""><img src=""images/map12_plasma_scaleDef_orientMir_270.png"" alt=""map"" style=""width: 100%;""><img src=""images/map26_BuPu_scaleDef_orientMir_090.png"" alt=""map"" style=""width: 100%;""><img src=""images/map12_viridis_scaleDef_orientMir_090.png"" alt=""map"" style=""width: 100%;""><img src=""images/map23_Oranges_scaleRev_orientDef_000.png"" alt=""map"" style=""width: 100%;""><img src=""images/map07_RdYlGn_scaleRev_orientDef_180.png"" alt=""map"" style=""width: 100%;""><img src=""images/map05_PuOr_scaleRev_orientDef_180.png"" alt=""map"" style=""width: 100%;""><img src=""images/map26_GnBu_scaleDef_orientMir_270.png"" alt=""map"" style=""width: 100%;""><img src=""images/map15_Greys_scaleRev_orientDef_000.png"" alt=""map"" style=""width: 100%;"">
                    </div>
                </div>

                    <!-- Clear floats -->
                    <div style=""clear: both;""></div>
                </div>
                            ","null","","0","true","","","","","","","","","","","","",""
"","","","","","html-button-response","7","108192","0.0-7.0","eez5wr4xz9","67","8432","<div style=""width:800px;""><p style=""text-align:left"">To move the slider, click and drag your cursor to the location of the scale where you would like to make your rating and then let go. When you let go of the slider, your response will be recorded and the next trial will begin. <br>
                    We are interested in your initial impressions of each map for the given concept, so please go with your first intuition. <br>
                    Before you begin the experiment, there will be four training trials for you to practice using the scale. <br>
                     When you are ready to start the training trials, please click ""Continue"".</p><br></div>","0","","","","","","","","","","","","","","","",""
"","","","","","html-slider-response","8","111985","0.0-8.0-0.0","eez5wr4xz9","67","NaN","<div style=""width:500px;"">
                                    <p style=""font-size:25px;"">Please move the slider all the way to the <br> right endpoint of the scale</p>

                                    </div>
                                </div>","200","","0","true","0","true","","","","","","","","","","",""
"","","","","","html-button-response","9","113608","0.0-8.0-1.0","eez5wr4xz9","67","1120","<p align='center'><b>Good job!</b> Click on 'Continue' to proceed.</p>","0","","","","","","","","","","","","","","","",""
"","","","","","html-slider-response","10","115585","0.0-9.0-0.0","eez5wr4xz9","67","NaN","<div style=""width:500px;"">
                                    <p style=""font-size:25px;"">Please move the slider all the way to the <br> left endpoint of the scale</p>

                                    </div>
                                </div>","-200","","0","true","1","true","","","","","","","","","","",""
"","","","","","html-button-response","11","117041","0.0-9.0-1.0","eez5wr4xz9","67","954","<p align='center'><b>Good job!</b> Click on 'Continue' to proceed.</p>","0","","","","","","","","","","","","","","","",""
"","","","","","html-slider-response","12","120802","0.0-10.0-0.0","eez5wr4xz9","67","NaN","<div style=""width:500px;"">
                                    <p style=""font-size:25px;"">Please move the slider halfway between the center and right endpoint of the scale</p>

                                    </div>
                                </div>","106","","0","true","2","true","","","","","","","","","","",""
"","","","","","html-button-response","13","122341","0.0-10.0-1.0","eez5wr4xz9","67","1037","<p align='center'><b>Good job!</b> Click on 'Continue' to proceed.</p>","0","","","","","","","","","","","","","","","",""
"","","","","","html-slider-response","14","124801","0.0-11.0-0.0","eez5wr4xz9","67","NaN","<div style=""width:500px;"">
                                    <p style=""font-size:25px;"">Please move the slider halfway between the center and left endpoint of the scale</p>

                                    </div>
                                </div>","-99","","0","true","3","true","","","","","","","","","","",""
"","","","","","html-button-response","15","126041","0.0-11.0-1.0","eez5wr4xz9","67","738","<p align='center'><b>Good job!</b> Click on 'Continue' to proceed.</p>","0","","","","","","","","","","","","","","","",""
"","","","","","html-button-response","16","127641","0.0-12.0","eez5wr4xz9","67","1599","<p>Great job! You've completed the practice trials. Now you will begin the main task.</p>","0","","","","","","","","","","","","","","","",""
"","","","","","html-button-response","17","130490","0.0-13.0","eez5wr4xz9","67","2849","<p>In this block of trials, you will be asked to rate how much you associate each map with:</p > <p style = 'font-size:150%; font-weight: bold'>sad</p><br></br>","0","","","","","","","","","","","","","","","",""
"","","","","","html-slider-response","18","134885","0.0-14.0","eez5wr4xz9","67","NaN","<div style=""width:500px;"">
                            <p style=""font-size:50px; font-weight:bold;""
                            >sad</p>
                            <div style=""width:240px; margin: auto;"">
                                <img src=""images/map15_Oranges_scaleDef_orientMir_270.png"" style= ""width:200px""alt=""img"">
                            </div>
                        </div>","-97","","0","","","","images/map15_Oranges_scaleDef_orientMir_270.png","sad","1","15","15","Oranges","orientMir","scaleDef","270","",""
"","","","","","html-slider-response","19","137868","0.0-15.0","eez5wr4xz9","67","NaN","<div style=""width:500px;"">
                            <p style=""font-size:50px; font-weight:bold;""
                            >sad</p>
                            <div style=""width:240px; margin: auto;"">
                                <img src=""images/map05_RdBu_scaleDef_orientMir_090.png"" style= ""width:200px""alt=""img"">
                            </div>
                        </div>","2","","0","","","","images/map05_RdBu_scaleDef_orientMir_090.png","sad","1","05","05","RdBu","orientMir","scaleDef","090","",""
"","","","","","html-slider-response","20","141435","0.0-16.0","eez5wr4xz9","67","NaN","<div style=""width:500px;"">
                            <p style=""font-size:50px; font-weight:bold;""
                            >sad</p>
                            <div style=""width:240px; margin: auto;"">
                                <img src=""images/map05_PuOr_scaleRev_orientDef_180.png"" style= ""width:200px""alt=""img"">
                            </div>
                        </div>","-37","","0","","","","images/map05_PuOr_scaleRev_orientDef_180.png","sad","1","05","05","PuOr","orientDef","scaleRev","180","",""
"","","","","","html-slider-response","21","144818","0.0-17.0","eez5wr4xz9","67","NaN","<div style=""width:500px;"">
                            <p style=""font-size:50px; font-weight:bold;""
                            >sad</p>
                            <div style=""width:240px; margin: auto;"">
                                <img src=""images/map15_Greys_scaleRev_orientDef_000.png"" style= ""width:200px""alt=""img"">
                            </div>
                        </div>","200","","0","","","","images/map15_Greys_scaleRev_orientDef_000.png","sad","1","15","15","Greys","orientDef","scaleRev","000","",""
"","","","","","html-slider-response","22","147418","0.0-18.0","eez5wr4xz9","67","NaN","<div style=""width:500px;"">
                            <p style=""font-size:50px; font-weight:bold;""
                            >sad</p>
                            <div style=""width:240px; margin: auto;"">
                                <img src=""images/map26_RdPu_scaleDef_orientDef_270.png"" style= ""width:200px""alt=""img"">
                            </div>
                        </div>","-200","","0","","","","images/map26_RdPu_scaleDef_orientDef_270.png","sad","1","26","26","RdPu","orientDef","scaleDef","270","",""
"","","","","","html-slider-response","23","149901","0.0-19.0","eez5wr4xz9","67","NaN","<div style=""width:500px;"">
                            <p style=""font-size:50px; font-weight:bold;""
                            >sad</p>
                            <div style=""width:240px; margin: auto;"">
                                <img src=""images/map07_RdYlBu_scaleRev_orientDef_000.png"" style= ""width:200px""alt=""img"">
                            </div>
                        </div>","-63","","0","","","","images/map07_RdYlBu_scaleRev_orientDef_000.png","sad","1","07","07","RdYlBu","orientDef","scaleRev","000","",""
"","","","","","html-slider-response","24","152401","0.0-20.0","eez5wr4xz9","67","NaN","<div style=""width:500px;"">
                            <p style=""font-size:50px; font-weight:bold;""
                            >sad</p>
                            <div style=""width:240px; margin: auto;"">
                                <img src=""images/map26_RdPu_scaleRev_orientMir_000.png"" style= ""width:200px""alt=""img"">
                            </div>
                        </div>","-200","","0","","","","images/map26_RdPu_scaleRev_orientMir_000.png","sad","1","26","26","RdPu","orientMir","scaleRev","000","",""
"","","","","","html-slider-response","25","154768","0.0-21.0","eez5wr4xz9","67","NaN","<div style=""width:500px;"">
                            <p style=""font-size:50px; font-weight:bold;""
                            >sad</p>
                            <div style=""width:240px; margin: auto;"">
                                <img src=""images/map13_cividis_scaleRev_orientMir_180.png"" style= ""width:200px""alt=""img"">
                            </div>
                        </div>","200","","0","","","","images/map13_cividis_scaleRev_orientMir_180.png","sad","1","13","13","cividis","orientMir","scaleRev","180","",""
"","","","","","html-slider-response","26","156918","0.0-22.0","eez5wr4xz9","67","NaN","<div style=""width:500px;"">
                            <p style=""font-size:50px; font-weight:bold;""
                            >sad</p>
                            <div style=""width:240px; margin: auto;"">
                                <img src=""images/map23_YlOrBr_scaleDef_orientDef_270.png"" style= ""width:200px""alt=""img"">
                            </div>
                        </div>","-56","","0","","","","images/map23_YlOrBr_scaleDef_orientDef_270.png","sad","1","23","23","YlOrBr","orientDef","scaleDef","270","",""
"","","","","","html-slider-response","27","159751","0.0-23.0","eez5wr4xz9","67","NaN","<div style=""width:500px;"">
                            <p style=""font-size:50px; font-weight:bold;""
                            >sad</p>
                            <div style=""width:240px; margin: auto;"">
                                <img src=""images/map05_RdYlBu_scaleDef_orientMir_270.png"" style= ""width:200px""alt=""img"">
                            </div>
                        </div>","42","","0","","","","images/map05_RdYlBu_scaleDef_orientMir_270.png","sad","1","05","05","RdYlBu","orientMir","scaleDef","270","",""
"","","","","","html-slider-response","28","164217","0.0-24.0","eez5wr4xz9","67","NaN","<div style=""width:500px;"">
                            <p style=""font-size:50px; font-weight:bold;""
                            >sad</p>
                            <div style=""width:240px; margin: auto;"">
                                <img src=""images/map02_YlGn_scaleRev_orientDef_180.png"" style= ""width:200px""alt=""img"">
                            </div>
                        </div>","38","","0","","","","images/map02_YlGn_scaleRev_orientDef_180.png","sad","1","02","02","YlGn","orientDef","scaleRev","180","",""
"","","","","","html-slider-response","29","167634","0.0-25.0","eez5wr4xz9","67","NaN","<div style=""width:500px;"">
                            <p style=""font-size:50px; font-weight:bold;""
                            >sad</p>
                            <div style=""width:240px; margin: auto;"">
                                <img src=""images/map15_Blues_scaleDef_orientDef_270.png"" style= ""width:200px""alt=""img"">
                            </div>
                        </div>","163","","0","","","","images/map15_Blues_scaleDef_orientDef_270.png","sad","1","15","15","Blues","orientDef","scaleDef","270","",""
"","","","","","html-slider-response","30","170718","0.0-26.0","eez5wr4xz9","67","NaN","<div style=""width:500px;"">
                            <p style=""font-size:50px; font-weight:bold;""
                            >sad</p>
                            <div style=""width:240px; margin: auto;"">
                                <img src=""images/map02_BrBG_scaleDef_orientMir_270.png"" style= ""width:200px""alt=""img"">
                            </div>
                        </div>","68","","0","","","","images/map02_BrBG_scaleDef_orientMir_270.png","sad","1","02","02","BrBG","orientMir","scaleDef","270","",""
"","","","","","html-slider-response","31","173184","0.0-27.0","eez5wr4xz9","67","NaN","<div style=""width:500px;"">
                            <p style=""font-size:50px; font-weight:bold;""
                            >sad</p>
                            <div style=""width:240px; margin: auto;"">
                                <img src=""images/map05_BrBG_scaleRev_orientDef_000.png"" style= ""width:200px""alt=""img"">
                            </div>
                        </div>","70","","0","","","","images/map05_BrBG_scaleRev_orientDef_000.png","sad","1","05","05","BrBG","orientDef","scaleRev","000","",""
"","","","","","html-slider-response","32","175534","0.0-28.0","eez5wr4xz9","67","NaN","<div style=""width:500px;"">
                            <p style=""font-size:50px; font-weight:bold;""
                            >sad</p>
                            <div style=""width:240px; margin: auto;"">
                                <img src=""images/map12_viridis_scaleRev_orientMir_180.png"" style= ""width:200px""alt=""img"">
                            </div>
                        </div>","64","","0","","","","images/map12_viridis_scaleRev_orientMir_180.png","sad","1","12","12","viridis","orientMir","scaleRev","180","",""
"","","","","","html-slider-response","33","177684","0.0-29.0","eez5wr4xz9","67","NaN","<div style=""width:500px;"">
                            <p style=""font-size:50px; font-weight:bold;""
                            >sad</p>
                            <div style=""width:240px; margin: auto;"">
                                <img src=""images/map26_PuRd_scaleRev_orientDef_180.png"" style= ""width:200px""alt=""img"">
                            </div>
                        </div>","-200","","0","","","","images/map26_PuRd_scaleRev_orientDef_180.png","sad","1","26","26","PuRd","orientDef","scaleRev","180","",""
"","","","","","html-slider-response","34","180618","0.0-30.0","eez5wr4xz9","67","NaN","<div style=""width:500px;"">
                            <p style=""font-size:50px; font-weight:bold;""
                            >sad</p>
                            <div style=""width:240px; margin: auto;"">
                                <img src=""images/map27_PuBu_scaleRev_orientDef_180.png"" style= ""width:200px""alt=""img"">
                            </div>
                        </div>","176","","0","","","","images/map27_PuBu_scaleRev_orientDef_180.png","sad","1","27","27","PuBu","orientDef","scaleRev","180","",""
"","","","","","html-slider-response","35","183268","0.0-31.0","eez5wr4xz9","67","NaN","<div style=""width:500px;"">
                            <p style=""font-size:50px; font-weight:bold;""
                            >sad</p>
                            <div style=""width:240px; margin: auto;"">
                                <img src=""images/map02_BuGn_scaleRev_orientDef_000.png"" style= ""width:200px""alt=""img"">
                            </div>
                        </div>","24","","0","","","","images/map02_BuGn_scaleRev_orientDef_000.png","sad","1","02","02","BuGn","orientDef","scaleRev","000","",""
"","","","","","html-slider-response","36","185701","0.0-32.0","eez5wr4xz9","67","NaN","<div style=""width:500px;"">
                            <p style=""font-size:50px; font-weight:bold;""
                            >sad</p>
                            <div style=""width:240px; margin: auto;"">
                                <img src=""images/map27_GnBu_scaleRev_orientDef_000.png"" style= ""width:200px""alt=""img"">
                            </div>
                        </div>","46","","0","","","","images/map27_GnBu_scaleRev_orientDef_000.png","sad","1","27","27","GnBu","orientDef","scaleRev","000","",""
"","","","","","html-slider-response","37","188651","0.0-33.0","eez5wr4xz9","67","NaN","<div style=""width:500px;"">
                            <p style=""font-size:50px; font-weight:bold;""
                            >sad</p>
                            <div style=""width:240px; margin: auto;"">
                                <img src=""images/map02_YlGn_scaleDef_orientDef_090.png"" style= ""width:200px""alt=""img"">
                            </div>
                        </div>","-50","","0","","","","images/map02_YlGn_scaleDef_orientDef_090.png","sad","1","02","02","YlGn","orientDef","scaleDef","090","",""
"","","","","","html-slider-response","38","191351","0.0-34.0","eez5wr4xz9","67","NaN","<div style=""width:500px;"">
                            <p style=""font-size:50px; font-weight:bold;""
                            >sad</p>
                            <div style=""width:240px; margin: auto;"">
                                <img src=""images/map26_BuPu_scaleRev_orientMir_180.png"" style= ""width:200px""alt=""img"">
                            </div>
                        </div>","75","","0","","","","images/map26_BuPu_scaleRev_orientMir_180.png","sad","1","26","26","BuPu","orientMir","scaleRev","180","",""
"","","","","","html-slider-response","39","194884","0.0-35.0","eez5wr4xz9","67","NaN","<div style=""width:500px;"">
                            <p style=""font-size:50px; font-weight:bold;""
                            >sad</p>
                            <div style=""width:240px; margin: auto;"">
                                <img src=""images/map12_gist_earth_scaleDef_orientDef_090.png"" style= ""width:200px""alt=""img"">
                            </div>
                        </div>","-66","","0","","","","images/map12_gist_earth_scaleDef_orientDef_090.png","sad","1","12","12","gist","scaleDef","earth","orientDef","",""
"","","","","","html-slider-response","40","197534","0.0-36.0","eez5wr4xz9","67","NaN","<div style=""width:500px;"">
                            <p style=""font-size:50px; font-weight:bold;""
                            >sad</p>
                            <div style=""width:240px; margin: auto;"">
                                <img src=""images/map02_PRGn_scaleRev_orientMir_180.png"" style= ""width:200px""alt=""img"">
                            </div>
                        </div>","-62","","0","","","","images/map02_PRGn_scaleRev_orientMir_180.png","sad","1","02","02","PRGn","orientMir","scaleRev","180","",""
"","","","","","html-slider-response","41","201034","0.0-37.0","eez5wr4xz9","67","NaN","<div style=""width:500px;"">
                            <p style=""font-size:50px; font-weight:bold;""
                            >sad</p>
                            <div style=""width:240px; margin: auto;"">
                                <img src=""images/map10_seismic_scaleRev_orientDef_180.png"" style= ""width:200px""alt=""img"">
                            </div>
                        </div>","-50","","0","","","","images/map10_seismic_scaleRev_orientDef_180.png","sad","1","10","10","seismic","orientDef","scaleRev","180","",""
"","","","","","html-slider-response","42","203051","0.0-38.0","eez5wr4xz9","67","NaN","<div style=""width:500px;"">
                            <p style=""font-size:50px; font-weight:bold;""
                            >sad</p>
                            <div style=""width:240px; margin: auto;"">
                                <img src=""images/map07_bwr_scaleDef_orientMir_270.png"" style= ""width:200px""alt=""img"">
                            </div>
                        </div>","-70","","0","","","","images/map07_bwr_scaleDef_orientMir_270.png","sad","1","07","07","bwr","orientMir","scaleDef","270","",""
"","","","","","html-slider-response","43","205767","0.0-39.0","eez5wr4xz9","67","NaN","<div style=""width:500px;"">
                            <p style=""font-size:50px; font-weight:bold;""
                            >sad</p>
                            <div style=""width:240px; margin: auto;"">
                                <img src=""images/map23_OrRd_scaleDef_orientMir_270.png"" style= ""width:200px""alt=""img"">
                            </div>
                        </div>","-200","","0","","","","images/map23_OrRd_scaleDef_orientMir_270.png","sad","1","23","23","OrRd","orientMir","scaleDef","270","",""
"","","","","","html-slider-response","44","207984","0.0-40.0","eez5wr4xz9","67","NaN","<div style=""width:500px;"">
                            <p style=""font-size:50px; font-weight:bold;""
                            >sad</p>
                            <div style=""width:240px; margin: auto;"">
                                <img src=""images/map27_YlGnBu_scaleDef_orientDef_270.png"" style= ""width:200px""alt=""img"">
                            </div>
                        </div>","132","","0","","","","images/map27_YlGnBu_scaleDef_orientDef_270.png","sad","1","27","27","YlGnBu","orientDef","scaleDef","270","",""
"","","","","","html-slider-response","45","210101","0.0-41.0","eez5wr4xz9","67","NaN","<div style=""width:500px;"">
                            <p style=""font-size:50px; font-weight:bold;""
                            >sad</p>
                            <div style=""width:240px; margin: auto;"">
                                <img src=""images/map07_coolwarm_scaleRev_orientMir_180.png"" style= ""width:200px""alt=""img"">
                            </div>
                        </div>","-27","","0","","","","images/map07_coolwarm_scaleRev_orientMir_180.png","sad","1","07","07","coolwarm","orientMir","scaleRev","180","",""
"","","","","","html-slider-response","46","212684","0.0-42.0","eez5wr4xz9","67","NaN","<div style=""width:500px;"">
                            <p style=""font-size:50px; font-weight:bold;""
                            >sad</p>
                            <div style=""width:240px; margin: auto;"">
                                <img src=""images/map10_vanimo_scaleDef_orientMir_270.png"" style= ""width:200px""alt=""img"">
                            </div>
                        </div>","-18","","0","","","","images/map10_vanimo_scaleDef_orientMir_270.png","sad","1","10","10","vanimo","orientMir","scaleDef","270","",""
"","","","","","html-slider-response","47","215251","0.0-43.0","eez5wr4xz9","67","NaN","<div style=""width:500px;"">
                            <p style=""font-size:50px; font-weight:bold;""
                            >sad</p>
                            <div style=""width:240px; margin: auto;"">
                                <img src=""images/map10_berlin_scaleDef_orientDef_270.png"" style= ""width:200px""alt=""img"">
                            </div>
                        </div>","16","","0","","","","images/map10_berlin_scaleDef_orientDef_270.png","sad","1","10","10","berlin","orientDef","scaleDef","270","",""
"","","","","","html-slider-response","48","217501","0.0-44.0","eez5wr4xz9","67","NaN","<div style=""width:500px;"">
                            <p style=""font-size:50px; font-weight:bold;""
                            >sad</p>
                            <div style=""width:240px; margin: auto;"">
                                <img src=""images/map23_YlOrBr_scaleRev_orientMir_000.png"" style= ""width:200px""alt=""img"">
                            </div>
                        </div>","-46","","0","","","","images/map23_YlOrBr_scaleRev_orientMir_000.png","sad","1","23","23","YlOrBr","orientMir","scaleRev","000","",""
"","","","","","html-slider-response","49","219567","0.0-45.0","eez5wr4xz9","67","NaN","<div style=""width:500px;"">
                            <p style=""font-size:50px; font-weight:bold;""
                            >sad</p>
                            <div style=""width:240px; margin: auto;"">
                                <img src=""images/map23_Oranges_scaleRev_orientDef_000.png"" style= ""width:200px""alt=""img"">
                            </div>
                        </div>","-87","","0","","","","images/map23_Oranges_scaleRev_orientDef_000.png","sad","1","23","23","Oranges","orientDef","scaleRev","000","",""
"","","","","","html-slider-response","50","221467","0.0-46.0","eez5wr4xz9","67","NaN","<div style=""width:500px;"">
                            <p style=""font-size:50px; font-weight:bold;""
                            >sad</p>
                            <div style=""width:240px; margin: auto;"">
                                <img src=""images/map15_Greens_scaleRev_orientMir_180.png"" style= ""width:200px""alt=""img"">
                            </div>
                        </div>","31","","0","","","","images/map15_Greens_scaleRev_orientMir_180.png","sad","1","15","15","Greens","orientMir","scaleRev","180","",""
"","","","","","html-slider-response","51","223501","0.0-47.0","eez5wr4xz9","67","NaN","<div style=""width:500px;"">
                            <p style=""font-size:50px; font-weight:bold;""
                            >sad</p>
                            <div style=""width:240px; margin: auto;"">
                                <img src=""images/map13_inferno_scaleDef_orientDef_090.png"" style= ""width:200px""alt=""img"">
                            </div>
                        </div>","30","","0","","","","images/map13_inferno_scaleDef_orientDef_090.png","sad","1","13","13","inferno","orientDef","scaleDef","090","",""
"","","","","","html-slider-response","52","226083","0.0-48.0","eez5wr4xz9","67","NaN","<div style=""width:500px;"">
                            <p style=""font-size:50px; font-weight:bold;""
                            >sad</p>
                            <div style=""width:240px; margin: auto;"">
                                <img src=""images/map26_GnBu_scaleDef_orientMir_270.png"" style= ""width:200px""alt=""img"">
                            </div>
                        </div>","200","","0","","","","images/map26_GnBu_scaleDef_orientMir_270.png","sad","1","26","26","GnBu","orientMir","scaleDef","270","",""
"","","","","","html-slider-response","53","228434","0.0-49.0","eez5wr4xz9","67","NaN","<div style=""width:500px;"">
                            <p style=""font-size:50px; font-weight:bold;""
                            >sad</p>
                            <div style=""width:240px; margin: auto;"">
                                <img src=""images/map15_Purples_scaleDef_orientDef_090.png"" style= ""width:200px""alt=""img"">
                            </div>
                        </div>","166","","0","","","","images/map15_Purples_scaleDef_orientDef_090.png","sad","1","15","15","Purples","orientDef","scaleDef","090","",""
"","","","","","html-slider-response","54","230650","0.0-50.0","eez5wr4xz9","67","NaN","<div style=""width:500px;"">
                            <p style=""font-size:50px; font-weight:bold;""
                            >sad</p>
                            <div style=""width:240px; margin: auto;"">
                                <img src=""images/map12_viridis_scaleDef_orientMir_090.png"" style= ""width:200px""alt=""img"">
                            </div>
                        </div>","51","","0","","","","images/map12_viridis_scaleDef_orientMir_090.png","sad","1","12","12","viridis","orientMir","scaleDef","090","",""
"","","","","","html-slider-response","55","234250","0.0-51.0","eez5wr4xz9","67","NaN","<div style=""width:500px;"">
                            <p style=""font-size:50px; font-weight:bold;""
                            >sad</p>
                            <div style=""width:240px; margin: auto;"">
                                <img src=""images/map23_Reds_scaleDef_orientDef_090.png"" style= ""width:200px""alt=""img"">
                            </div>
                        </div>","-200","","0","","","","images/map23_Reds_scaleDef_orientDef_090.png","sad","1","23","23","Reds","orientDef","scaleDef","090","",""
"","","","","","html-slider-response","56","236867","0.0-52.0","eez5wr4xz9","67","NaN","<div style=""width:500px;"">
                            <p style=""font-size:50px; font-weight:bold;""
                            >sad</p>
                            <div style=""width:240px; margin: auto;"">
                                <img src=""images/map12_turbo_scaleDef_orientDef_270.png"" style= ""width:200px""alt=""img"">
                            </div>
                        </div>","-35","","0","","","","images/map12_turbo_scaleDef_orientDef_270.png","sad","1","12","12","turbo","orientDef","scaleDef","270","",""
"","","","","","html-slider-response","57","238800","0.0-53.0","eez5wr4xz9","67","NaN","<div style=""width:500px;"">
                            <p style=""font-size:50px; font-weight:bold;""
                            >sad</p>
                            <div style=""width:240px; margin: auto;"">
                                <img src=""images/map27_BuGn_scaleDef_orientMir_270.png"" style= ""width:200px""alt=""img"">
                            </div>
                        </div>","-46","","0","","","","images/map27_BuGn_scaleDef_orientMir_270.png","sad","1","27","27","BuGn","orientMir","scaleDef","270","",""
"","","","","","html-button-response","58","241373","0.0-54.0","eez5wr4xz9","67","2070","<p>You are doing great!<br></br> You are halway done with the current block. When you are ready to continue, click the 'Continue' button.</p>","0","","","","","","","","","","","","","","","",""
"","","","","","html-slider-response","59","243284","0.0-55.0","eez5wr4xz9","67","NaN","<div style=""width:500px;"">
                            <p style=""font-size:50px; font-weight:bold;""
                            >sad</p>
                            <div style=""width:240px; margin: auto;"">
                                <img src=""images/map15_Purples_scaleRev_orientDef_180.png"" style= ""width:200px""alt=""img"">
                            </div>
                        </div>","46","","0","","","","images/map15_Purples_scaleRev_orientDef_180.png","sad","1","15","15","Purples","orientDef","scaleRev","180","",""
"","","","","","html-slider-response","60","244917","0.0-56.0","eez5wr4xz9","67","NaN","<div style=""width:500px;"">
                            <p style=""font-size:50px; font-weight:bold;""
                            >sad</p>
                            <div style=""width:240px; margin: auto;"">
                                <img src=""images/map07_Spectral_scaleDef_orientDef_270.png"" style= ""width:200px""alt=""img"">
                            </div>
                        </div>","-32","","0","","","","images/map07_Spectral_scaleDef_orientDef_270.png","sad","1","07","07","Spectral","orientDef","scaleDef","270","",""
"","","","","","html-slider-response","61","246900","0.0-57.0","eez5wr4xz9","67","NaN","<div style=""width:500px;"">
                            <p style=""font-size:50px; font-weight:bold;""
                            >sad</p>
                            <div style=""width:240px; margin: auto;"">
                                <img src=""images/map12_plasma_scaleDef_orientMir_270.png"" style= ""width:200px""alt=""img"">
                            </div>
                        </div>","-62","","0","","","","images/map12_plasma_scaleDef_orientMir_270.png","sad","1","12","12","plasma","orientMir","scaleDef","270","",""
"","","","","","html-slider-response","62","248767","0.0-58.0","eez5wr4xz9","67","NaN","<div style=""width:500px;"">
                            <p style=""font-size:50px; font-weight:bold;""
                            >sad</p>
                            <div style=""width:240px; margin: auto;"">
                                <img src=""images/map27_PuBuGn_scaleRev_orientMir_180.png"" style= ""width:200px""alt=""img"">
                            </div>
                        </div>","63","","0","","","","images/map27_PuBuGn_scaleRev_orientMir_180.png","sad","1","27","27","PuBuGn","orientMir","scaleRev","180","",""
"","","","","","html-slider-response","63","250367","0.0-59.0","eez5wr4xz9","67","NaN","<div style=""width:500px;"">
                            <p style=""font-size:50px; font-weight:bold;""
                            >sad</p>
                            <div style=""width:240px; margin: auto;"">
                                <img src=""images/map26_OrRd_scaleRev_orientDef_000.png"" style= ""width:200px""alt=""img"">
                            </div>
                        </div>","-83","","0","","","","images/map26_OrRd_scaleRev_orientDef_000.png","sad","1","26","26","OrRd","orientDef","scaleRev","000","",""
"","","","","","html-slider-response","64","252250","0.0-60.0","eez5wr4xz9","67","NaN","<div style=""width:500px;"">
                            <p style=""font-size:50px; font-weight:bold;""
                            >sad</p>
                            <div style=""width:240px; margin: auto;"">
                                <img src=""images/map23_Reds_scaleRev_orientDef_180.png"" style= ""width:200px""alt=""img"">
                            </div>
                        </div>","-94","","0","","","","images/map23_Reds_scaleRev_orientDef_180.png","sad","1","23","23","Reds","orientDef","scaleRev","180","",""
"","","","","","html-slider-response","65","254367","0.0-61.0","eez5wr4xz9","67","NaN","<div style=""width:500px;"">
                            <p style=""font-size:50px; font-weight:bold;""
                            >sad</p>
                            <div style=""width:240px; margin: auto;"">
                                <img src=""images/map13_plasma_scaleRev_orientDef_000.png"" style= ""width:200px""alt=""img"">
                            </div>
                        </div>","-80","","0","","","","images/map13_plasma_scaleRev_orientDef_000.png","sad","1","13","13","plasma","orientDef","scaleRev","000","",""
"","","","","","html-slider-response","66","255883","0.0-62.0","eez5wr4xz9","67","NaN","<div style=""width:500px;"">
                            <p style=""font-size:50px; font-weight:bold;""
                            >sad</p>
                            <div style=""width:240px; margin: auto;"">
                                <img src=""images/map13_magma_scaleRev_orientMir_000.png"" style= ""width:200px""alt=""img"">
                            </div>
                        </div>","-95","","0","","","","images/map13_magma_scaleRev_orientMir_000.png","sad","1","13","13","magma","orientMir","scaleRev","000","",""
"","","","","","html-slider-response","67","258034","0.0-63.0","eez5wr4xz9","67","NaN","<div style=""width:500px;"">
                            <p style=""font-size:50px; font-weight:bold;""
                            >sad</p>
                            <div style=""width:240px; margin: auto;"">
                                <img src=""images/map07_RdYlGn_scaleDef_orientDef_090.png"" style= ""width:200px""alt=""img"">
                            </div>
                        </div>","-101","","0","","","","images/map07_RdYlGn_scaleDef_orientDef_090.png","sad","1","07","07","RdYlGn","orientDef","scaleDef","090","",""
"","","","","","html-slider-response","68","259650","0.0-64.0","eez5wr4xz9","67","NaN","<div style=""width:500px;"">
                            <p style=""font-size:50px; font-weight:bold;""
                            >sad</p>
                            <div style=""width:240px; margin: auto;"">
                                <img src=""images/map07_RdYlGn_scaleRev_orientDef_180.png"" style= ""width:200px""alt=""img"">
                            </div>
                        </div>","-110","","0","","","","images/map07_RdYlGn_scaleRev_orientDef_180.png","sad","1","07","07","RdYlGn","orientDef","scaleRev","180","",""
"","","","","","html-slider-response","69","261500","0.0-65.0","eez5wr4xz9","67","NaN","<div style=""width:500px;"">
                            <p style=""font-size:50px; font-weight:bold;""
                            >sad</p>
                            <div style=""width:240px; margin: auto;"">
                                <img src=""images/map26_BuPu_scaleDef_orientMir_090.png"" style= ""width:200px""alt=""img"">
                            </div>
                        </div>","111","","0","","","","images/map26_BuPu_scaleDef_orientMir_090.png","sad","1","26","26","BuPu","orientMir","scaleDef","090","",""
"","","","","","html-slider-response","70","263100","0.0-66.0","eez5wr4xz9","67","NaN","<div style=""width:500px;"">
                            <p style=""font-size:50px; font-weight:bold;""
                            >sad</p>
                            <div style=""width:240px; margin: auto;"">
                                <img src=""images/map26_PuRd_scaleDef_orientDef_090.png"" style= ""width:200px""alt=""img"">
                            </div>
                        </div>","-90","","0","","","","images/map26_PuRd_scaleDef_orientDef_090.png","sad","1","26","26","PuRd","orientDef","scaleDef","090","",""
"","","","","","html-slider-response","71","264916","0.0-67.0","eez5wr4xz9","67","NaN","<div style=""width:500px;"">
                            <p style=""font-size:50px; font-weight:bold;""
                            >sad</p>
                            <div style=""width:240px; margin: auto;"">
                                <img src=""images/map27_PuBuGn_scaleDef_orientMir_090.png"" style= ""width:200px""alt=""img"">
                            </div>
                        </div>","114","","0","","","","images/map27_PuBuGn_scaleDef_orientMir_090.png","sad","1","27","27","PuBuGn","orientMir","scaleDef","090","",""
"","","","","","html-slider-response","72","267250","0.0-68.0","eez5wr4xz9","67","NaN","<div style=""width:500px;"">
                            <p style=""font-size:50px; font-weight:bold;""
                            >sad</p>
                            <div style=""width:240px; margin: auto;"">
                                <img src=""images/map07_Spectral_scaleRev_orientMir_000.png"" style= ""width:200px""alt=""img"">
                            </div>
                        </div>","-86","","0","","","","images/map07_Spectral_scaleRev_orientMir_000.png","sad","1","07","07","Spectral","orientMir","scaleRev","000","",""
"","","","","","html-slider-response","73","268733","0.0-69.0","eez5wr4xz9","67","NaN","<div style=""width:500px;"">
                            <p style=""font-size:50px; font-weight:bold;""
                            >sad</p>
                            <div style=""width:240px; margin: auto;"">
                                <img src=""images/map23_YlOrRd_scaleDef_orientMir_090.png"" style= ""width:200px""alt=""img"">
                            </div>
                        </div>","-90","","0","","","","images/map23_YlOrRd_scaleDef_orientMir_090.png","sad","1","23","23","YlOrRd","orientMir","scaleDef","090","",""
"","","","","","html-slider-response","74","270300","0.0-70.0","eez5wr4xz9","67","NaN","<div style=""width:500px;"">
                            <p style=""font-size:50px; font-weight:bold;""
                            >sad</p>
                            <div style=""width:240px; margin: auto;"">
                                <img src=""images/map05_RdGy_scaleDef_orientDef_270.png"" style= ""width:200px""alt=""img"">
                            </div>
                        </div>","-124","","0","","","","images/map05_RdGy_scaleDef_orientDef_270.png","sad","1","05","05","RdGy","orientDef","scaleDef","270","",""
"","","","","","html-slider-response","75","271967","0.0-71.0","eez5wr4xz9","67","NaN","<div style=""width:500px;"">
                            <p style=""font-size:50px; font-weight:bold;""
                            >sad</p>
                            <div style=""width:240px; margin: auto;"">
                                <img src=""images/map27_YlGnBu_scaleRev_orientMir_000.png"" style= ""width:200px""alt=""img"">
                            </div>
                        </div>","112","","0","","","","images/map27_YlGnBu_scaleRev_orientMir_000.png","sad","1","27","27","YlGnBu","orientMir","scaleRev","000","",""
"","","","","","html-slider-response","76","273650","0.0-72.0","eez5wr4xz9","67","NaN","<div style=""width:500px;"">
                            <p style=""font-size:50px; font-weight:bold;""
                            >sad</p>
                            <div style=""width:240px; margin: auto;"">
                                <img src=""images/map27_PuBu_scaleDef_orientDef_090.png"" style= ""width:200px""alt=""img"">
                            </div>
                        </div>","200","","0","","","","images/map27_PuBu_scaleDef_orientDef_090.png","sad","1","27","27","PuBu","orientDef","scaleDef","090","",""
"","","","","","html-slider-response","77","275166","0.0-73.0","eez5wr4xz9","67","NaN","<div style=""width:500px;"">
                            <p style=""font-size:50px; font-weight:bold;""
                            >sad</p>
                            <div style=""width:240px; margin: auto;"">
                                <img src=""images/map15_Blues_scaleRev_orientMir_000.png"" style= ""width:200px""alt=""img"">
                            </div>
                        </div>","200","","0","","","","images/map15_Blues_scaleRev_orientMir_000.png","sad","1","15","15","Blues","orientMir","scaleRev","000","",""
"","","","","","html-slider-response","78","277117","0.0-74.0","eez5wr4xz9","67","NaN","<div style=""width:500px;"">
                            <p style=""font-size:50px; font-weight:bold;""
                            >sad</p>
                            <div style=""width:240px; margin: auto;"">
                                <img src=""images/map05_RdBu_scaleRev_orientMir_180.png"" style= ""width:200px""alt=""img"">
                            </div>
                        </div>","22","","0","","","","images/map05_RdBu_scaleRev_orientMir_180.png","sad","1","05","05","RdBu","orientMir","scaleRev","180","",""
"","","","","","html-slider-response","79","278633","0.0-75.0","eez5wr4xz9","67","NaN","<div style=""width:500px;"">
                            <p style=""font-size:50px; font-weight:bold;""
                            >sad</p>
                            <div style=""width:240px; margin: auto;"">
                                <img src=""images/map15_Greens_scaleDef_orientMir_090.png"" style= ""width:200px""alt=""img"">
                            </div>
                        </div>","-52","","0","","","","images/map15_Greens_scaleDef_orientMir_090.png","sad","1","15","15","Greens","orientMir","scaleDef","090","",""
"","","","","","html-slider-response","80","280883","0.0-76.0","eez5wr4xz9","67","NaN","<div style=""width:500px;"">
                            <p style=""font-size:50px; font-weight:bold;""
                            >sad</p>
                            <div style=""width:240px; margin: auto;"">
                                <img src=""images/map13_cividis_scaleDef_orientMir_090.png"" style= ""width:200px""alt=""img"">
                            </div>
                        </div>","140","","0","","","","images/map13_cividis_scaleDef_orientMir_090.png","sad","1","13","13","cividis","orientMir","scaleDef","090","",""
"","","","","","html-slider-response","81","282433","0.0-77.0","eez5wr4xz9","67","NaN","<div style=""width:500px;"">
                            <p style=""font-size:50px; font-weight:bold;""
                            >sad</p>
                            <div style=""width:240px; margin: auto;"">
                                <img src=""images/map02_PRGn_scaleDef_orientMir_090.png"" style= ""width:200px""alt=""img"">
                            </div>
                        </div>","-42","","0","","","","images/map02_PRGn_scaleDef_orientMir_090.png","sad","1","02","02","PRGn","orientMir","scaleDef","090","",""
"","","","","","html-slider-response","82","284583","0.0-78.0","eez5wr4xz9","67","NaN","<div style=""width:500px;"">
                            <p style=""font-size:50px; font-weight:bold;""
                            >sad</p>
                            <div style=""width:240px; margin: auto;"">
                                <img src=""images/map10_managua_scaleRev_orientMir_180.png"" style= ""width:200px""alt=""img"">
                            </div>
                        </div>","137","","0","","","","images/map10_managua_scaleRev_orientMir_180.png","sad","1","10","10","managua","orientMir","scaleRev","180","",""
"","","","","","html-slider-response","83","286483","0.0-79.0","eez5wr4xz9","67","NaN","<div style=""width:500px;"">
                            <p style=""font-size:50px; font-weight:bold;""
                            >sad</p>
                            <div style=""width:240px; margin: auto;"">
                                <img src=""images/map10_berlin_scaleRev_orientMir_000.png"" style= ""width:200px""alt=""img"">
                            </div>
                        </div>","139","","0","","","","images/map10_berlin_scaleRev_orientMir_000.png","sad","1","10","10","berlin","orientMir","scaleRev","000","",""
"","","","","","html-slider-response","84","288150","0.0-80.0","eez5wr4xz9","67","NaN","<div style=""width:500px;"">
                            <p style=""font-size:50px; font-weight:bold;""
                            >sad</p>
                            <div style=""width:240px; margin: auto;"">
                                <img src=""images/map05_PuOr_scaleDef_orientDef_090.png"" style= ""width:200px""alt=""img"">
                            </div>
                        </div>","-68","","0","","","","images/map05_PuOr_scaleDef_orientDef_090.png","sad","1","05","05","PuOr","orientDef","scaleDef","090","",""
"","","","","","html-slider-response","85","289566","0.0-81.0","eez5wr4xz9","67","NaN","<div style=""width:500px;"">
                            <p style=""font-size:50px; font-weight:bold;""
                            >sad</p>
                            <div style=""width:240px; margin: auto;"">
                                <img src=""images/map13_magma_scaleDef_orientDef_270.png"" style= ""width:200px""alt=""img"">
                            </div>
                        </div>","-82","","0","","","","images/map13_magma_scaleDef_orientDef_270.png","sad","1","13","13","magma","orientDef","scaleDef","270","",""
"","","","","","html-slider-response","86","290833","0.0-82.0","eez5wr4xz9","67","NaN","<div style=""width:500px;"">
                            <p style=""font-size:50px; font-weight:bold;""
                            >sad</p>
                            <div style=""width:240px; margin: auto;"">
                                <img src=""images/map13_inferno_scaleRev_orientDef_180.png"" style= ""width:200px""alt=""img"">
                            </div>
                        </div>","-77","","0","","","","images/map13_inferno_scaleRev_orientDef_180.png","sad","1","13","13","inferno","orientDef","scaleRev","180","",""
"","","","","","html-slider-response","87","292916","0.0-83.0","eez5wr4xz9","67","NaN","<div style=""width:500px;"">
                            <p style=""font-size:50px; font-weight:bold;""
                            >sad</p>
                            <div style=""width:240px; margin: auto;"">
                                <img src=""images/map13_Greys_scaleDef_orientMir_270.png"" style= ""width:200px""alt=""img"">
                            </div>
                        </div>","200","","0","","","","images/map13_Greys_scaleDef_orientMir_270.png","sad","1","13","13","Greys","orientMir","scaleDef","270","",""
"","","","","","html-slider-response","88","295733","0.0-84.0","eez5wr4xz9","67","NaN","<div style=""width:500px;"">
                            <p style=""font-size:50px; font-weight:bold;""
                            >sad</p>
                            <div style=""width:240px; margin: auto;"">
                                <img src=""images/map05_RdGy_scaleRev_orientMir_000.png"" style= ""width:200px""alt=""img"">
                            </div>
                        </div>","-45","","0","","","","images/map05_RdGy_scaleRev_orientMir_000.png","sad","1","05","05","RdGy","orientMir","scaleRev","000","",""
"","","","","","html-slider-response","89","297533","0.0-85.0","eez5wr4xz9","67","NaN","<div style=""width:500px;"">
                            <p style=""font-size:50px; font-weight:bold;""
                            >sad</p>
                            <div style=""width:240px; margin: auto;"">
                                <img src=""images/map12_vanimo_scaleRev_orientDef_000.png"" style= ""width:200px""alt=""img"">
                            </div>
                        </div>","-56","","0","","","","images/map12_vanimo_scaleRev_orientDef_000.png","sad","1","12","12","vanimo","orientDef","scaleRev","000","",""
"","","","","","html-slider-response","90","299483","0.0-86.0","eez5wr4xz9","67","NaN","<div style=""width:500px;"">
                            <p style=""font-size:50px; font-weight:bold;""
                            >sad</p>
                            <div style=""width:240px; margin: auto;"">
                                <img src=""images/map10_seismic_scaleDef_orientDef_090.png"" style= ""width:200px""alt=""img"">
                            </div>
                        </div>","-89","","0","","","","images/map10_seismic_scaleDef_orientDef_090.png","sad","1","10","10","seismic","orientDef","scaleDef","090","",""
"","","","","","html-slider-response","91","301600","0.0-87.0","eez5wr4xz9","67","NaN","<div style=""width:500px;"">
                            <p style=""font-size:50px; font-weight:bold;""
                            >sad</p>
                            <div style=""width:240px; margin: auto;"">
                                <img src=""images/map12_gist_earth_scaleRev_orientDef_180.png"" style= ""width:200px""alt=""img"">
                            </div>
                        </div>","-118","","0","","","","images/map12_gist_earth_scaleRev_orientDef_180.png","sad","1","12","12","gist","scaleRev","earth","orientDef","",""
"","","","","","html-slider-response","92","303750","0.0-88.0","eez5wr4xz9","67","NaN","<div style=""width:500px;"">
                            <p style=""font-size:50px; font-weight:bold;""
                            >sad</p>
                            <div style=""width:240px; margin: auto;"">
                                <img src=""images/map02_PiYG_scaleRev_orientMir_000.png"" style= ""width:200px""alt=""img"">
                            </div>
                        </div>","-88","","0","","","","images/map02_PiYG_scaleRev_orientMir_000.png","sad","1","02","02","PiYG","orientMir","scaleRev","000","",""
"","","","","","html-slider-response","93","305449","0.0-89.0","eez5wr4xz9","67","NaN","<div style=""width:500px;"">
                            <p style=""font-size:50px; font-weight:bold;""
                            >sad</p>
                            <div style=""width:240px; margin: auto;"">
                                <img src=""images/map02_PiYG_scaleDef_orientDef_270.png"" style= ""width:200px""alt=""img"">
                            </div>
                        </div>","-83","","0","","","","images/map02_PiYG_scaleDef_orientDef_270.png","sad","1","02","02","PiYG","orientDef","scaleDef","270","",""
"","","","","","html-slider-response","94","307766","0.0-90.0","eez5wr4xz9","67","NaN","<div style=""width:500px;"">
                            <p style=""font-size:50px; font-weight:bold;""
                            >sad</p>
                            <div style=""width:240px; margin: auto;"">
                                <img src=""images/map07_coolwarm_scaleDef_orientMir_090.png"" style= ""width:200px""alt=""img"">
                            </div>
                        </div>","-70","","0","","","","images/map07_coolwarm_scaleDef_orientMir_090.png","sad","1","07","07","coolwarm","orientMir","scaleDef","090","",""
"","","","","","html-slider-response","95","309183","0.0-91.0","eez5wr4xz9","67","NaN","<div style=""width:500px;"">
                            <p style=""font-size:50px; font-weight:bold;""
                            >sad</p>
                            <div style=""width:240px; margin: auto;"">
                                <img src=""images/map12_turbo_scaleRev_orientMir_000.png"" style= ""width:200px""alt=""img"">
                            </div>
                        </div>","-99","","0","","","","images/map12_turbo_scaleRev_orientMir_000.png","sad","1","12","12","turbo","orientMir","scaleRev","000","",""
"","","","","","html-slider-response","96","310817","0.0-92.0","eez5wr4xz9","67","NaN","<div style=""width:500px;"">
                            <p style=""font-size:50px; font-weight:bold;""
                            >sad</p>
                            <div style=""width:240px; margin: auto;"">
                                <img src=""images/map10_managua_scaleDef_orientMir_090.png"" style= ""width:200px""alt=""img"">
                            </div>
                        </div>","73","","0","","","","images/map10_managua_scaleDef_orientMir_090.png","sad","1","10","10","managua","orientMir","scaleDef","090","",""
"","","","","","html-slider-response","97","312316","0.0-93.0","eez5wr4xz9","67","NaN","<div style=""width:500px;"">
                            <p style=""font-size:50px; font-weight:bold;""
                            >sad</p>
                            <div style=""width:240px; margin: auto;"">
                                <img src=""images/map23_YlOrRd_scaleRev_orientMir_180.png"" style= ""width:200px""alt=""img"">
                            </div>
                        </div>","-80","","0","","","","images/map23_YlOrRd_scaleRev_orientMir_180.png","sad","1","23","23","YlOrRd","orientMir","scaleRev","180","",""
"","","","","","html-slider-response","98","313949","0.0-94.0","eez5wr4xz9","67","NaN","<div style=""width:500px;"">
                            <p style=""font-size:50px; font-weight:bold;""
                            >sad</p>
                            <div style=""width:240px; margin: auto;"">
                                <img src=""images/map10_bwr_scaleRev_orientDef_000.png"" style= ""width:200px""alt=""img"">
                            </div>
                        </div>","-97","","0","","","","images/map10_bwr_scaleRev_orientDef_000.png","sad","1","10","10","bwr","orientDef","scaleRev","000","",""
"","","","","","html-button-response","99","316322","0.0-95.0","eez5wr4xz9","67","1873","<p>Great Job! You've finished block 1.<br></br> You have 4 block(s) left to go.<br></br></p>","0","","","","","","","","","","","","","","","",""
"","","","","","html-button-response","100","317805","0.0-96.0","eez5wr4xz9","67","1481","<p>In this block of trials, you will be asked to rate how much you associate each map with:</p > <p style = 'font-size:150%; font-weight: bold'>fearful</p><br></br>","0","","","","","","","","","","","","","","","",""
"","","","","","html-slider-response","101","319849","0.0-97.0","eez5wr4xz9","67","NaN","<div style=""width:500px;"">
                            <p style=""font-size:50px; font-weight:bold;""
                            >fearful</p>
                            <div style=""width:240px; margin: auto;"">
                                <img src=""images/map10_seismic_scaleDef_orientDef_090.png"" style= ""width:200px""alt=""img"">
                            </div>
                        </div>","50","","0","","","","images/map10_seismic_scaleDef_orientDef_090.png","fearful","1","10","10","seismic","orientDef","scaleDef","090","",""
"","","","","","html-slider-response","102","321833","0.0-98.0","eez5wr4xz9","67","NaN","<div style=""width:500px;"">
                            <p style=""font-size:50px; font-weight:bold;""
                            >fearful</p>
                            <div style=""width:240px; margin: auto;"">
                                <img src=""images/map13_cividis_scaleRev_orientMir_180.png"" style= ""width:200px""alt=""img"">
                            </div>
                        </div>","74","","0","","","","images/map13_cividis_scaleRev_orientMir_180.png","fearful","1","13","13","cividis","orientMir","scaleRev","180","",""
"","","","","","html-slider-response","103","323533","0.0-99.0","eez5wr4xz9","67","NaN","<div style=""width:500px;"">
                            <p style=""font-size:50px; font-weight:bold;""
                            >fearful</p>
                            <div style=""width:240px; margin: auto;"">
                                <img src=""images/map07_coolwarm_scaleDef_orientMir_090.png"" style= ""width:200px""alt=""img"">
                            </div>
                        </div>","-88","","0","","","","images/map07_coolwarm_scaleDef_orientMir_090.png","fearful","1","07","07","coolwarm","orientMir","scaleDef","090","",""
"","","","","","html-slider-response","104","325599","0.0-100.0","eez5wr4xz9","67","NaN","<div style=""width:500px;"">
                            <p style=""font-size:50px; font-weight:bold;""
                            >fearful</p>
                            <div style=""width:240px; margin: auto;"">
                                <img src=""images/map05_RdGy_scaleRev_orientMir_000.png"" style= ""width:200px""alt=""img"">
                            </div>
                        </div>","66","","0","","","","images/map05_RdGy_scaleRev_orientMir_000.png","fearful","1","05","05","RdGy","orientMir","scaleRev","000","",""
"","","","","","html-slider-response","105","327250","0.0-101.0","eez5wr4xz9","67","NaN","<div style=""width:500px;"">
                            <p style=""font-size:50px; font-weight:bold;""
                            >fearful</p>
                            <div style=""width:240px; margin: auto;"">
                                <img src=""images/map12_viridis_scaleDef_orientMir_090.png"" style= ""width:200px""alt=""img"">
                            </div>
                        </div>","-88","","0","","","","images/map12_viridis_scaleDef_orientMir_090.png","fearful","1","12","12","viridis","orientMir","scaleDef","090","",""
"","","","","","html-slider-response","106","328883","0.0-102.0","eez5wr4xz9","67","NaN","<div style=""width:500px;"">
                            <p style=""font-size:50px; font-weight:bold;""
                            >fearful</p>
                            <div style=""width:240px; margin: auto;"">
                                <img src=""images/map12_turbo_scaleDef_orientDef_270.png"" style= ""width:200px""alt=""img"">
                            </div>
                        </div>","-91","","0","","","","images/map12_turbo_scaleDef_orientDef_270.png","fearful","1","12","12","turbo","orientDef","scaleDef","270","",""
"","","","","","html-slider-response","107","330816","0.0-103.0","eez5wr4xz9","67","NaN","<div style=""width:500px;"">
                            <p style=""font-size:50px; font-weight:bold;""
                            >fearful</p>
                            <div style=""width:240px; margin: auto;"">
                                <img src=""images/map26_RdPu_scaleDef_orientDef_270.png"" style= ""width:200px""alt=""img"">
                            </div>
                        </div>","-66","","0","","","","images/map26_RdPu_scaleDef_orientDef_270.png","fearful","1","26","26","RdPu","orientDef","scaleDef","270","",""
"","","","","","html-slider-response","108","332566","0.0-104.0","eez5wr4xz9","67","NaN","<div style=""width:500px;"">
                            <p style=""font-size:50px; font-weight:bold;""
                            >fearful</p>
                            <div style=""width:240px; margin: auto;"">
                                <img src=""images/map07_RdYlGn_scaleRev_orientDef_180.png"" style= ""width:200px""alt=""img"">
                            </div>
                        </div>","-86","","0","","","","images/map07_RdYlGn_scaleRev_orientDef_180.png","fearful","1","07","07","RdYlGn","orientDef","scaleRev","180","",""
"","","","","","html-slider-response","109","334316","0.0-105.0","eez5wr4xz9","67","NaN","<div style=""width:500px;"">
                            <p style=""font-size:50px; font-weight:bold;""
                            >fearful</p>
                            <div style=""width:240px; margin: auto;"">
                                <img src=""images/map23_Reds_scaleRev_orientDef_180.png"" style= ""width:200px""alt=""img"">
                            </div>
                        </div>","-81","","0","","","","images/map23_Reds_scaleRev_orientDef_180.png","fearful","1","23","23","Reds","orientDef","scaleRev","180","",""
"","","","","","html-slider-response","110","336116","0.0-106.0","eez5wr4xz9","67","NaN","<div style=""width:500px;"">
                            <p style=""font-size:50px; font-weight:bold;""
                            >fearful</p>
                            <div style=""width:240px; margin: auto;"">
                                <img src=""images/map12_turbo_scaleRev_orientMir_000.png"" style= ""width:200px""alt=""img"">
                            </div>
                        </div>","-84","","0","","","","images/map12_turbo_scaleRev_orientMir_000.png","fearful","1","12","12","turbo","orientMir","scaleRev","000","",""
"","","","","","html-slider-response","111","338066","0.0-107.0","eez5wr4xz9","67","NaN","<div style=""width:500px;"">
                            <p style=""font-size:50px; font-weight:bold;""
                            >fearful</p>
                            <div style=""width:240px; margin: auto;"">
                                <img src=""images/map05_BrBG_scaleRev_orientDef_000.png"" style= ""width:200px""alt=""img"">
                            </div>
                        </div>","46","","0","","","","images/map05_BrBG_scaleRev_orientDef_000.png","fearful","1","05","05","BrBG","orientDef","scaleRev","000","",""
"","","","","","html-slider-response","112","340383","0.0-108.0","eez5wr4xz9","67","NaN","<div style=""width:500px;"">
                            <p style=""font-size:50px; font-weight:bold;""
                            >fearful</p>
                            <div style=""width:240px; margin: auto;"">
                                <img src=""images/map12_gist_earth_scaleDef_orientDef_090.png"" style= ""width:200px""alt=""img"">
                            </div>
                        </div>","-62","","0","","","","images/map12_gist_earth_scaleDef_orientDef_090.png","fearful","1","12","12","gist","scaleDef","earth","orientDef","",""
"","","","","","html-slider-response","113","342050","0.0-109.0","eez5wr4xz9","67","NaN","<div style=""width:500px;"">
                            <p style=""font-size:50px; font-weight:bold;""
                            >fearful</p>
                            <div style=""width:240px; margin: auto;"">
                                <img src=""images/map26_RdPu_scaleRev_orientMir_000.png"" style= ""width:200px""alt=""img"">
                            </div>
                        </div>","-71","","0","","","","images/map26_RdPu_scaleRev_orientMir_000.png","fearful","1","26","26","RdPu","orientMir","scaleRev","000","",""
"","","","","","html-slider-response","114","344099","0.0-110.0","eez5wr4xz9","67","NaN","<div style=""width:500px;"">
                            <p style=""font-size:50px; font-weight:bold;""
                            >fearful</p>
                            <div style=""width:240px; margin: auto;"">
                                <img src=""images/map15_Purples_scaleDef_orientDef_090.png"" style= ""width:200px""alt=""img"">
                            </div>
                        </div>","64","","0","","","","images/map15_Purples_scaleDef_orientDef_090.png","fearful","1","15","15","Purples","orientDef","scaleDef","090","",""
"","","","","","html-slider-response","115","345699","0.0-111.0","eez5wr4xz9","67","NaN","<div style=""width:500px;"">
                            <p style=""font-size:50px; font-weight:bold;""
                            >fearful</p>
                            <div style=""width:240px; margin: auto;"">
                                <img src=""images/map13_cividis_scaleDef_orientMir_090.png"" style= ""width:200px""alt=""img"">
                            </div>
                        </div>","59","","0","","","","images/map13_cividis_scaleDef_orientMir_090.png","fearful","1","13","13","cividis","orientMir","scaleDef","090","",""
"","","","","","html-slider-response","116","347333","0.0-112.0","eez5wr4xz9","67","NaN","<div style=""width:500px;"">
                            <p style=""font-size:50px; font-weight:bold;""
                            >fearful</p>
                            <div style=""width:240px; margin: auto;"">
                                <img src=""images/map12_plasma_scaleDef_orientMir_270.png"" style= ""width:200px""alt=""img"">
                            </div>
                        </div>","-62","","0","","","","images/map12_plasma_scaleDef_orientMir_270.png","fearful","1","12","12","plasma","orientMir","scaleDef","270","",""
"","","","","","html-slider-response","117","348732","0.0-113.0","eez5wr4xz9","67","NaN","<div style=""width:500px;"">
                            <p style=""font-size:50px; font-weight:bold;""
                            >fearful</p>
                            <div style=""width:240px; margin: auto;"">
                                <img src=""images/map23_YlOrBr_scaleRev_orientMir_000.png"" style= ""width:200px""alt=""img"">
                            </div>
                        </div>","-55","","0","","","","images/map23_YlOrBr_scaleRev_orientMir_000.png","fearful","1","23","23","YlOrBr","orientMir","scaleRev","000","",""
"","","","","","html-slider-response","118","352949","0.0-114.0","eez5wr4xz9","67","NaN","<div style=""width:500px;"">
                            <p style=""font-size:50px; font-weight:bold;""
                            >fearful</p>
                            <div style=""width:240px; margin: auto;"">
                                <img src=""images/map07_RdYlGn_scaleDef_orientDef_090.png"" style= ""width:200px""alt=""img"">
                            </div>
                        </div>","51","","0","","","","images/map07_RdYlGn_scaleDef_orientDef_090.png","fearful","1","07","07","RdYlGn","orientDef","scaleDef","090","",""
"","","","","","html-slider-response","119","355932","0.0-115.0","eez5wr4xz9","67","NaN","<div style=""width:500px;"">
                            <p style=""font-size:50px; font-weight:bold;""
                            >fearful</p>
                            <div style=""width:240px; margin: auto;"">
                                <img src=""images/map26_OrRd_scaleRev_orientDef_000.png"" style= ""width:200px""alt=""img"">
                            </div>
                        </div>","110","","0","","","","images/map26_OrRd_scaleRev_orientDef_000.png","fearful","1","26","26","OrRd","orientDef","scaleRev","000","",""
"","","","","","html-slider-response","120","357799","0.0-116.0","eez5wr4xz9","67","NaN","<div style=""width:500px;"">
                            <p style=""font-size:50px; font-weight:bold;""
                            >fearful</p>
                            <div style=""width:240px; margin: auto;"">
                                <img src=""images/map10_managua_scaleRev_orientMir_180.png"" style= ""width:200px""alt=""img"">
                            </div>
                        </div>","87","","0","","","","images/map10_managua_scaleRev_orientMir_180.png","fearful","1","10","10","managua","orientMir","scaleRev","180","",""
"","","","","","html-slider-response","121","359415","0.0-117.0","eez5wr4xz9","67","NaN","<div style=""width:500px;"">
                            <p style=""font-size:50px; font-weight:bold;""
                            >fearful</p>
                            <div style=""width:240px; margin: auto;"">
                                <img src=""images/map02_YlGn_scaleDef_orientDef_090.png"" style= ""width:200px""alt=""img"">
                            </div>
                        </div>","-89","","0","","","","images/map02_YlGn_scaleDef_orientDef_090.png","fearful","1","02","02","YlGn","orientDef","scaleDef","090","",""
"","","","","","html-slider-response","122","362399","0.0-118.0","eez5wr4xz9","67","NaN","<div style=""width:500px;"">
                            <p style=""font-size:50px; font-weight:bold;""
                            >fearful</p>
                            <div style=""width:240px; margin: auto;"">
                                <img src=""images/map15_Greys_scaleRev_orientDef_000.png"" style= ""width:200px""alt=""img"">
                            </div>
                        </div>","-74","","0","","","","images/map15_Greys_scaleRev_orientDef_000.png","fearful","1","15","15","Greys","orientDef","scaleRev","000","",""
"","","","","","html-slider-response","123","364366","0.0-119.0","eez5wr4xz9","67","NaN","<div style=""width:500px;"">
                            <p style=""font-size:50px; font-weight:bold;""
                            >fearful</p>
                            <div style=""width:240px; margin: auto;"">
                                <img src=""images/map12_vanimo_scaleRev_orientDef_000.png"" style= ""width:200px""alt=""img"">
                            </div>
                        </div>","89","","0","","","","images/map12_vanimo_scaleRev_orientDef_000.png","fearful","1","12","12","vanimo","orientDef","scaleRev","000","",""
"","","","","","html-slider-response","124","366116","0.0-120.0","eez5wr4xz9","67","NaN","<div style=""width:500px;"">
                            <p style=""font-size:50px; font-weight:bold;""
                            >fearful</p>
                            <div style=""width:240px; margin: auto;"">
                                <img src=""images/map05_RdBu_scaleRev_orientMir_180.png"" style= ""width:200px""alt=""img"">
                            </div>
                        </div>","-73","","0","","","","images/map05_RdBu_scaleRev_orientMir_180.png","fearful","1","05","05","RdBu","orientMir","scaleRev","180","",""
"","","","","","html-slider-response","125","368598","0.0-121.0","eez5wr4xz9","67","NaN","<div style=""width:500px;"">
                            <p style=""font-size:50px; font-weight:bold;""
                            >fearful</p>
                            <div style=""width:240px; margin: auto;"">
                                <img src=""images/map13_magma_scaleRev_orientMir_000.png"" style= ""width:200px""alt=""img"">
                            </div>
                        </div>","27","","0","","","","images/map13_magma_scaleRev_orientMir_000.png","fearful","1","13","13","magma","orientMir","scaleRev","000","",""
"","","","","","html-slider-response","126","370416","0.0-122.0","eez5wr4xz9","67","NaN","<div style=""width:500px;"">
                            <p style=""font-size:50px; font-weight:bold;""
                            >fearful</p>
                            <div style=""width:240px; margin: auto;"">
                                <img src=""images/map02_PRGn_scaleRev_orientMir_180.png"" style= ""width:200px""alt=""img"">
                            </div>
                        </div>","145","","0","","","","images/map02_PRGn_scaleRev_orientMir_180.png","fearful","1","02","02","PRGn","orientMir","scaleRev","180","",""
"","","","","","html-slider-response","127","372216","0.0-123.0","eez5wr4xz9","67","NaN","<div style=""width:500px;"">
                            <p style=""font-size:50px; font-weight:bold;""
                            >fearful</p>
                            <div style=""width:240px; margin: auto;"">
                                <img src=""images/map15_Oranges_scaleDef_orientMir_270.png"" style= ""width:200px""alt=""img"">
                            </div>
                        </div>","-61","","0","","","","images/map15_Oranges_scaleDef_orientMir_270.png","fearful","1","15","15","Oranges","orientMir","scaleDef","270","",""
"","","","","","html-slider-response","128","375166","0.0-124.0","eez5wr4xz9","67","NaN","<div style=""width:500px;"">
                            <p style=""font-size:50px; font-weight:bold;""
                            >fearful</p>
                            <div style=""width:240px; margin: auto;"">
                                <img src=""images/map02_YlGn_scaleRev_orientDef_180.png"" style= ""width:200px""alt=""img"">
                            </div>
                        </div>","200","","0","","","","images/map02_YlGn_scaleRev_orientDef_180.png","fearful","1","02","02","YlGn","orientDef","scaleRev","180","",""
"","","","","","html-slider-response","129","377351","0.0-125.0","eez5wr4xz9","67","NaN","<div style=""width:500px;"">
                            <p style=""font-size:50px; font-weight:bold;""
                            >fearful</p>
                            <div style=""width:240px; margin: auto;"">
                                <img src=""images/map27_PuBuGn_scaleDef_orientMir_090.png"" style= ""width:200px""alt=""img"">
                            </div>
                        </div>","84","","0","","","","images/map27_PuBuGn_scaleDef_orientMir_090.png","fearful","1","27","27","PuBuGn","orientMir","scaleDef","090","",""
"","","","","","html-slider-response","130","378932","0.0-126.0","eez5wr4xz9","67","NaN","<div style=""width:500px;"">
                            <p style=""font-size:50px; font-weight:bold;""
                            >fearful</p>
                            <div style=""width:240px; margin: auto;"">
                                <img src=""images/map07_Spectral_scaleDef_orientDef_270.png"" style= ""width:200px""alt=""img"">
                            </div>
                        </div>","-80","","0","","","","images/map07_Spectral_scaleDef_orientDef_270.png","fearful","1","07","07","Spectral","orientDef","scaleDef","270","",""
"","","","","","html-slider-response","131","380466","0.0-127.0","eez5wr4xz9","67","NaN","<div style=""width:500px;"">
                            <p style=""font-size:50px; font-weight:bold;""
                            >fearful</p>
                            <div style=""width:240px; margin: auto;"">
                                <img src=""images/map02_PiYG_scaleRev_orientMir_000.png"" style= ""width:200px""alt=""img"">
                            </div>
                        </div>","83","","0","","","","images/map02_PiYG_scaleRev_orientMir_000.png","fearful","1","02","02","PiYG","orientMir","scaleRev","000","",""
"","","","","","html-slider-response","132","382932","0.0-128.0","eez5wr4xz9","67","NaN","<div style=""width:500px;"">
                            <p style=""font-size:50px; font-weight:bold;""
                            >fearful</p>
                            <div style=""width:240px; margin: auto;"">
                                <img src=""images/map13_magma_scaleDef_orientDef_270.png"" style= ""width:200px""alt=""img"">
                            </div>
                        </div>","65","","0","","","","images/map13_magma_scaleDef_orientDef_270.png","fearful","1","13","13","magma","orientDef","scaleDef","270","",""
"","","","","","html-slider-response","133","384566","0.0-129.0","eez5wr4xz9","67","NaN","<div style=""width:500px;"">
                            <p style=""font-size:50px; font-weight:bold;""
                            >fearful</p>
                            <div style=""width:240px; margin: auto;"">
                                <img src=""images/map27_GnBu_scaleRev_orientDef_000.png"" style= ""width:200px""alt=""img"">
                            </div>
                        </div>","-70","","0","","","","images/map27_GnBu_scaleRev_orientDef_000.png","fearful","1","27","27","GnBu","orientDef","scaleRev","000","",""
"","","","","","html-slider-response","134","386349","0.0-130.0","eez5wr4xz9","67","NaN","<div style=""width:500px;"">
                            <p style=""font-size:50px; font-weight:bold;""
                            >fearful</p>
                            <div style=""width:240px; margin: auto;"">
                                <img src=""images/map07_RdYlBu_scaleRev_orientDef_000.png"" style= ""width:200px""alt=""img"">
                            </div>
                        </div>","-82","","0","","","","images/map07_RdYlBu_scaleRev_orientDef_000.png","fearful","1","07","07","RdYlBu","orientDef","scaleRev","000","",""
"","","","","","html-slider-response","135","387832","0.0-131.0","eez5wr4xz9","67","NaN","<div style=""width:500px;"">
                            <p style=""font-size:50px; font-weight:bold;""
                            >fearful</p>
                            <div style=""width:240px; margin: auto;"">
                                <img src=""images/map23_OrRd_scaleDef_orientMir_270.png"" style= ""width:200px""alt=""img"">
                            </div>
                        </div>","-82","","0","","","","images/map23_OrRd_scaleDef_orientMir_270.png","fearful","1","23","23","OrRd","orientMir","scaleDef","270","",""
"","","","","","html-slider-response","136","390349","0.0-132.0","eez5wr4xz9","67","NaN","<div style=""width:500px;"">
                            <p style=""font-size:50px; font-weight:bold;""
                            >fearful</p>
                            <div style=""width:240px; margin: auto;"">
                                <img src=""images/map12_viridis_scaleRev_orientMir_180.png"" style= ""width:200px""alt=""img"">
                            </div>
                        </div>","200","","0","","","","images/map12_viridis_scaleRev_orientMir_180.png","fearful","1","12","12","viridis","orientMir","scaleRev","180","",""
"","","","","","html-slider-response","137","392282","0.0-133.0","eez5wr4xz9","67","NaN","<div style=""width:500px;"">
                            <p style=""font-size:50px; font-weight:bold;""
                            >fearful</p>
                            <div style=""width:240px; margin: auto;"">
                                <img src=""images/map13_inferno_scaleRev_orientDef_180.png"" style= ""width:200px""alt=""img"">
                            </div>
                        </div>","74","","0","","","","images/map13_inferno_scaleRev_orientDef_180.png","fearful","1","13","13","inferno","orientDef","scaleRev","180","",""
"","","","","","html-slider-response","138","393849","0.0-134.0","eez5wr4xz9","67","NaN","<div style=""width:500px;"">
                            <p style=""font-size:50px; font-weight:bold;""
                            >fearful</p>
                            <div style=""width:240px; margin: auto;"">
                                <img src=""images/map10_berlin_scaleDef_orientDef_270.png"" style= ""width:200px""alt=""img"">
                            </div>
                        </div>","78","","0","","","","images/map10_berlin_scaleDef_orientDef_270.png","fearful","1","10","10","berlin","orientDef","scaleDef","270","",""
"","","","","","html-slider-response","139","395399","0.0-135.0","eez5wr4xz9","67","NaN","<div style=""width:500px;"">
                            <p style=""font-size:50px; font-weight:bold;""
                            >fearful</p>
                            <div style=""width:240px; margin: auto;"">
                                <img src=""images/map26_PuRd_scaleRev_orientDef_180.png"" style= ""width:200px""alt=""img"">
                            </div>
                        </div>","-81","","0","","","","images/map26_PuRd_scaleRev_orientDef_180.png","fearful","1","26","26","PuRd","orientDef","scaleRev","180","",""
"","","","","","html-slider-response","140","397532","0.0-136.0","eez5wr4xz9","67","NaN","<div style=""width:500px;"">
                            <p style=""font-size:50px; font-weight:bold;""
                            >fearful</p>
                            <div style=""width:240px; margin: auto;"">
                                <img src=""images/map10_berlin_scaleRev_orientMir_000.png"" style= ""width:200px""alt=""img"">
                            </div>
                        </div>","66","","0","","","","images/map10_berlin_scaleRev_orientMir_000.png","fearful","1","10","10","berlin","orientMir","scaleRev","000","",""
"","","","","","html-button-response","141","399772","0.0-137.0","eez5wr4xz9","67","1737","<p>You are doing great!<br></br> You are halway done with the current block. When you are ready to continue, click the 'Continue' button.</p>","0","","","","","","","","","","","","","","","",""
"","","","","","html-slider-response","142","401083","0.0-138.0","eez5wr4xz9","67","NaN","<div style=""width:500px;"">
                            <p style=""font-size:50px; font-weight:bold;""
                            >fearful</p>
                            <div style=""width:240px; margin: auto;"">
                                <img src=""images/map07_Spectral_scaleRev_orientMir_000.png"" style= ""width:200px""alt=""img"">
                            </div>
                        </div>","-74","","0","","","","images/map07_Spectral_scaleRev_orientMir_000.png","fearful","1","07","07","Spectral","orientMir","scaleRev","000","",""
"","","","","","html-slider-response","143","402715","0.0-139.0","eez5wr4xz9","67","NaN","<div style=""width:500px;"">
                            <p style=""font-size:50px; font-weight:bold;""
                            >fearful</p>
                            <div style=""width:240px; margin: auto;"">
                                <img src=""images/map15_Blues_scaleDef_orientDef_270.png"" style= ""width:200px""alt=""img"">
                            </div>
                        </div>","-78","","0","","","","images/map15_Blues_scaleDef_orientDef_270.png","fearful","1","15","15","Blues","orientDef","scaleDef","270","",""
"","","","","","html-slider-response","144","404833","0.0-140.0","eez5wr4xz9","67","NaN","<div style=""width:500px;"">
                            <p style=""font-size:50px; font-weight:bold;""
                            >fearful</p>
                            <div style=""width:240px; margin: auto;"">
                                <img src=""images/map13_plasma_scaleRev_orientDef_000.png"" style= ""width:200px""alt=""img"">
                            </div>
                        </div>","63","","0","","","","images/map13_plasma_scaleRev_orientDef_000.png","fearful","1","13","13","plasma","orientDef","scaleRev","000","",""
"","","","","","html-slider-response","145","406582","0.0-141.0","eez5wr4xz9","67","NaN","<div style=""width:500px;"">
                            <p style=""font-size:50px; font-weight:bold;""
                            >fearful</p>
                            <div style=""width:240px; margin: auto;"">
                                <img src=""images/map27_PuBuGn_scaleRev_orientMir_180.png"" style= ""width:200px""alt=""img"">
                            </div>
                        </div>","51","","0","","","","images/map27_PuBuGn_scaleRev_orientMir_180.png","fearful","1","27","27","PuBuGn","orientMir","scaleRev","180","",""
"","","","","","html-slider-response","146","408282","0.0-142.0","eez5wr4xz9","67","NaN","<div style=""width:500px;"">
                            <p style=""font-size:50px; font-weight:bold;""
                            >fearful</p>
                            <div style=""width:240px; margin: auto;"">
                                <img src=""images/map12_gist_earth_scaleRev_orientDef_180.png"" style= ""width:200px""alt=""img"">
                            </div>
                        </div>","74","","0","","","","images/map12_gist_earth_scaleRev_orientDef_180.png","fearful","1","12","12","gist","scaleRev","earth","orientDef","",""
"","","","","","html-slider-response","147","411249","0.0-143.0","eez5wr4xz9","67","NaN","<div style=""width:500px;"">
                            <p style=""font-size:50px; font-weight:bold;""
                            >fearful</p>
                            <div style=""width:240px; margin: auto;"">
                                <img src=""images/map15_Greens_scaleDef_orientMir_090.png"" style= ""width:200px""alt=""img"">
                            </div>
                        </div>","75","","0","","","","images/map15_Greens_scaleDef_orientMir_090.png","fearful","1","15","15","Greens","orientMir","scaleDef","090","",""
"","","","","","html-slider-response","148","413081","0.0-144.0","eez5wr4xz9","67","NaN","<div style=""width:500px;"">
                            <p style=""font-size:50px; font-weight:bold;""
                            >fearful</p>
                            <div style=""width:240px; margin: auto;"">
                                <img src=""images/map05_RdYlBu_scaleDef_orientMir_270.png"" style= ""width:200px""alt=""img"">
                            </div>
                        </div>","-63","","0","","","","images/map05_RdYlBu_scaleDef_orientMir_270.png","fearful","1","05","05","RdYlBu","orientMir","scaleDef","270","",""
"","","","","","html-slider-response","149","415032","0.0-145.0","eez5wr4xz9","67","NaN","<div style=""width:500px;"">
                            <p style=""font-size:50px; font-weight:bold;""
                            >fearful</p>
                            <div style=""width:240px; margin: auto;"">
                                <img src=""images/map10_bwr_scaleRev_orientDef_000.png"" style= ""width:200px""alt=""img"">
                            </div>
                        </div>","80","","0","","","","images/map10_bwr_scaleRev_orientDef_000.png","fearful","1","10","10","bwr","orientDef","scaleRev","000","",""
"","","","","","html-slider-response","150","416965","0.0-146.0","eez5wr4xz9","67","NaN","<div style=""width:500px;"">
                            <p style=""font-size:50px; font-weight:bold;""
                            >fearful</p>
                            <div style=""width:240px; margin: auto;"">
                                <img src=""images/map26_BuPu_scaleRev_orientMir_180.png"" style= ""width:200px""alt=""img"">
                            </div>
                        </div>","70","","0","","","","images/map26_BuPu_scaleRev_orientMir_180.png","fearful","1","26","26","BuPu","orientMir","scaleRev","180","",""
"","","","","","html-slider-response","151","418565","0.0-147.0","eez5wr4xz9","67","NaN","<div style=""width:500px;"">
                            <p style=""font-size:50px; font-weight:bold;""
                            >fearful</p>
                            <div style=""width:240px; margin: auto;"">
                                <img src=""images/map27_PuBu_scaleDef_orientDef_090.png"" style= ""width:200px""alt=""img"">
                            </div>
                        </div>","94","","0","","","","images/map27_PuBu_scaleDef_orientDef_090.png","fearful","1","27","27","PuBu","orientDef","scaleDef","090","",""
"","","","","","html-slider-response","152","420548","0.0-148.0","eez5wr4xz9","67","NaN","<div style=""width:500px;"">
                            <p style=""font-size:50px; font-weight:bold;""
                            >fearful</p>
                            <div style=""width:240px; margin: auto;"">
                                <img src=""images/map15_Purples_scaleRev_orientDef_180.png"" style= ""width:200px""alt=""img"">
                            </div>
                        </div>","93","","0","","","","images/map15_Purples_scaleRev_orientDef_180.png","fearful","1","15","15","Purples","orientDef","scaleRev","180","",""
"","","","","","html-slider-response","153","423115","0.0-149.0","eez5wr4xz9","67","NaN","<div style=""width:500px;"">
                            <p style=""font-size:50px; font-weight:bold;""
                            >fearful</p>
                            <div style=""width:240px; margin: auto;"">
                                <img src=""images/map02_PRGn_scaleDef_orientMir_090.png"" style= ""width:200px""alt=""img"">
                            </div>
                        </div>","200","","0","","","","images/map02_PRGn_scaleDef_orientMir_090.png","fearful","1","02","02","PRGn","orientMir","scaleDef","090","",""
"","","","","","html-slider-response","154","425715","0.0-150.0","eez5wr4xz9","67","NaN","<div style=""width:500px;"">
                            <p style=""font-size:50px; font-weight:bold;""
                            >fearful</p>
                            <div style=""width:240px; margin: auto;"">
                                <img src=""images/map13_inferno_scaleDef_orientDef_090.png"" style= ""width:200px""alt=""img"">
                            </div>
                        </div>","200","","0","","","","images/map13_inferno_scaleDef_orientDef_090.png","fearful","1","13","13","inferno","orientDef","scaleDef","090","",""
"","","","","","html-slider-response","155","427666","0.0-151.0","eez5wr4xz9","67","NaN","<div style=""width:500px;"">
                            <p style=""font-size:50px; font-weight:bold;""
                            >fearful</p>
                            <div style=""width:240px; margin: auto;"">
                                <img src=""images/map05_RdBu_scaleDef_orientMir_090.png"" style= ""width:200px""alt=""img"">
                            </div>
                        </div>","-57","","0","","","","images/map05_RdBu_scaleDef_orientMir_090.png","fearful","1","05","05","RdBu","orientMir","scaleDef","090","",""
"","","","","","html-slider-response","156","429515","0.0-152.0","eez5wr4xz9","67","NaN","<div style=""width:500px;"">
                            <p style=""font-size:50px; font-weight:bold;""
                            >fearful</p>
                            <div style=""width:240px; margin: auto;"">
                                <img src=""images/map27_BuGn_scaleDef_orientMir_270.png"" style= ""width:200px""alt=""img"">
                            </div>
                        </div>","98","","0","","","","images/map27_BuGn_scaleDef_orientMir_270.png","fearful","1","27","27","BuGn","orientMir","scaleDef","270","",""
"","","","","","html-slider-response","157","431465","0.0-153.0","eez5wr4xz9","67","NaN","<div style=""width:500px;"">
                            <p style=""font-size:50px; font-weight:bold;""
                            >fearful</p>
                            <div style=""width:240px; margin: auto;"">
                                <img src=""images/map02_BrBG_scaleDef_orientMir_270.png"" style= ""width:200px""alt=""img"">
                            </div>
                        </div>","110","","0","","","","images/map02_BrBG_scaleDef_orientMir_270.png","fearful","1","02","02","BrBG","orientMir","scaleDef","270","",""
"","","","","","html-slider-response","158","433299","0.0-154.0","eez5wr4xz9","67","NaN","<div style=""width:500px;"">
                            <p style=""font-size:50px; font-weight:bold;""
                            >fearful</p>
