"success","timeout","failed_images","failed_audio","failed_video","trial_type","trial_index","time_elapsed","internal_node_id","subject_id","condition_num","rt","stimulus","response","question_order","slider_start","practiceTrial","practiceTrialNum","correct","image_path","concept","repetition","map_id","map_num","scale_name","orientation_code","mapping_code","rotation_code","ishihara_plate","correct_response"
"true","false","[]","[]","[]","preload","0","1066","0.0-0.0","emupg5b0n9","74","","","","","","","","","","","","","","","","","","",""
"","","","","","html-button-response","1","5730","0.0-1.0","emupg5b0n9","74","4662","Welcome to our experiment!<p>At the bottom of this screen, you will see a button that says ""Begin Experiment"".<br>Please only click that button when you are ready to complete the 30 minute experiment in one sitting.</p><p> Once you click that button, it will not be possible to restart the experiment.","0","","","","","","","","","","","","","","","",""
"true","","","","","fullscreen","2","7599","0.0-2.0","emupg5b0n9","74","864","","","","","","","","","","","","","","","","","",""
"","","","","","survey-multi-select","3","14281","0.0-3.0","emupg5b0n9","74","6678","","{""Consent"":[""<strong>I consent</strong>""]}","[0]","","","","","","","","","","","","","","",""
"","","","","","html-button-response","4","19947","0.0-4.0","emupg5b0n9","74","5665","Welcome! <p> This experiment involves two parts: demographic information, followed by the experimental task.<p> It will take about 30 minutes to complete both parts.","0","","","","","","","","","","","","","","","",""
"","","","","","survey-text","5","32849","0.0-5.0","emupg5b0n9","74","12892","","{""Age"":""19"",""Gender"":""Female"",""Race/ethnicity"":""White"",""Languages"":""English""}","","","","","","","","","","","","","","","",""
"","","","","","html-slider-response","6","91746","0.0-6.0","emupg5b0n9","74","58897","<div style='text-align:left; font-size:20px; line-height:25px; width: 1000px;'>
                                During this experiment you will be asked to rate how much you associate maps with                    different concepts.<br> Below, you can see some examples of the maps you will be asked to rate. Above the maps
                    is the list of concepts.<br>You will be asked                    to rate how much you associate each map with each concept on a scale from 'not at all' to 'very much' like the
                    one below. <br><br>
                    Now, please look at the list of concepts and maps. For each concept, think about the map you associate 'very
                    much' with the concept.<br>                     When you see that map during the experiment, please rate it near the 'very much' endpoint of the
                    scale.<br>Now, please think about which map you associate 'not at all'                     with each concept. When you see that map during the experiment, please rate it near the 'not at all' endpoint
                    of the scale.<br>
                    Please use the full range of the scale. That is, if a map is somewhat associated with the concept, you would
                    click partway between the middle point and right side of the scale.                    You will be asked to rate each map for a given concept before moving on to the next concept.<br>Press the
                    'Continue' button for instructions on how to use the slider.                    <br>
                </div>

                <div style=""width: 500px; margin: 0 auto;"">
                    <!-- Centered text paragraphs -->
                    <div style=""text-align: center; width: 500px;"">
                        <p style=""font-size:25px; line-height:15px;"">
                            happy&nbsp;&nbsp;&nbsp;&nbsp;
                            fearful&nbsp;&nbsp;&nbsp;&nbsp;
                            sad&nbsp;&nbsp;&nbsp;&nbsp;
                            disgust&nbsp;&nbsp;&nbsp;&nbsp;
                            angry
                        </p>
                        <!-- <p style=""font-size:20px; line-height:15px;"">fearful</p>
                        <p style=""font-size:20px;line-height:15px;"">sad</p>
                        <p style=""font-size:20px;line-height:15px;"">disgust</p>
                        <p style=""font-size:20px;line-height:15px;"">angry</p> -->
                    </div>
            

                    <!-- Grid section -->
                   <div style=""display: flex; justify-content: center; padding-top: 15px;"">
                    <div style=""display: grid; grid-template-columns: repeat(10, 55px); grid-gap: 5px; width: auto;"">
                        <img src=""images/map15_RdYlBu_scaleDef_orientMir_000.png"" alt=""map"" style=""width: 100%;""><img src=""images/map10_PuBu_scaleRev_orientMir_270.png"" alt=""map"" style=""width: 100%;""><img src=""images/map05_Reds_scaleDef_orientMir_180.png"" alt=""map"" style=""width: 100%;""><img src=""images/map02_cividis_scaleRev_orientDef_270.png"" alt=""map"" style=""width: 100%;""><img src=""images/map23_seismic_scaleDef_orientMir_180.png"" alt=""map"" style=""width: 100%;""><img src=""images/map23_Spectral_scaleDef_orientDef_000.png"" alt=""map"" style=""width: 100%;""><img src=""images/map27_plasma_scaleRev_orientMir_090.png"" alt=""map"" style=""width: 100%;""><img src=""images/map23_bwr_scaleDef_orientMir_000.png"" alt=""map"" style=""width: 100%;""><img src=""images/map12_YlGnBu_scaleDef_orientDef_000.png"" alt=""map"" style=""width: 100%;""><img src=""images/map13_PuOr_scaleRev_orientMir_270.png"" alt=""map"" style=""width: 100%;""><img src=""images/map26_vanimo_scaleRev_orientMir_090.png"" alt=""map"" style=""width: 100%;""><img src=""images/map15_RdYlGn_scaleDef_orientMir_180.png"" alt=""map"" style=""width: 100%;""><img src=""images/map12_BuGn_scaleRev_orientMir_090.png"" alt=""map"" style=""width: 100%;""><img src=""images/map12_YlGn_scaleDef_orientMir_180.png"" alt=""map"" style=""width: 100%;""><img src=""images/map05_Greens_scaleDef_orientDef_180.png"" alt=""map"" style=""width: 100%;""><img src=""images/map02_Greys_scaleRev_orientMir_090.png"" alt=""map"" style=""width: 100%;""><img src=""images/map27_inferno_scaleDef_orientMir_180.png"" alt=""map"" style=""width: 100%;""><img src=""images/map07_YlOrRd_scaleDef_orientDef_180.png"" alt=""map"" style=""width: 100%;""><img src=""images/map13_PiYG_scaleDef_orientDef_000.png"" alt=""map"" style=""width: 100%;""><img src=""images/map27_viridis_scaleRev_orientDef_270.png"" alt=""map"" style=""width: 100%;""><img src=""images/map07_YlOrBr_scaleRev_orientDef_090.png"" alt=""map"" style=""width: 100%;""><img src=""images/map05_Blues_scaleDef_orientDef_000.png"" alt=""map"" style=""width: 100%;""><img src=""images/map07_OrRd_scaleRev_orientMir_090.png"" alt=""map"" style=""width: 100%;""><img src=""images/map26_gist_earth_scaleRev_orientMir_270.png"" alt=""map"" style=""width: 100%;""><img src=""images/map26_managua_scaleDef_orientDef_180.png"" alt=""map"" style=""width: 100%;""><img src=""images/map13_BrBG_scaleRev_orientMir_090.png"" alt=""map"" style=""width: 100%;""><img src=""images/map12_PuBuGn_scaleRev_orientDef_270.png"" alt=""map"" style=""width: 100%;""><img src=""images/map15_RdBu_scaleDef_orientDef_180.png"" alt=""map"" style=""width: 100%;""><img src=""images/map10_BuPu_scaleRev_orientDef_270.png"" alt=""map"" style=""width: 100%;""><img src=""images/map02_magma_scaleDef_orientDef_000.png"" alt=""map"" style=""width: 100%;""><img src=""images/map02_Purples_scaleDef_orientMir_180.png"" alt=""map"" style=""width: 100%;""><img src=""images/map10_GnBu_scaleDef_orientMir_000.png"" alt=""map"" style=""width: 100%;""><img src=""images/map05_Oranges_scaleDef_orientMir_000.png"" alt=""map"" style=""width: 100%;""><img src=""images/map23_coolwarm_scaleRev_orientDef_270.png"" alt=""map"" style=""width: 100%;""><img src=""images/map26_berlin_scaleRev_orientDef_090.png"" alt=""map"" style=""width: 100%;""><img src=""images/map13_PRGn_scaleDef_orientDef_180.png"" alt=""map"" style=""width: 100%;""><img src=""images/map10_RdPu_scaleDef_orientDef_000.png"" alt=""map"" style=""width: 100%;""><img src=""images/map07_PuRd_scaleDef_orientMir_180.png"" alt=""map"" style=""width: 100%;""><img src=""images/map15_RdGy_scaleRev_orientDef_090.png"" alt=""map"" style=""width: 100%;""><img src=""images/map27_turbo_scaleDef_orientDef_000.png"" alt=""map"" style=""width: 100%;"">
                    </div>
                </div>

                    <!-- Clear floats -->
                    <div style=""clear: both;""></div>
                </div>
                            ","-117","","0","true","","","","","","","","","","","","",""
"","","","","","html-button-response","7","93311","0.0-7.0","emupg5b0n9","74","1565","<div style=""width:800px;""><p style=""text-align:left"">To move the slider, click and drag your cursor to the location of the scale where you would like to make your rating and then let go. When you let go of the slider, your response will be recorded and the next trial will begin. <br>
                    We are interested in your initial impressions of each map for the given concept, so please go with your first intuition. <br>
                    Before you begin the experiment, there will be four training trials for you to practice using the scale. <br>
                     When you are ready to start the training trials, please click ""Continue"".</p><br></div>","0","","","","","","","","","","","","","","","",""
"","","","","","html-slider-response","8","95741","0.0-8.0-0.0","emupg5b0n9","74","NaN","<div style=""width:500px;"">
                                    <p style=""font-size:25px;"">Please move the slider all the way to the <br> right endpoint of the scale</p>

                                    </div>
                                </div>","200","","0","true","0","true","","","","","","","","","","",""
"","","","","","html-button-response","9","97362","0.0-8.0-1.0","emupg5b0n9","74","1118","<p align='center'><b>Good job!</b> Click on 'Continue' to proceed.</p>","0","","","","","","","","","","","","","","","",""
"","","","","","html-slider-response","10","98673","0.0-9.0-0.0","emupg5b0n9","74","NaN","<div style=""width:500px;"">
                                    <p style=""font-size:25px;"">Please move the slider all the way to the <br> left endpoint of the scale</p>

                                    </div>
                                </div>","-200","","0","true","1","true","","","","","","","","","","",""
"","","","","","html-button-response","11","99879","0.0-9.0-1.0","emupg5b0n9","74","703","<p align='center'><b>Good job!</b> Click on 'Continue' to proceed.</p>","0","","","","","","","","","","","","","","","",""
"","","","","","html-slider-response","12","102941","0.0-10.0-0.0","emupg5b0n9","74","NaN","<div style=""width:500px;"">
                                    <p style=""font-size:25px;"">Please move the slider halfway between the center and right endpoint of the scale</p>

                                    </div>
                                </div>","98","","0","true","2","true","","","","","","","","","","",""
"","","","","","html-button-response","13","104012","0.0-10.0-1.0","emupg5b0n9","74","567","<p align='center'><b>Good job!</b> Click on 'Continue' to proceed.</p>","0","","","","","","","","","","","","","","","",""
"","","","","","html-slider-response","14","105673","0.0-11.0-0.0","emupg5b0n9","74","NaN","<div style=""width:500px;"">
                                    <p style=""font-size:25px;"">Please move the slider halfway between the center and left endpoint of the scale</p>

                                    </div>
                                </div>","-114","","0","true","3","false","","","","","","","","","","",""
"","","","","","html-button-response","15","108662","0.0-11.0-1.0","emupg5b0n9","74","2487","<p align='center'><b>Not quite!</b> The slider was not placed near the instructed located. Click on 'Continue' to try again. </p>","0","","","","","","","","","","","","","","","",""
"","","","","","html-slider-response","16","111655","0.0-11.1-0.1","emupg5b0n9","74","NaN","<div style=""width:500px;"">
                                    <p style=""font-size:25px;"">Please move the slider halfway between the center and left endpoint of the scale</p>

                                    </div>
                                </div>","-110","","0","true","3","true","","","","","","","","","","",""
"","","","","","html-button-response","17","112930","0.0-11.1-1.1","emupg5b0n9","74","772","<p align='center'><b>Good job!</b> Click on 'Continue' to proceed.</p>","0","","","","","","","","","","","","","","","",""
"","","","","","html-button-response","18","113946","0.0-12.0","emupg5b0n9","74","1016","<p>Great job! You've completed the practice trials. Now you will begin the main task.</p>","0","","","","","","","","","","","","","","","",""
"","","","","","html-button-response","19","116579","0.0-13.0","emupg5b0n9","74","2632","<p>In this block of trials, you will be asked to rate how much you associate each map with:</p > <p style = 'font-size:150%; font-weight: bold'>happy</p><br></br>","0","","","","","","","","","","","","","","","",""
"","","","","","html-slider-response","20","120472","0.0-14.0","emupg5b0n9","74","NaN","<div style=""width:500px;"">
                            <p style=""font-size:50px; font-weight:bold;""
                            >happy</p>
                            <div style=""width:240px; margin: auto;"">
                                <img src=""images/map07_YlOrBr_scaleRev_orientDef_090.png"" style= ""width:200px""alt=""img"">
                            </div>
                        </div>","57","","0","","","","images/map07_YlOrBr_scaleRev_orientDef_090.png","happy","1","07","07","YlOrBr","orientDef","scaleRev","090","",""
"","","","","","html-slider-response","21","122660","0.0-15.0","emupg5b0n9","74","NaN","<div style=""width:500px;"">
                            <p style=""font-size:50px; font-weight:bold;""
                            >happy</p>
                            <div style=""width:240px; margin: auto;"">
                                <img src=""images/map15_RdGy_scaleRev_orientDef_090.png"" style= ""width:200px""alt=""img"">
                            </div>
                        </div>","-139","","0","","","","images/map15_RdGy_scaleRev_orientDef_090.png","happy","1","15","15","RdGy","orientDef","scaleRev","090","",""
"","","","","","html-slider-response","22","126038","0.0-16.0","emupg5b0n9","74","NaN","<div style=""width:500px;"">
                            <p style=""font-size:50px; font-weight:bold;""
                            >happy</p>
                            <div style=""width:240px; margin: auto;"">
                                <img src=""images/map15_RdBu_scaleRev_orientDef_270.png"" style= ""width:200px""alt=""img"">
                            </div>
                        </div>","17","","0","","","","images/map15_RdBu_scaleRev_orientDef_270.png","happy","1","15","15","RdBu","orientDef","scaleRev","270","",""
"","","","","","html-slider-response","23","128407","0.0-17.0","emupg5b0n9","74","NaN","<div style=""width:500px;"">
                            <p style=""font-size:50px; font-weight:bold;""
                            >happy</p>
                            <div style=""width:240px; margin: auto;"">
                                <img src=""images/map26_vanimo_scaleRev_orientMir_090.png"" style= ""width:200px""alt=""img"">
                            </div>
                        </div>","86","","0","","","","images/map26_vanimo_scaleRev_orientMir_090.png","happy","1","26","26","vanimo","orientMir","scaleRev","090","",""
"","","","","","html-slider-response","24","130458","0.0-18.0","emupg5b0n9","74","NaN","<div style=""width:500px;"">
                            <p style=""font-size:50px; font-weight:bold;""
                            >happy</p>
                            <div style=""width:240px; margin: auto;"">
                                <img src=""images/map26_gist_earth_scaleDef_orientMir_180.png"" style= ""width:200px""alt=""img"">
                            </div>
                        </div>","16","","0","","","","images/map26_gist_earth_scaleDef_orientMir_180.png","happy","1","26","26","gist","scaleDef","earth","orientMir","",""
"","","","","","html-slider-response","25","133274","0.0-19.0","emupg5b0n9","74","NaN","<div style=""width:500px;"">
                            <p style=""font-size:50px; font-weight:bold;""
                            >happy</p>
                            <div style=""width:240px; margin: auto;"">
                                <img src=""images/map27_turbo_scaleRev_orientDef_090.png"" style= ""width:200px""alt=""img"">
                            </div>
                        </div>","28","","0","","","","images/map27_turbo_scaleRev_orientDef_090.png","happy","1","27","27","turbo","orientDef","scaleRev","090","",""
"","","","","","html-slider-response","26","135340","0.0-20.0","emupg5b0n9","74","NaN","<div style=""width:500px;"">
                            <p style=""font-size:50px; font-weight:bold;""
                            >happy</p>
                            <div style=""width:240px; margin: auto;"">
                                <img src=""images/map05_Blues_scaleDef_orientDef_000.png"" style= ""width:200px""alt=""img"">
                            </div>
                        </div>","111","","0","","","","images/map05_Blues_scaleDef_orientDef_000.png","happy","1","05","05","Blues","orientDef","scaleDef","000","",""
"","","","","","html-slider-response","27","137740","0.0-21.0","emupg5b0n9","74","NaN","<div style=""width:500px;"">
                            <p style=""font-size:50px; font-weight:bold;""
                            >happy</p>
                            <div style=""width:240px; margin: auto;"">
                                <img src=""images/map05_Blues_scaleRev_orientDef_090.png"" style= ""width:200px""alt=""img"">
                            </div>
                        </div>","126","","0","","","","images/map05_Blues_scaleRev_orientDef_090.png","happy","1","05","05","Blues","orientDef","scaleRev","090","",""
"","","","","","html-slider-response","28","139973","0.0-22.0","emupg5b0n9","74","NaN","<div style=""width:500px;"">
                            <p style=""font-size:50px; font-weight:bold;""
                            >happy</p>
                            <div style=""width:240px; margin: auto;"">
                                <img src=""images/map15_RdBu_scaleDef_orientDef_180.png"" style= ""width:200px""alt=""img"">
                            </div>
                        </div>","33","","0","","","","images/map15_RdBu_scaleDef_orientDef_180.png","happy","1","15","15","RdBu","orientDef","scaleDef","180","",""
"","","","","","html-slider-response","29","141841","0.0-23.0","emupg5b0n9","74","NaN","<div style=""width:500px;"">
                            <p style=""font-size:50px; font-weight:bold;""
                            >happy</p>
                            <div style=""width:240px; margin: auto;"">
                                <img src=""images/map12_BuGn_scaleDef_orientMir_000.png"" style= ""width:200px""alt=""img"">
                            </div>
                        </div>","63","","0","","","","images/map12_BuGn_scaleDef_orientMir_000.png","happy","1","12","12","BuGn","orientMir","scaleDef","000","",""
"","","","","","html-slider-response","30","143958","0.0-24.0","emupg5b0n9","74","NaN","<div style=""width:500px;"">
                            <p style=""font-size:50px; font-weight:bold;""
                            >happy</p>
                            <div style=""width:240px; margin: auto;"">
                                <img src=""images/map10_PuBu_scaleRev_orientMir_270.png"" style= ""width:200px""alt=""img"">
                            </div>
                        </div>","152","","0","","","","images/map10_PuBu_scaleRev_orientMir_270.png","happy","1","10","10","PuBu","orientMir","scaleRev","270","",""
"","","","","","html-slider-response","31","145756","0.0-25.0","emupg5b0n9","74","NaN","<div style=""width:500px;"">
                            <p style=""font-size:50px; font-weight:bold;""
                            >happy</p>
                            <div style=""width:240px; margin: auto;"">
                                <img src=""images/map15_RdGy_scaleDef_orientDef_000.png"" style= ""width:200px""alt=""img"">
                            </div>
                        </div>","-42","","0","","","","images/map15_RdGy_scaleDef_orientDef_000.png","happy","1","15","15","RdGy","orientDef","scaleDef","000","",""
"","","","","","html-slider-response","32","147440","0.0-26.0","emupg5b0n9","74","NaN","<div style=""width:500px;"">
                            <p style=""font-size:50px; font-weight:bold;""
                            >happy</p>
                            <div style=""width:240px; margin: auto;"">
                                <img src=""images/map27_turbo_scaleDef_orientDef_000.png"" style= ""width:200px""alt=""img"">
                            </div>
                        </div>","38","","0","","","","images/map27_turbo_scaleDef_orientDef_000.png","happy","1","27","27","turbo","orientDef","scaleDef","000","",""
"","","","","","html-slider-response","33","149607","0.0-27.0","emupg5b0n9","74","NaN","<div style=""width:500px;"">
                            <p style=""font-size:50px; font-weight:bold;""
                            >happy</p>
                            <div style=""width:240px; margin: auto;"">
                                <img src=""images/map07_PuRd_scaleRev_orientMir_270.png"" style= ""width:200px""alt=""img"">
                            </div>
                        </div>","157","","0","","","","images/map07_PuRd_scaleRev_orientMir_270.png","happy","1","07","07","PuRd","orientMir","scaleRev","270","",""
"","","","","","html-slider-response","34","151892","0.0-28.0","emupg5b0n9","74","NaN","<div style=""width:500px;"">
                            <p style=""font-size:50px; font-weight:bold;""
                            >happy</p>
                            <div style=""width:240px; margin: auto;"">
                                <img src=""images/map13_PuOr_scaleRev_orientMir_270.png"" style= ""width:200px""alt=""img"">
                            </div>
                        </div>","32","","0","","","","images/map13_PuOr_scaleRev_orientMir_270.png","happy","1","13","13","PuOr","orientMir","scaleRev","270","",""
"","","","","","html-slider-response","35","154007","0.0-29.0","emupg5b0n9","74","NaN","<div style=""width:500px;"">
                            <p style=""font-size:50px; font-weight:bold;""
                            >happy</p>
                            <div style=""width:240px; margin: auto;"">
                                <img src=""images/map27_plasma_scaleDef_orientMir_000.png"" style= ""width:200px""alt=""img"">
                            </div>
                        </div>","82","","0","","","","images/map27_plasma_scaleDef_orientMir_000.png","happy","1","27","27","plasma","orientMir","scaleDef","000","",""
"","","","","","html-slider-response","36","156239","0.0-30.0","emupg5b0n9","74","NaN","<div style=""width:500px;"">
                            <p style=""font-size:50px; font-weight:bold;""
                            >happy</p>
                            <div style=""width:240px; margin: auto;"">
                                <img src=""images/map10_PuBu_scaleDef_orientMir_180.png"" style= ""width:200px""alt=""img"">
                            </div>
                        </div>","176","","0","","","","images/map10_PuBu_scaleDef_orientMir_180.png","happy","1","10","10","PuBu","orientMir","scaleDef","180","",""
"","","","","","html-slider-response","37","158372","0.0-31.0","emupg5b0n9","74","NaN","<div style=""width:500px;"">
                            <p style=""font-size:50px; font-weight:bold;""
                            >happy</p>
                            <div style=""width:240px; margin: auto;"">
                                <img src=""images/map05_Greens_scaleRev_orientDef_270.png"" style= ""width:200px""alt=""img"">
                            </div>
                        </div>","81","","0","","","","images/map05_Greens_scaleRev_orientDef_270.png","happy","1","05","05","Greens","orientDef","scaleRev","270","",""
"","","","","","html-slider-response","38","159991","0.0-32.0","emupg5b0n9","74","NaN","<div style=""width:500px;"">
                            <p style=""font-size:50px; font-weight:bold;""
                            >happy</p>
                            <div style=""width:240px; margin: auto;"">
                                <img src=""images/map02_Purples_scaleDef_orientMir_180.png"" style= ""width:200px""alt=""img"">
                            </div>
                        </div>","44","","0","","","","images/map02_Purples_scaleDef_orientMir_180.png","happy","1","02","02","Purples","orientMir","scaleDef","180","",""
"","","","","","html-slider-response","39","161857","0.0-33.0","emupg5b0n9","74","NaN","<div style=""width:500px;"">
                            <p style=""font-size:50px; font-weight:bold;""
                            >happy</p>
                            <div style=""width:240px; margin: auto;"">
                                <img src=""images/map27_inferno_scaleDef_orientMir_180.png"" style= ""width:200px""alt=""img"">
                            </div>
                        </div>","48","","0","","","","images/map27_inferno_scaleDef_orientMir_180.png","happy","1","27","27","inferno","orientMir","scaleDef","180","",""
"","","","","","html-slider-response","40","165408","0.0-34.0","emupg5b0n9","74","NaN","<div style=""width:500px;"">
                            <p style=""font-size:50px; font-weight:bold;""
                            >happy</p>
                            <div style=""width:240px; margin: auto;"">
                                <img src=""images/map23_bwr_scaleDef_orientMir_000.png"" style= ""width:200px""alt=""img"">
                            </div>
                        </div>","43","","0","","","","images/map23_bwr_scaleDef_orientMir_000.png","happy","1","23","23","bwr","orientMir","scaleDef","000","",""
"","","","","","html-slider-response","41","167489","0.0-35.0","emupg5b0n9","74","NaN","<div style=""width:500px;"">
                            <p style=""font-size:50px; font-weight:bold;""
                            >happy</p>
                            <div style=""width:240px; margin: auto;"">
                                <img src=""images/map05_Oranges_scaleRev_orientMir_090.png"" style= ""width:200px""alt=""img"">
                            </div>
                        </div>","-55","","0","","","","images/map05_Oranges_scaleRev_orientMir_090.png","happy","1","05","05","Oranges","orientMir","scaleRev","090","",""
"","","","","","html-slider-response","42","168923","0.0-36.0","emupg5b0n9","74","NaN","<div style=""width:500px;"">
                            <p style=""font-size:50px; font-weight:bold;""
                            >happy</p>
                            <div style=""width:240px; margin: auto;"">
                                <img src=""images/map10_RdPu_scaleDef_orientDef_000.png"" style= ""width:200px""alt=""img"">
                            </div>
                        </div>","80","","0","","","","images/map10_RdPu_scaleDef_orientDef_000.png","happy","1","10","10","RdPu","orientDef","scaleDef","000","",""
"","","","","","html-slider-response","43","172140","0.0-37.0","emupg5b0n9","74","NaN","<div style=""width:500px;"">
                            <p style=""font-size:50px; font-weight:bold;""
                            >happy</p>
                            <div style=""width:240px; margin: auto;"">
                                <img src=""images/map15_RdYlGn_scaleDef_orientMir_180.png"" style= ""width:200px""alt=""img"">
                            </div>
                        </div>","-46","","0","","","","images/map15_RdYlGn_scaleDef_orientMir_180.png","happy","1","15","15","RdYlGn","orientMir","scaleDef","180","",""
"","","","","","html-slider-response","44","177174","0.0-38.0","emupg5b0n9","74","NaN","<div style=""width:500px;"">
                            <p style=""font-size:50px; font-weight:bold;""
                            >happy</p>
                            <div style=""width:240px; margin: auto;"">
                                <img src=""images/map23_Spectral_scaleRev_orientDef_090.png"" style= ""width:200px""alt=""img"">
                            </div>
                        </div>","32","","0","","","","images/map23_Spectral_scaleRev_orientDef_090.png","happy","1","23","23","Spectral","orientDef","scaleRev","090","",""
"","","","","","html-slider-response","45","179256","0.0-39.0","emupg5b0n9","74","NaN","<div style=""width:500px;"">
                            <p style=""font-size:50px; font-weight:bold;""
                            >happy</p>
                            <div style=""width:240px; margin: auto;"">
                                <img src=""images/map12_PuBuGn_scaleDef_orientDef_180.png"" style= ""width:200px""alt=""img"">
                            </div>
                        </div>","109","","0","","","","images/map12_PuBuGn_scaleDef_orientDef_180.png","happy","1","12","12","PuBuGn","orientDef","scaleDef","180","",""
"","","","","","html-slider-response","46","181541","0.0-40.0","emupg5b0n9","74","NaN","<div style=""width:500px;"">
                            <p style=""font-size:50px; font-weight:bold;""
                            >happy</p>
                            <div style=""width:240px; margin: auto;"">
                                <img src=""images/map07_YlOrRd_scaleRev_orientDef_270.png"" style= ""width:200px""alt=""img"">
                            </div>
                        </div>","30","","0","","","","images/map07_YlOrRd_scaleRev_orientDef_270.png","happy","1","07","07","YlOrRd","orientDef","scaleRev","270","",""
"","","","","","html-slider-response","47","183194","0.0-41.0","emupg5b0n9","74","NaN","<div style=""width:500px;"">
                            <p style=""font-size:50px; font-weight:bold;""
                            >happy</p>
                            <div style=""width:240px; margin: auto;"">
                                <img src=""images/map02_magma_scaleDef_orientDef_000.png"" style= ""width:200px""alt=""img"">
                            </div>
                        </div>","147","","0","","","","images/map02_magma_scaleDef_orientDef_000.png","happy","1","02","02","magma","orientDef","scaleDef","000","",""
"","","","","","html-slider-response","48","185289","0.0-42.0","emupg5b0n9","74","NaN","<div style=""width:500px;"">
                            <p style=""font-size:50px; font-weight:bold;""
                            >happy</p>
                            <div style=""width:240px; margin: auto;"">
                                <img src=""images/map23_seismic_scaleDef_orientMir_180.png"" style= ""width:200px""alt=""img"">
                            </div>
                        </div>","44","","0","","","","images/map23_seismic_scaleDef_orientMir_180.png","happy","1","23","23","seismic","orientMir","scaleDef","180","",""
"","","","","","html-slider-response","49","187106","0.0-43.0","emupg5b0n9","74","NaN","<div style=""width:500px;"">
                            <p style=""font-size:50px; font-weight:bold;""
                            >happy</p>
                            <div style=""width:240px; margin: auto;"">
                                <img src=""images/map10_BuPu_scaleRev_orientDef_270.png"" style= ""width:200px""alt=""img"">
                            </div>
                        </div>","91","","0","","","","images/map10_BuPu_scaleRev_orientDef_270.png","happy","1","10","10","BuPu","orientDef","scaleRev","270","",""
"","","","","","html-slider-response","50","188639","0.0-44.0","emupg5b0n9","74","NaN","<div style=""width:500px;"">
                            <p style=""font-size:50px; font-weight:bold;""
                            >happy</p>
                            <div style=""width:240px; margin: auto;"">
                                <img src=""images/map15_RdYlBu_scaleDef_orientMir_000.png"" style= ""width:200px""alt=""img"">
                            </div>
                        </div>","30","","0","","","","images/map15_RdYlBu_scaleDef_orientMir_000.png","happy","1","15","15","RdYlBu","orientMir","scaleDef","000","",""
"","","","","","html-slider-response","51","190056","0.0-45.0","emupg5b0n9","74","NaN","<div style=""width:500px;"">
                            <p style=""font-size:50px; font-weight:bold;""
                            >happy</p>
                            <div style=""width:240px; margin: auto;"">
                                <img src=""images/map05_Oranges_scaleDef_orientMir_000.png"" style= ""width:200px""alt=""img"">
                            </div>
                        </div>","80","","0","","","","images/map05_Oranges_scaleDef_orientMir_000.png","happy","1","05","05","Oranges","orientMir","scaleDef","000","",""
"","","","","","html-slider-response","52","191542","0.0-46.0","emupg5b0n9","74","NaN","<div style=""width:500px;"">
                            <p style=""font-size:50px; font-weight:bold;""
                            >happy</p>
                            <div style=""width:240px; margin: auto;"">
                                <img src=""images/map12_YlGn_scaleDef_orientMir_180.png"" style= ""width:200px""alt=""img"">
                            </div>
                        </div>","112","","0","","","","images/map12_YlGn_scaleDef_orientMir_180.png","happy","1","12","12","YlGn","orientMir","scaleDef","180","",""
"","","","","","html-slider-response","53","193107","0.0-47.0","emupg5b0n9","74","NaN","<div style=""width:500px;"">
                            <p style=""font-size:50px; font-weight:bold;""
                            >happy</p>
                            <div style=""width:240px; margin: auto;"">
                                <img src=""images/map02_Purples_scaleRev_orientMir_270.png"" style= ""width:200px""alt=""img"">
                            </div>
                        </div>","120","","0","","","","images/map02_Purples_scaleRev_orientMir_270.png","happy","1","02","02","Purples","orientMir","scaleRev","270","",""
"","","","","","html-slider-response","54","195091","0.0-48.0","emupg5b0n9","74","NaN","<div style=""width:500px;"">
                            <p style=""font-size:50px; font-weight:bold;""
                            >happy</p>
                            <div style=""width:240px; margin: auto;"">
                                <img src=""images/map07_YlOrRd_scaleDef_orientDef_180.png"" style= ""width:200px""alt=""img"">
                            </div>
                        </div>","77","","0","","","","images/map07_YlOrRd_scaleDef_orientDef_180.png","happy","1","07","07","YlOrRd","orientDef","scaleDef","180","",""
"","","","","","html-slider-response","55","196893","0.0-49.0","emupg5b0n9","74","NaN","<div style=""width:500px;"">
                            <p style=""font-size:50px; font-weight:bold;""
                            >happy</p>
                            <div style=""width:240px; margin: auto;"">
                                <img src=""images/map27_plasma_scaleRev_orientMir_090.png"" style= ""width:200px""alt=""img"">
                            </div>
                        </div>","122","","0","","","","images/map27_plasma_scaleRev_orientMir_090.png","happy","1","27","27","plasma","orientMir","scaleRev","090","",""
"","","","","","html-slider-response","56","198474","0.0-50.0","emupg5b0n9","74","NaN","<div style=""width:500px;"">
                            <p style=""font-size:50px; font-weight:bold;""
                            >happy</p>
                            <div style=""width:240px; margin: auto;"">
                                <img src=""images/map13_PRGn_scaleRev_orientDef_270.png"" style= ""width:200px""alt=""img"">
                            </div>
                        </div>","53","","0","","","","images/map13_PRGn_scaleRev_orientDef_270.png","happy","1","13","13","PRGn","orientDef","scaleRev","270","",""
"","","","","","html-slider-response","57","200215","0.0-51.0","emupg5b0n9","74","NaN","<div style=""width:500px;"">
                            <p style=""font-size:50px; font-weight:bold;""
                            >happy</p>
                            <div style=""width:240px; margin: auto;"">
                                <img src=""images/map23_seismic_scaleRev_orientMir_270.png"" style= ""width:200px""alt=""img"">
                            </div>
                        </div>","26","","0","","","","images/map23_seismic_scaleRev_orientMir_270.png","happy","1","23","23","seismic","orientMir","scaleRev","270","",""
"","","","","","html-slider-response","58","201740","0.0-52.0","emupg5b0n9","74","NaN","<div style=""width:500px;"">
                            <p style=""font-size:50px; font-weight:bold;""
                            >happy</p>
                            <div style=""width:240px; margin: auto;"">
                                <img src=""images/map27_viridis_scaleDef_orientDef_180.png"" style= ""width:200px""alt=""img"">
                            </div>
                        </div>","42","","0","","","","images/map27_viridis_scaleDef_orientDef_180.png","happy","1","27","27","viridis","orientDef","scaleDef","180","",""
"","","","","","html-slider-response","59","203840","0.0-53.0","emupg5b0n9","74","NaN","<div style=""width:500px;"">
                            <p style=""font-size:50px; font-weight:bold;""
                            >happy</p>
                            <div style=""width:240px; margin: auto;"">
                                <img src=""images/map13_BrBG_scaleRev_orientMir_090.png"" style= ""width:200px""alt=""img"">
                            </div>
                        </div>","43","","0","","","","images/map13_BrBG_scaleRev_orientMir_090.png","happy","1","13","13","BrBG","orientMir","scaleRev","090","",""
"","","","","","html-button-response","60","207546","0.0-54.0","emupg5b0n9","74","3204","<p>You are doing great!<br></br> You are halway done with the current block. When you are ready to continue, click the 'Continue' button.</p>","0","","","","","","","","","","","","","","","",""
"","","","","","html-slider-response","61","208992","0.0-55.0","emupg5b0n9","74","NaN","<div style=""width:500px;"">
                            <p style=""font-size:50px; font-weight:bold;""
                            >happy</p>
                            <div style=""width:240px; margin: auto;"">
                                <img src=""images/map07_OrRd_scaleDef_orientMir_000.png"" style= ""width:200px""alt=""img"">
                            </div>
                        </div>","74","","0","","","","images/map07_OrRd_scaleDef_orientMir_000.png","happy","1","07","07","OrRd","orientMir","scaleDef","000","",""
"","","","","","html-slider-response","62","211039","0.0-56.0","emupg5b0n9","74","NaN","<div style=""width:500px;"">
                            <p style=""font-size:50px; font-weight:bold;""
                            >happy</p>
                            <div style=""width:240px; margin: auto;"">
                                <img src=""images/map23_Spectral_scaleDef_orientDef_000.png"" style= ""width:200px""alt=""img"">
                            </div>
                        </div>","-12","","0","","","","images/map23_Spectral_scaleDef_orientDef_000.png","happy","1","23","23","Spectral","orientDef","scaleDef","000","",""
"","","","","","html-slider-response","63","212591","0.0-57.0","emupg5b0n9","74","NaN","<div style=""width:500px;"">
                            <p style=""font-size:50px; font-weight:bold;""
                            >happy</p>
                            <div style=""width:240px; margin: auto;"">
                                <img src=""images/map07_YlOrBr_scaleDef_orientDef_000.png"" style= ""width:200px""alt=""img"">
                            </div>
                        </div>","49","","0","","","","images/map07_YlOrBr_scaleDef_orientDef_000.png","happy","1","07","07","YlOrBr","orientDef","scaleDef","000","",""
"","","","","","html-slider-response","64","214307","0.0-58.0","emupg5b0n9","74","NaN","<div style=""width:500px;"">
                            <p style=""font-size:50px; font-weight:bold;""
                            >happy</p>
                            <div style=""width:240px; margin: auto;"">
                                <img src=""images/map12_YlGnBu_scaleRev_orientDef_090.png"" style= ""width:200px""alt=""img"">
                            </div>
                        </div>","139","","0","","","","images/map12_YlGnBu_scaleRev_orientDef_090.png","happy","1","12","12","YlGnBu","orientDef","scaleRev","090","",""
"","","","","","html-slider-response","65","215957","0.0-59.0","emupg5b0n9","74","NaN","<div style=""width:500px;"">
                            <p style=""font-size:50px; font-weight:bold;""
                            >happy</p>
                            <div style=""width:240px; margin: auto;"">
                                <img src=""images/map12_PuBuGn_scaleRev_orientDef_270.png"" style= ""width:200px""alt=""img"">
                            </div>
                        </div>","120","","0","","","","images/map12_PuBuGn_scaleRev_orientDef_270.png","happy","1","12","12","PuBuGn","orientDef","scaleRev","270","",""
"","","","","","html-slider-response","66","218956","0.0-60.0","emupg5b0n9","74","NaN","<div style=""width:500px;"">
                            <p style=""font-size:50px; font-weight:bold;""
                            >happy</p>
                            <div style=""width:240px; margin: auto;"">
                                <img src=""images/map12_YlGnBu_scaleDef_orientDef_000.png"" style= ""width:200px""alt=""img"">
                            </div>
                        </div>","174","","0","","","","images/map12_YlGnBu_scaleDef_orientDef_000.png","happy","1","12","12","YlGnBu","orientDef","scaleDef","000","",""
"","","","","","html-slider-response","67","220807","0.0-61.0","emupg5b0n9","74","NaN","<div style=""width:500px;"">
                            <p style=""font-size:50px; font-weight:bold;""
                            >happy</p>
                            <div style=""width:240px; margin: auto;"">
                                <img src=""images/map23_coolwarm_scaleRev_orientDef_270.png"" style= ""width:200px""alt=""img"">
                            </div>
                        </div>","40","","0","","","","images/map23_coolwarm_scaleRev_orientDef_270.png","happy","1","23","23","coolwarm","orientDef","scaleRev","270","",""
"","","","","","html-slider-response","68","222408","0.0-62.0","emupg5b0n9","74","NaN","<div style=""width:500px;"">
                            <p style=""font-size:50px; font-weight:bold;""
                            >happy</p>
                            <div style=""width:240px; margin: auto;"">
                                <img src=""images/map13_PiYG_scaleDef_orientDef_000.png"" style= ""width:200px""alt=""img"">
                            </div>
                        </div>","59","","0","","","","images/map13_PiYG_scaleDef_orientDef_000.png","happy","1","13","13","PiYG","orientDef","scaleDef","000","",""
"","","","","","html-slider-response","69","224857","0.0-63.0","emupg5b0n9","74","NaN","<div style=""width:500px;"">
                            <p style=""font-size:50px; font-weight:bold;""
                            >happy</p>
                            <div style=""width:240px; margin: auto;"">
                                <img src=""images/map02_Greys_scaleDef_orientMir_000.png"" style= ""width:200px""alt=""img"">
                            </div>
                        </div>","-127","","0","","","","images/map02_Greys_scaleDef_orientMir_000.png","happy","1","02","02","Greys","orientMir","scaleDef","000","",""
"","","","","","html-slider-response","70","226674","0.0-64.0","emupg5b0n9","74","NaN","<div style=""width:500px;"">
                            <p style=""font-size:50px; font-weight:bold;""
                            >happy</p>
                            <div style=""width:240px; margin: auto;"">
                                <img src=""images/map15_RdYlGn_scaleRev_orientMir_270.png"" style= ""width:200px""alt=""img"">
                            </div>
                        </div>","-60","","0","","","","images/map15_RdYlGn_scaleRev_orientMir_270.png","happy","1","15","15","RdYlGn","orientMir","scaleRev","270","",""
"","","","","","html-slider-response","71","228273","0.0-65.0","emupg5b0n9","74","NaN","<div style=""width:500px;"">
                            <p style=""font-size:50px; font-weight:bold;""
                            >happy</p>
                            <div style=""width:240px; margin: auto;"">
                                <img src=""images/map02_cividis_scaleRev_orientDef_270.png"" style= ""width:200px""alt=""img"">
                            </div>
                        </div>","-43","","0","","","","images/map02_cividis_scaleRev_orientDef_270.png","happy","1","02","02","cividis","orientDef","scaleRev","270","",""
"","","","","","html-slider-response","72","230157","0.0-66.0","emupg5b0n9","74","NaN","<div style=""width:500px;"">
                            <p style=""font-size:50px; font-weight:bold;""
                            >happy</p>
                            <div style=""width:240px; margin: auto;"">
                                <img src=""images/map05_Reds_scaleRev_orientMir_270.png"" style= ""width:200px""alt=""img"">
                            </div>
                        </div>","-33","","0","","","","images/map05_Reds_scaleRev_orientMir_270.png","happy","1","05","05","Reds","orientMir","scaleRev","270","",""
"","","","","","html-slider-response","73","231691","0.0-67.0","emupg5b0n9","74","NaN","<div style=""width:500px;"">
                            <p style=""font-size:50px; font-weight:bold;""
                            >happy</p>
                            <div style=""width:240px; margin: auto;"">
                                <img src=""images/map23_coolwarm_scaleDef_orientDef_180.png"" style= ""width:200px""alt=""img"">
                            </div>
                        </div>","33","","0","","","","images/map23_coolwarm_scaleDef_orientDef_180.png","happy","1","23","23","coolwarm","orientDef","scaleDef","180","",""
"","","","","","html-slider-response","74","233258","0.0-68.0","emupg5b0n9","74","NaN","<div style=""width:500px;"">
                            <p style=""font-size:50px; font-weight:bold;""
                            >happy</p>
                            <div style=""width:240px; margin: auto;"">
                                <img src=""images/map05_Greens_scaleDef_orientDef_180.png"" style= ""width:200px""alt=""img"">
                            </div>
                        </div>","60","","0","","","","images/map05_Greens_scaleDef_orientDef_180.png","happy","1","05","05","Greens","orientDef","scaleDef","180","",""
"","","","","","html-slider-response","75","235226","0.0-69.0","emupg5b0n9","74","NaN","<div style=""width:500px;"">
                            <p style=""font-size:50px; font-weight:bold;""
                            >happy</p>
                            <div style=""width:240px; margin: auto;"">
                                <img src=""images/map13_PiYG_scaleRev_orientDef_090.png"" style= ""width:200px""alt=""img"">
                            </div>
                        </div>","30","","0","","","","images/map13_PiYG_scaleRev_orientDef_090.png","happy","1","13","13","PiYG","orientDef","scaleRev","090","",""
"","","","","","html-slider-response","76","237206","0.0-70.0","emupg5b0n9","74","NaN","<div style=""width:500px;"">
                            <p style=""font-size:50px; font-weight:bold;""
                            >happy</p>
                            <div style=""width:240px; margin: auto;"">
                                <img src=""images/map07_OrRd_scaleRev_orientMir_090.png"" style= ""width:200px""alt=""img"">
                            </div>
                        </div>","-49","","0","","","","images/map07_OrRd_scaleRev_orientMir_090.png","happy","1","07","07","OrRd","orientMir","scaleRev","090","",""
"","","","","","html-slider-response","77","238973","0.0-71.0","emupg5b0n9","74","NaN","<div style=""width:500px;"">
                            <p style=""font-size:50px; font-weight:bold;""
                            >happy</p>
                            <div style=""width:240px; margin: auto;"">
                                <img src=""images/map05_Reds_scaleDef_orientMir_180.png"" style= ""width:200px""alt=""img"">
                            </div>
                        </div>","-59","","0","","","","images/map05_Reds_scaleDef_orientMir_180.png","happy","1","05","05","Reds","orientMir","scaleDef","180","",""
"","","","","","html-slider-response","78","240858","0.0-72.0","emupg5b0n9","74","NaN","<div style=""width:500px;"">
                            <p style=""font-size:50px; font-weight:bold;""
                            >happy</p>
                            <div style=""width:240px; margin: auto;"">
                                <img src=""images/map10_BuPu_scaleDef_orientDef_180.png"" style= ""width:200px""alt=""img"">
                            </div>
                        </div>","70","","0","","","","images/map10_BuPu_scaleDef_orientDef_180.png","happy","1","10","10","BuPu","orientDef","scaleDef","180","",""
"","","","","","html-slider-response","79","242957","0.0-73.0","emupg5b0n9","74","NaN","<div style=""width:500px;"">
                            <p style=""font-size:50px; font-weight:bold;""
                            >happy</p>
                            <div style=""width:240px; margin: auto;"">
                                <img src=""images/map26_gist_earth_scaleRev_orientMir_270.png"" style= ""width:200px""alt=""img"">
                            </div>
                        </div>","-47","","0","","","","images/map26_gist_earth_scaleRev_orientMir_270.png","happy","1","26","26","gist","scaleRev","earth","orientMir","",""
"","","","","","html-slider-response","80","245223","0.0-74.0","emupg5b0n9","74","NaN","<div style=""width:500px;"">
                            <p style=""font-size:50px; font-weight:bold;""
                            >happy</p>
                            <div style=""width:240px; margin: auto;"">
                                <img src=""images/map13_PuOr_scaleDef_orientMir_180.png"" style= ""width:200px""alt=""img"">
                            </div>
                        </div>","20","","0","","","","images/map13_PuOr_scaleDef_orientMir_180.png","happy","1","13","13","PuOr","orientMir","scaleDef","180","",""
"","","","","","html-slider-response","81","246957","0.0-75.0","emupg5b0n9","74","NaN","<div style=""width:500px;"">
                            <p style=""font-size:50px; font-weight:bold;""
                            >happy</p>
                            <div style=""width:240px; margin: auto;"">
                                <img src=""images/map02_cividis_scaleDef_orientDef_180.png"" style= ""width:200px""alt=""img"">
                            </div>
                        </div>","16","","0","","","","images/map02_cividis_scaleDef_orientDef_180.png","happy","1","02","02","cividis","orientDef","scaleDef","180","",""
"","","","","","html-slider-response","82","248741","0.0-76.0","emupg5b0n9","74","NaN","<div style=""width:500px;"">
                            <p style=""font-size:50px; font-weight:bold;""
                            >happy</p>
                            <div style=""width:240px; margin: auto;"">
                                <img src=""images/map02_Greys_scaleRev_orientMir_090.png"" style= ""width:200px""alt=""img"">
                            </div>
                        </div>","-142","","0","","","","images/map02_Greys_scaleRev_orientMir_090.png","happy","1","02","02","Greys","orientMir","scaleRev","090","",""
"","","","","","html-slider-response","83","250973","0.0-77.0","emupg5b0n9","74","NaN","<div style=""width:500px;"">
                            <p style=""font-size:50px; font-weight:bold;""
                            >happy</p>
                            <div style=""width:240px; margin: auto;"">
                                <img src=""images/map26_berlin_scaleDef_orientDef_000.png"" style= ""width:200px""alt=""img"">
                            </div>
                        </div>","-45","","0","","","","images/map26_berlin_scaleDef_orientDef_000.png","happy","1","26","26","berlin","orientDef","scaleDef","000","",""
"","","","","","html-slider-response","84","252574","0.0-78.0","emupg5b0n9","74","NaN","<div style=""width:500px;"">
                            <p style=""font-size:50px; font-weight:bold;""
                            >happy</p>
                            <div style=""width:240px; margin: auto;"">
                                <img src=""images/map10_RdPu_scaleRev_orientDef_090.png"" style= ""width:200px""alt=""img"">
                            </div>
                        </div>","138","","0","","","","images/map10_RdPu_scaleRev_orientDef_090.png","happy","1","10","10","RdPu","orientDef","scaleRev","090","",""
"","","","","","html-slider-response","85","254423","0.0-79.0","emupg5b0n9","74","NaN","<div style=""width:500px;"">
                            <p style=""font-size:50px; font-weight:bold;""
                            >happy</p>
                            <div style=""width:240px; margin: auto;"">
                                <img src=""images/map12_YlGn_scaleRev_orientMir_270.png"" style= ""width:200px""alt=""img"">
                            </div>
                        </div>","74","","0","","","","images/map12_YlGn_scaleRev_orientMir_270.png","happy","1","12","12","YlGn","orientMir","scaleRev","270","",""
"","","","","","html-slider-response","86","255959","0.0-80.0","emupg5b0n9","74","NaN","<div style=""width:500px;"">
                            <p style=""font-size:50px; font-weight:bold;""
                            >happy</p>
                            <div style=""width:240px; margin: auto;"">
                                <img src=""images/map27_viridis_scaleRev_orientDef_270.png"" style= ""width:200px""alt=""img"">
                            </div>
                        </div>","45","","0","","","","images/map27_viridis_scaleRev_orientDef_270.png","happy","1","27","27","viridis","orientDef","scaleRev","270","",""
"","","","","","html-slider-response","87","258489","0.0-81.0","emupg5b0n9","74","NaN","<div style=""width:500px;"">
                            <p style=""font-size:50px; font-weight:bold;""
                            >happy</p>
                            <div style=""width:240px; margin: auto;"">
                                <img src=""images/map15_RdYlBu_scaleRev_orientMir_090.png"" style= ""width:200px""alt=""img"">
                            </div>
                        </div>","20","","0","","","","images/map15_RdYlBu_scaleRev_orientMir_090.png","happy","1","15","15","RdYlBu","orientMir","scaleRev","090","",""
"","","","","","html-slider-response","88","260408","0.0-82.0","emupg5b0n9","74","NaN","<div style=""width:500px;"">
                            <p style=""font-size:50px; font-weight:bold;""
                            >happy</p>
                            <div style=""width:240px; margin: auto;"">
                                <img src=""images/map02_magma_scaleRev_orientDef_090.png"" style= ""width:200px""alt=""img"">
                            </div>
                        </div>","92","","0","","","","images/map02_magma_scaleRev_orientDef_090.png","happy","1","02","02","magma","orientDef","scaleRev","090","",""
"","","","","","html-slider-response","89","262424","0.0-83.0","emupg5b0n9","74","NaN","<div style=""width:500px;"">
                            <p style=""font-size:50px; font-weight:bold;""
                            >happy</p>
                            <div style=""width:240px; margin: auto;"">
                                <img src=""images/map23_bwr_scaleRev_orientMir_090.png"" style= ""width:200px""alt=""img"">
                            </div>
                        </div>","35","","0","","","","images/map23_bwr_scaleRev_orientMir_090.png","happy","1","23","23","bwr","orientMir","scaleRev","090","",""
"","","","","","html-slider-response","90","264108","0.0-84.0","emupg5b0n9","74","NaN","<div style=""width:500px;"">
                            <p style=""font-size:50px; font-weight:bold;""
                            >happy</p>
                            <div style=""width:240px; margin: auto;"">
                                <img src=""images/map13_PRGn_scaleDef_orientDef_180.png"" style= ""width:200px""alt=""img"">
                            </div>
                        </div>","24","","0","","","","images/map13_PRGn_scaleDef_orientDef_180.png","happy","1","13","13","PRGn","orientDef","scaleDef","180","",""
"","","","","","html-slider-response","91","265857","0.0-85.0","emupg5b0n9","74","NaN","<div style=""width:500px;"">
                            <p style=""font-size:50px; font-weight:bold;""
                            >happy</p>
                            <div style=""width:240px; margin: auto;"">
                                <img src=""images/map26_managua_scaleRev_orientDef_270.png"" style= ""width:200px""alt=""img"">
                            </div>
                        </div>","34","","0","","","","images/map26_managua_scaleRev_orientDef_270.png","happy","1","26","26","managua","orientDef","scaleRev","270","",""
"","","","","","html-slider-response","92","267360","0.0-86.0","emupg5b0n9","74","NaN","<div style=""width:500px;"">
                            <p style=""font-size:50px; font-weight:bold;""
                            >happy</p>
                            <div style=""width:240px; margin: auto;"">
                                <img src=""images/map07_PuRd_scaleDef_orientMir_180.png"" style= ""width:200px""alt=""img"">
                            </div>
                        </div>","129","","0","","","","images/map07_PuRd_scaleDef_orientMir_180.png","happy","1","07","07","PuRd","orientMir","scaleDef","180","",""
"","","","","","html-slider-response","93","269577","0.0-87.0","emupg5b0n9","74","NaN","<div style=""width:500px;"">
                            <p style=""font-size:50px; font-weight:bold;""
                            >happy</p>
                            <div style=""width:240px; margin: auto;"">
                                <img src=""images/map10_GnBu_scaleRev_orientMir_090.png"" style= ""width:200px""alt=""img"">
                            </div>
                        </div>","149","","0","","","","images/map10_GnBu_scaleRev_orientMir_090.png","happy","1","10","10","GnBu","orientMir","scaleRev","090","",""
"","","","","","html-slider-response","94","271391","0.0-88.0","emupg5b0n9","74","NaN","<div style=""width:500px;"">
                            <p style=""font-size:50px; font-weight:bold;""
                            >happy</p>
                            <div style=""width:240px; margin: auto;"">
                                <img src=""images/map27_inferno_scaleRev_orientMir_270.png"" style= ""width:200px""alt=""img"">
                            </div>
                        </div>","34","","0","","","","images/map27_inferno_scaleRev_orientMir_270.png","happy","1","27","27","inferno","orientMir","scaleRev","270","",""
"","","","","","html-slider-response","95","273557","0.0-89.0","emupg5b0n9","74","NaN","<div style=""width:500px;"">
                            <p style=""font-size:50px; font-weight:bold;""
                            >happy</p>
                            <div style=""width:240px; margin: auto;"">
                                <img src=""images/map12_BuGn_scaleRev_orientMir_090.png"" style= ""width:200px""alt=""img"">
                            </div>
                        </div>","64","","0","","","","images/map12_BuGn_scaleRev_orientMir_090.png","happy","1","12","12","BuGn","orientMir","scaleRev","090","",""
"","","","","","html-slider-response","96","275407","0.0-90.0","emupg5b0n9","74","NaN","<div style=""width:500px;"">
                            <p style=""font-size:50px; font-weight:bold;""
                            >happy</p>
                            <div style=""width:240px; margin: auto;"">
                                <img src=""images/map13_BrBG_scaleDef_orientMir_000.png"" style= ""width:200px""alt=""img"">
                            </div>
                        </div>","-34","","0","","","","images/map13_BrBG_scaleDef_orientMir_000.png","happy","1","13","13","BrBG","orientMir","scaleDef","000","",""
"","","","","","html-slider-response","97","277025","0.0-91.0","emupg5b0n9","74","NaN","<div style=""width:500px;"">
                            <p style=""font-size:50px; font-weight:bold;""
                            >happy</p>
                            <div style=""width:240px; margin: auto;"">
                                <img src=""images/map26_vanimo_scaleDef_orientMir_000.png"" style= ""width:200px""alt=""img"">
                            </div>
                        </div>","44","","0","","","","images/map26_vanimo_scaleDef_orientMir_000.png","happy","1","26","26","vanimo","orientMir","scaleDef","000","",""
"","","","","","html-slider-response","98","280090","0.0-92.0","emupg5b0n9","74","NaN","<div style=""width:500px;"">
                            <p style=""font-size:50px; font-weight:bold;""
                            >happy</p>
                            <div style=""width:240px; margin: auto;"">
                                <img src=""images/map26_managua_scaleDef_orientDef_180.png"" style= ""width:200px""alt=""img"">
                            </div>
                        </div>","50","","0","","","","images/map26_managua_scaleDef_orientDef_180.png","happy","1","26","26","managua","orientDef","scaleDef","180","",""
"","","","","","html-slider-response","99","281407","0.0-93.0","emupg5b0n9","74","NaN","<div style=""width:500px;"">
                            <p style=""font-size:50px; font-weight:bold;""
                            >happy</p>
                            <div style=""width:240px; margin: auto;"">
                                <img src=""images/map26_berlin_scaleRev_orientDef_090.png"" style= ""width:200px""alt=""img"">
                            </div>
                        </div>","6","","0","","","","images/map26_berlin_scaleRev_orientDef_090.png","happy","1","26","26","berlin","orientDef","scaleRev","090","",""
"","","","","","html-slider-response","100","283392","0.0-94.0","emupg5b0n9","74","NaN","<div style=""width:500px;"">
                            <p style=""font-size:50px; font-weight:bold;""
                            >happy</p>
                            <div style=""width:240px; margin: auto;"">
                                <img src=""images/map10_GnBu_scaleDef_orientMir_000.png"" style= ""width:200px""alt=""img"">
                            </div>
                        </div>","128","","0","","","","images/map10_GnBu_scaleDef_orientMir_000.png","happy","1","10","10","GnBu","orientMir","scaleDef","000","",""
"","","","","","html-button-response","101","285013","0.0-95.0","emupg5b0n9","74","1119","<p>Great Job! You've finished block 1.<br></br> You have 4 block(s) left to go.<br></br></p>","0","","","","","","","","","","","","","","","",""
"","","","","","html-button-response","102","287647","0.0-96.0","emupg5b0n9","74","2633","<p>In this block of trials, you will be asked to rate how much you associate each map with:</p > <p style = 'font-size:150%; font-weight: bold'>fearful</p><br></br>","0","","","","","","","","","","","","","","","",""
"","","","","","html-slider-response","103","290108","0.0-97.0","emupg5b0n9","74","NaN","<div style=""width:500px;"">
                            <p style=""font-size:50px; font-weight:bold;""
                            >fearful</p>
                            <div style=""width:240px; margin: auto;"">
                                <img src=""images/map13_BrBG_scaleRev_orientMir_090.png"" style= ""width:200px""alt=""img"">
                            </div>
                        </div>","-82","","0","","","","images/map13_BrBG_scaleRev_orientMir_090.png","fearful","1","13","13","BrBG","orientMir","scaleRev","090","",""
"","","","","","html-slider-response","104","293099","0.0-98.0","emupg5b0n9","74","NaN","<div style=""width:500px;"">
                            <p style=""font-size:50px; font-weight:bold;""
                            >fearful</p>
                            <div style=""width:240px; margin: auto;"">
                                <img src=""images/map02_Greys_scaleRev_orientMir_090.png"" style= ""width:200px""alt=""img"">
                            </div>
                        </div>","106","","0","","","","images/map02_Greys_scaleRev_orientMir_090.png","fearful","1","02","02","Greys","orientMir","scaleRev","090","",""
"","","","","","html-slider-response","105","295473","0.0-99.0","emupg5b0n9","74","NaN","<div style=""width:500px;"">
                            <p style=""font-size:50px; font-weight:bold;""
                            >fearful</p>
                            <div style=""width:240px; margin: auto;"">
                                <img src=""images/map26_vanimo_scaleRev_orientMir_090.png"" style= ""width:200px""alt=""img"">
                            </div>
                        </div>","-56","","0","","","","images/map26_vanimo_scaleRev_orientMir_090.png","fearful","1","26","26","vanimo","orientMir","scaleRev","090","",""
"","","","","","html-slider-response","106","297675","0.0-100.0","emupg5b0n9","74","NaN","<div style=""width:500px;"">
                            <p style=""font-size:50px; font-weight:bold;""
                            >fearful</p>
                            <div style=""width:240px; margin: auto;"">
                                <img src=""images/map10_GnBu_scaleRev_orientMir_090.png"" style= ""width:200px""alt=""img"">
                            </div>
                        </div>","-162","","0","","","","images/map10_GnBu_scaleRev_orientMir_090.png","fearful","1","10","10","GnBu","orientMir","scaleRev","090","",""
"","","","","","html-slider-response","107","300227","0.0-101.0","emupg5b0n9","74","NaN","<div style=""width:500px;"">
                            <p style=""font-size:50px; font-weight:bold;""
                            >fearful</p>
                            <div style=""width:240px; margin: auto;"">
                                <img src=""images/map07_YlOrBr_scaleDef_orientDef_000.png"" style= ""width:200px""alt=""img"">
                            </div>
                        </div>","-82","","0","","","","images/map07_YlOrBr_scaleDef_orientDef_000.png","fearful","1","07","07","YlOrBr","orientDef","scaleDef","000","",""
"","","","","","html-slider-response","108","302159","0.0-102.0","emupg5b0n9","74","NaN","<div style=""width:500px;"">
                            <p style=""font-size:50px; font-weight:bold;""
                            >fearful</p>
                            <div style=""width:240px; margin: auto;"">
                                <img src=""images/map27_viridis_scaleRev_orientDef_270.png"" style= ""width:200px""alt=""img"">
                            </div>
                        </div>","38","","0","","","","images/map27_viridis_scaleRev_orientDef_270.png","fearful","1","27","27","viridis","orientDef","scaleRev","270","",""
"","","","","","html-slider-response","109","303857","0.0-103.0","emupg5b0n9","74","NaN","<div style=""width:500px;"">
                            <p style=""font-size:50px; font-weight:bold;""
                            >fearful</p>
                            <div style=""width:240px; margin: auto;"">
                                <img src=""images/map26_managua_scaleDef_orientDef_180.png"" style= ""width:200px""alt=""img"">
                            </div>
                        </div>","20","","0","","","","images/map26_managua_scaleDef_orientDef_180.png","fearful","1","26","26","managua","orientDef","scaleDef","180","",""
"","","","","","html-slider-response","110","306008","0.0-104.0","emupg5b0n9","74","NaN","<div style=""width:500px;"">
                            <p style=""font-size:50px; font-weight:bold;""
                            >fearful</p>
                            <div style=""width:240px; margin: auto;"">
                                <img src=""images/map02_magma_scaleDef_orientDef_000.png"" style= ""width:200px""alt=""img"">
                            </div>
                        </div>","-111","","0","","","","images/map02_magma_scaleDef_orientDef_000.png","fearful","1","02","02","magma","orientDef","scaleDef","000","",""
"","","","","","html-slider-response","111","307660","0.0-105.0","emupg5b0n9","74","NaN","<div style=""width:500px;"">
                            <p style=""font-size:50px; font-weight:bold;""
                            >fearful</p>
                            <div style=""width:240px; margin: auto;"">
                                <img src=""images/map10_BuPu_scaleDef_orientDef_180.png"" style= ""width:200px""alt=""img"">
                            </div>
                        </div>","-50","","0","","","","images/map10_BuPu_scaleDef_orientDef_180.png","fearful","1","10","10","BuPu","orientDef","scaleDef","180","",""
"","","","","","html-slider-response","112","309259","0.0-106.0","emupg5b0n9","74","NaN","<div style=""width:500px;"">
                            <p style=""font-size:50px; font-weight:bold;""
                            >fearful</p>
                            <div style=""width:240px; margin: auto;"">
                                <img src=""images/map10_GnBu_scaleDef_orientMir_000.png"" style= ""width:200px""alt=""img"">
                            </div>
                        </div>","-118","","0","","","","images/map10_GnBu_scaleDef_orientMir_000.png","fearful","1","10","10","GnBu","orientMir","scaleDef","000","",""
"","","","","","html-slider-response","113","311258","0.0-107.0","emupg5b0n9","74","NaN","<div style=""width:500px;"">
                            <p style=""font-size:50px; font-weight:bold;""
                            >fearful</p>
                            <div style=""width:240px; margin: auto;"">
                                <img src=""images/map05_Oranges_scaleRev_orientMir_090.png"" style= ""width:200px""alt=""img"">
                            </div>
                        </div>","-47","","0","","","","images/map05_Oranges_scaleRev_orientMir_090.png","fearful","1","05","05","Oranges","orientMir","scaleRev","090","",""
"","","","","","html-slider-response","114","312975","0.0-108.0","emupg5b0n9","74","NaN","<div style=""width:500px;"">
                            <p style=""font-size:50px; font-weight:bold;""
                            >fearful</p>
                            <div style=""width:240px; margin: auto;"">
                                <img src=""images/map26_managua_scaleRev_orientDef_270.png"" style= ""width:200px""alt=""img"">
                            </div>
                        </div>","32","","0","","","","images/map26_managua_scaleRev_orientDef_270.png","fearful","1","26","26","managua","orientDef","scaleRev","270","",""
"","","","","","html-slider-response","115","314473","0.0-109.0","emupg5b0n9","74","NaN","<div style=""width:500px;"">
                            <p style=""font-size:50px; font-weight:bold;""
                            >fearful</p>
                            <div style=""width:240px; margin: auto;"">
                                <img src=""images/map12_YlGn_scaleDef_orientMir_180.png"" style= ""width:200px""alt=""img"">
                            </div>
                        </div>","-59","","0","","","","images/map12_YlGn_scaleDef_orientMir_180.png","fearful","1","12","12","YlGn","orientMir","scaleDef","180","",""
"","","","","","html-slider-response","116","316207","0.0-110.0","emupg5b0n9","74","NaN","<div style=""width:500px;"">
                            <p style=""font-size:50px; font-weight:bold;""
                            >fearful</p>
                            <div style=""width:240px; margin: auto;"">
                                <img src=""images/map05_Reds_scaleDef_orientMir_180.png"" style= ""width:200px""alt=""img"">
                            </div>
                        </div>","64","","0","","","","images/map05_Reds_scaleDef_orientMir_180.png","fearful","1","05","05","Reds","orientMir","scaleDef","180","",""
"","","","","","html-slider-response","117","318227","0.0-111.0","emupg5b0n9","74","NaN","<div style=""width:500px;"">
                            <p style=""font-size:50px; font-weight:bold;""
                            >fearful</p>
                            <div style=""width:240px; margin: auto;"">
                                <img src=""images/map02_Greys_scaleDef_orientMir_000.png"" style= ""width:200px""alt=""img"">
                            </div>
                        </div>","141","","0","","","","images/map02_Greys_scaleDef_orientMir_000.png","fearful","1","02","02","Greys","orientMir","scaleDef","000","",""
"","","","","","html-slider-response","118","319891","0.0-112.0","emupg5b0n9","74","NaN","<div style=""width:500px;"">
                            <p style=""font-size:50px; font-weight:bold;""
                            >fearful</p>
                            <div style=""width:240px; margin: auto;"">
                                <img src=""images/map12_PuBuGn_scaleDef_orientDef_180.png"" style= ""width:200px""alt=""img"">
                            </div>
                        </div>","-68","","0","","","","images/map12_PuBuGn_scaleDef_orientDef_180.png","fearful","1","12","12","PuBuGn","orientDef","scaleDef","180","",""
"","","","","","html-slider-response","119","321524","0.0-113.0","emupg5b0n9","74","NaN","<div style=""width:500px;"">
                            <p style=""font-size:50px; font-weight:bold;""
                            >fearful</p>
                            <div style=""width:240px; margin: auto;"">
                                <img src=""images/map02_Purples_scaleRev_orientMir_270.png"" style= ""width:200px""alt=""img"">
                            </div>
                        </div>","38","","0","","","","images/map02_Purples_scaleRev_orientMir_270.png","fearful","1","02","02","Purples","orientMir","scaleRev","270","",""
"","","","","","html-slider-response","120","322942","0.0-114.0","emupg5b0n9","74","NaN","<div style=""width:500px;"">
                            <p style=""font-size:50px; font-weight:bold;""
                            >fearful</p>
                            <div style=""width:240px; margin: auto;"">
                                <img src=""images/map05_Greens_scaleDef_orientDef_180.png"" style= ""width:200px""alt=""img"">
                            </div>
                        </div>","-65","","0","","","","images/map05_Greens_scaleDef_orientDef_180.png","fearful","1","05","05","Greens","orientDef","scaleDef","180","",""
"","","","","","html-slider-response","121","324691","0.0-115.0","emupg5b0n9","74","NaN","<div style=""width:500px;"">
                            <p style=""font-size:50px; font-weight:bold;""
                            >fearful</p>
                            <div style=""width:240px; margin: auto;"">
                                <img src=""images/map23_Spectral_scaleDef_orientDef_000.png"" style= ""width:200px""alt=""img"">
                            </div>
                        </div>","34","","0","","","","images/map23_Spectral_scaleDef_orientDef_000.png","fearful","1","23","23","Spectral","orientDef","scaleDef","000","",""
"","","","","","html-slider-response","122","326208","0.0-116.0","emupg5b0n9","74","NaN","<div style=""width:500px;"">
                            <p style=""font-size:50px; font-weight:bold;""
                            >fearful</p>
                            <div style=""width:240px; margin: auto;"">
                                <img src=""images/map07_OrRd_scaleDef_orientMir_000.png"" style= ""width:200px""alt=""img"">
                            </div>
                        </div>","54","","0","","","","images/map07_OrRd_scaleDef_orientMir_000.png","fearful","1","07","07","OrRd","orientMir","scaleDef","000","",""
"","","","","","html-slider-response","123","327907","0.0-117.0","emupg5b0n9","74","NaN","<div style=""width:500px;"">
                            <p style=""font-size:50px; font-weight:bold;""
                            >fearful</p>
                            <div style=""width:240px; margin: auto;"">
                                <img src=""images/map15_RdYlGn_scaleRev_orientMir_270.png"" style= ""width:200px""alt=""img"">
                            </div>
                        </div>","-51","","0","","","","images/map15_RdYlGn_scaleRev_orientMir_270.png","fearful","1","15","15","RdYlGn","orientMir","scaleRev","270","",""
"","","","","","html-slider-response","124","329408","0.0-118.0","emupg5b0n9","74","NaN","<div style=""width:500px;"">
                            <p style=""font-size:50px; font-weight:bold;""
                            >fearful</p>
                            <div style=""width:240px; margin: auto;"">
                                <img src=""images/map13_PuOr_scaleDef_orientMir_180.png"" style= ""width:200px""alt=""img"">
                            </div>
                        </div>","-43","","0","","","","images/map13_PuOr_scaleDef_orientMir_180.png","fearful","1","13","13","PuOr","orientMir","scaleDef","180","",""
"","","","","","html-slider-response","125","330892","0.0-119.0","emupg5b0n9","74","NaN","<div style=""width:500px;"">
                            <p style=""font-size:50px; font-weight:bold;""
                            >fearful</p>
                            <div style=""width:240px; margin: auto;"">
                                <img src=""images/map13_PRGn_scaleRev_orientDef_270.png"" style= ""width:200px""alt=""img"">
                            </div>
                        </div>","-52","","0","","","","images/map13_PRGn_scaleRev_orientDef_270.png","fearful","1","13","13","PRGn","orientDef","scaleRev","270","",""
"","","","","","html-slider-response","126","332706","0.0-120.0","emupg5b0n9","74","NaN","<div style=""width:500px;"">
                            <p style=""font-size:50px; font-weight:bold;""
                            >fearful</p>
                            <div style=""width:240px; margin: auto;"">
                                <img src=""images/map27_inferno_scaleDef_orientMir_180.png"" style= ""width:200px""alt=""img"">
                            </div>
                        </div>","-84","","0","","","","images/map27_inferno_scaleDef_orientMir_180.png","fearful","1","27","27","inferno","orientMir","scaleDef","180","",""
"","","","","","html-slider-response","127","334341","0.0-121.0","emupg5b0n9","74","NaN","<div style=""width:500px;"">
                            <p style=""font-size:50px; font-weight:bold;""
                            >fearful</p>
                            <div style=""width:240px; margin: auto;"">
                                <img src=""images/map13_PiYG_scaleRev_orientDef_090.png"" style= ""width:200px""alt=""img"">
                            </div>
                        </div>","-50","","0","","","","images/map13_PiYG_scaleRev_orientDef_090.png","fearful","1","13","13","PiYG","orientDef","scaleRev","090","",""
"","","","","","html-slider-response","128","336124","0.0-122.0","emupg5b0n9","74","NaN","<div style=""width:500px;"">
                            <p style=""font-size:50px; font-weight:bold;""
                            >fearful</p>
                            <div style=""width:240px; margin: auto;"">
                                <img src=""images/map07_YlOrRd_scaleRev_orientDef_270.png"" style= ""width:200px""alt=""img"">
                            </div>
                        </div>","118","","0","","","","images/map07_YlOrRd_scaleRev_orientDef_270.png","fearful","1","07","07","YlOrRd","orientDef","scaleRev","270","",""
"","","","","","html-slider-response","129","337624","0.0-123.0","emupg5b0n9","74","NaN","<div style=""width:500px;"">
                            <p style=""font-size:50px; font-weight:bold;""
                            >fearful</p>
                            <div style=""width:240px; margin: auto;"">
                                <img src=""images/map12_YlGnBu_scaleRev_orientDef_090.png"" style= ""width:200px""alt=""img"">
                            </div>
                        </div>","-108","","0","","","","images/map12_YlGnBu_scaleRev_orientDef_090.png","fearful","1","12","12","YlGnBu","orientDef","scaleRev","090","",""
"","","","","","html-slider-response","130","339259","0.0-124.0","emupg5b0n9","74","NaN","<div style=""width:500px;"">
                            <p style=""font-size:50px; font-weight:bold;""
                            >fearful</p>
                            <div style=""width:240px; margin: auto;"">
                                <img src=""images/map23_bwr_scaleDef_orientMir_000.png"" style= ""width:200px""alt=""img"">
                            </div>
                        </div>","-54","","0","","","","images/map23_bwr_scaleDef_orientMir_000.png","fearful","1","23","23","bwr","orientMir","scaleDef","000","",""
"","","","","","html-slider-response","131","341075","0.0-125.0","emupg5b0n9","74","NaN","<div style=""width:500px;"">
                            <p style=""font-size:50px; font-weight:bold;""
                            >fearful</p>
                            <div style=""width:240px; margin: auto;"">
                                <img src=""images/map13_BrBG_scaleDef_orientMir_000.png"" style= ""width:200px""alt=""img"">
                            </div>
                        </div>","-33","","0","","","","images/map13_BrBG_scaleDef_orientMir_000.png","fearful","1","13","13","BrBG","orientMir","scaleDef","000","",""
"","","","","","html-slider-response","132","342858","0.0-126.0","emupg5b0n9","74","NaN","<div style=""width:500px;"">
                            <p style=""font-size:50px; font-weight:bold;""
                            >fearful</p>
                            <div style=""width:240px; margin: auto;"">
                                <img src=""images/map10_PuBu_scaleRev_orientMir_270.png"" style= ""width:200px""alt=""img"">
                            </div>
                        </div>","-112","","0","","","","images/map10_PuBu_scaleRev_orientMir_270.png","fearful","1","10","10","PuBu","orientMir","scaleRev","270","",""
"","","","","","html-slider-response","133","344659","0.0-127.0","emupg5b0n9","74","NaN","<div style=""width:500px;"">
                            <p style=""font-size:50px; font-weight:bold;""
                            >fearful</p>
                            <div style=""width:240px; margin: auto;"">
                                <img src=""images/map10_PuBu_scaleDef_orientMir_180.png"" style= ""width:200px""alt=""img"">
                            </div>
                        </div>","-110","","0","","","","images/map10_PuBu_scaleDef_orientMir_180.png","fearful","1","10","10","PuBu","orientMir","scaleDef","180","",""
"","","","","","html-slider-response","134","346707","0.0-128.0","emupg5b0n9","74","NaN","<div style=""width:500px;"">
                            <p style=""font-size:50px; font-weight:bold;""
                            >fearful</p>
                            <div style=""width:240px; margin: auto;"">
                                <img src=""images/map15_RdGy_scaleRev_orientDef_090.png"" style= ""width:200px""alt=""img"">
                            </div>
                        </div>","110","","0","","","","images/map15_RdGy_scaleRev_orientDef_090.png","fearful","1","15","15","RdGy","orientDef","scaleRev","090","",""
"","","","","","html-slider-response","135","348075","0.0-129.0","emupg5b0n9","74","NaN","<div style=""width:500px;"">
                            <p style=""font-size:50px; font-weight:bold;""
                            >fearful</p>
                            <div style=""width:240px; margin: auto;"">
                                <img src=""images/map10_BuPu_scaleRev_orientDef_270.png"" style= ""width:200px""alt=""img"">
                            </div>
                        </div>","-86","","0","","","","images/map10_BuPu_scaleRev_orientDef_270.png","fearful","1","10","10","BuPu","orientDef","scaleRev","270","",""
"","","","","","html-slider-response","136","350489","0.0-130.0","emupg5b0n9","74","NaN","<div style=""width:500px;"">
                            <p style=""font-size:50px; font-weight:bold;""
                            >fearful</p>
                            <div style=""width:240px; margin: auto;"">
                                <img src=""images/map12_YlGnBu_scaleDef_orientDef_000.png"" style= ""width:200px""alt=""img"">
                            </div>
                        </div>","-146","","0","","","","images/map12_YlGnBu_scaleDef_orientDef_000.png","fearful","1","12","12","YlGnBu","orientDef","scaleDef","000","",""
"","","","","","html-slider-response","137","352428","0.0-131.0","emupg5b0n9","74","NaN","<div style=""width:500px;"">
                            <p style=""font-size:50px; font-weight:bold;""
                            >fearful</p>
                            <div style=""width:240px; margin: auto;"">
                                <img src=""images/map23_coolwarm_scaleRev_orientDef_270.png"" style= ""width:200px""alt=""img"">
                            </div>
                        </div>","-30","","0","","","","images/map23_coolwarm_scaleRev_orientDef_270.png","fearful","1","23","23","coolwarm","orientDef","scaleRev","270","",""
"","","","","","html-slider-response","138","354325","0.0-132.0","emupg5b0n9","74","NaN","<div style=""width:500px;"">
                            <p style=""font-size:50px; font-weight:bold;""
                            >fearful</p>
                            <div style=""width:240px; margin: auto;"">
                                <img src=""images/map05_Oranges_scaleDef_orientMir_000.png"" style= ""width:200px""alt=""img"">
                            </div>
                        </div>","113","","0","","","","images/map05_Oranges_scaleDef_orientMir_000.png","fearful","1","05","05","Oranges","orientMir","scaleDef","000","",""
"","","","","","html-slider-response","139","356123","0.0-133.0","emupg5b0n9","74","NaN","<div style=""width:500px;"">
                            <p style=""font-size:50px; font-weight:bold;""
                            >fearful</p>
                            <div style=""width:240px; margin: auto;"">
                                <img src=""images/map26_berlin_scaleRev_orientDef_090.png"" style= ""width:200px""alt=""img"">
                            </div>
                        </div>","53","","0","","","","images/map26_berlin_scaleRev_orientDef_090.png","fearful","1","26","26","berlin","orientDef","scaleRev","090","",""
"","","","","","html-slider-response","140","357926","0.0-134.0","emupg5b0n9","74","NaN","<div style=""width:500px;"">
                            <p style=""font-size:50px; font-weight:bold;""
                            >fearful</p>
                            <div style=""width:240px; margin: auto;"">
                                <img src=""images/map27_inferno_scaleRev_orientMir_270.png"" style= ""width:200px""alt=""img"">
                            </div>
                        </div>","-100","","0","","","","images/map27_inferno_scaleRev_orientMir_270.png","fearful","1","27","27","inferno","orientMir","scaleRev","270","",""
"","","","","","html-slider-response","141","359407","0.0-135.0","emupg5b0n9","74","NaN","<div style=""width:500px;"">
                            <p style=""font-size:50px; font-weight:bold;""
                            >fearful</p>
                            <div style=""width:240px; margin: auto;"">
                                <img src=""images/map26_vanimo_scaleDef_orientMir_000.png"" style= ""width:200px""alt=""img"">
                            </div>
                        </div>","-63","","0","","","","images/map26_vanimo_scaleDef_orientMir_000.png","fearful","1","26","26","vanimo","orientMir","scaleDef","000","",""
"","","","","","html-slider-response","142","360810","0.0-136.0","emupg5b0n9","74","NaN","<div style=""width:500px;"">
                            <p style=""font-size:50px; font-weight:bold;""
                            >fearful</p>
                            <div style=""width:240px; margin: auto;"">
                                <img src=""images/map12_BuGn_scaleDef_orientMir_000.png"" style= ""width:200px""alt=""img"">
                            </div>
                        </div>","-102","","0","","","","images/map12_BuGn_scaleDef_orientMir_000.png","fearful","1","12","12","BuGn","orientMir","scaleDef","000","",""
"","","","","","html-button-response","143","362530","0.0-137.0","emupg5b0n9","74","1218","<p>You are doing great!<br></br> You are halway done with the current block. When you are ready to continue, click the 'Continue' button.</p>","0","","","","","","","","","","","","","","","",""
"","","","","","html-slider-response","144","363707","0.0-138.0","emupg5b0n9","74","NaN","<div style=""width:500px;"">
                            <p style=""font-size:50px; font-weight:bold;""
                            >fearful</p>
                            <div style=""width:240px; margin: auto;"">
                                <img src=""images/map26_gist_earth_scaleRev_orientMir_270.png"" style= ""width:200px""alt=""img"">
                            </div>
                        </div>","-70","","0","","","","images/map26_gist_earth_scaleRev_orientMir_270.png","fearful","1","26","26","gist","scaleRev","earth","orientMir","",""
"","","","","","html-slider-response","145","365241","0.0-139.0","emupg5b0n9","74","NaN","<div style=""width:500px;"">
                            <p style=""font-size:50px; font-weight:bold;""
                            >fearful</p>
                            <div style=""width:240px; margin: auto;"">
                                <img src=""images/map27_plasma_scaleDef_orientMir_000.png"" style= ""width:200px""alt=""img"">
                            </div>
                        </div>","-109","","0","","","","images/map27_plasma_scaleDef_orientMir_000.png","fearful","1","27","27","plasma","orientMir","scaleDef","000","",""
"","","","","","html-slider-response","146","366792","0.0-140.0","emupg5b0n9","74","NaN","<div style=""width:500px;"">
                            <p style=""font-size:50px; font-weight:bold;""
                            >fearful</p>
                            <div style=""width:240px; margin: auto;"">
                                <img src=""images/map23_seismic_scaleRev_orientMir_270.png"" style= ""width:200px""alt=""img"">
                            </div>
                        </div>","39","","0","","","","images/map23_seismic_scaleRev_orientMir_270.png","fearful","1","23","23","seismic","orientMir","scaleRev","270","",""
"","","","","","html-slider-response","147","368025","0.0-141.0","emupg5b0n9","74","NaN","<div style=""width:500px;"">
                            <p style=""font-size:50px; font-weight:bold;""
                            >fearful</p>
                            <div style=""width:240px; margin: auto;"">
                                <img src=""images/map13_PiYG_scaleDef_orientDef_000.png"" style= ""width:200px""alt=""img"">
                            </div>
                        </div>","-80","","0","","","","images/map13_PiYG_scaleDef_orientDef_000.png","fearful","1","13","13","PiYG","orientDef","scaleDef","000","",""
"","","","","","html-slider-response","148","369676","0.0-142.0","emupg5b0n9","74","NaN","<div style=""width:500px;"">
                            <p style=""font-size:50px; font-weight:bold;""
                            >fearful</p>
                            <div style=""width:240px; margin: auto;"">
                                <img src=""images/map07_OrRd_scaleRev_orientMir_090.png"" style= ""width:200px""alt=""img"">
                            </div>
                        </div>","95","","0","","","","images/map07_OrRd_scaleRev_orientMir_090.png","fearful","1","07","07","OrRd","orientMir","scaleRev","090","",""
"","","","","","html-slider-response","149","371907","0.0-143.0","emupg5b0n9","74","NaN","<div style=""width:500px;"">
                            <p style=""font-size:50px; font-weight:bold;""
                            >fearful</p>
                            <div style=""width:240px; margin: auto;"">
                                <img src=""images/map02_magma_scaleRev_orientDef_090.png"" style= ""width:200px""alt=""img"">
                            </div>
                        </div>","10","","0","","","","images/map02_magma_scaleRev_orientDef_090.png","fearful","1","02","02","magma","orientDef","scaleRev","090","",""
"","","","","","html-slider-response","150","373366","0.0-144.0","emupg5b0n9","74","NaN","<div style=""width:500px;"">
                            <p style=""font-size:50px; font-weight:bold;""
                            >fearful</p>
                            <div style=""width:240px; margin: auto;"">
                                <img src=""images/map05_Blues_scaleRev_orientDef_090.png"" style= ""width:200px""alt=""img"">
                            </div>
                        </div>","-112","","0","","","","images/map05_Blues_scaleRev_orientDef_090.png","fearful","1","05","05","Blues","orientDef","scaleRev","090","",""
"","","","","","html-slider-response","151","375090","0.0-145.0","emupg5b0n9","74","NaN","<div style=""width:500px;"">
                            <p style=""font-size:50px; font-weight:bold;""
                            >fearful</p>
                            <div style=""width:240px; margin: auto;"">
                                <img src=""images/map27_turbo_scaleDef_orientDef_000.png"" style= ""width:200px""alt=""img"">
                            </div>
                        </div>","42","","0","","","","images/map27_turbo_scaleDef_orientDef_000.png","fearful","1","27","27","turbo","orientDef","scaleDef","000","",""
"","","","","","html-slider-response","152","377410","0.0-146.0","emupg5b0n9","74","NaN","<div style=""width:500px;"">
                            <p style=""font-size:50px; font-weight:bold;""
                            >fearful</p>
                            <div style=""width:240px; margin: auto;"">
                                <img src=""images/map15_RdGy_scaleDef_orientDef_000.png"" style= ""width:200px""alt=""img"">
                            </div>
                        </div>","64","","0","","","","images/map15_RdGy_scaleDef_orientDef_000.png","fearful","1","15","15","RdGy","orientDef","scaleDef","000","",""
"","","","","","html-slider-response","153","379926","0.0-147.0","emupg5b0n9","74","NaN","<div style=""width:500px;"">
                            <p style=""font-size:50px; font-weight:bold;""
                            >fearful</p>
                            <div style=""width:240px; margin: auto;"">
                                <img src=""images/map12_BuGn_scaleRev_orientMir_090.png"" style= ""width:200px""alt=""img"">
                            </div>
                        </div>","-61","","0","","","","images/map12_BuGn_scaleRev_orientMir_090.png","fearful","1","12","12","BuGn","orientMir","scaleRev","090","",""
"","","","","","html-slider-response","154","383692","0.0-148.0","emupg5b0n9","74","NaN","<div style=""width:500px;"">
                            <p style=""font-size:50px; font-weight:bold;""
                            >fearful</p>
                            <div style=""width:240px; margin: auto;"">
                                <img src=""images/map13_PRGn_scaleDef_orientDef_180.png"" style= ""width:200px""alt=""img"">
                            </div>
                        </div>","-47","","0","","","","images/map13_PRGn_scaleDef_orientDef_180.png","fearful","1","13","13","PRGn","orientDef","scaleDef","180","",""
"","","","","","html-slider-response","155","385759","0.0-149.0","emupg5b0n9","74","NaN","<div style=""width:500px;"">
                            <p style=""font-size:50px; font-weight:bold;""
                            >fearful</p>
                            <div style=""width:240px; margin: auto;"">
                                <img src=""images/map23_coolwarm_scaleDef_orientDef_180.png"" style= ""width:200px""alt=""img"">
                            </div>
                        </div>","13","","0","","","","images/map23_coolwarm_scaleDef_orientDef_180.png","fearful","1","23","23","coolwarm","orientDef","scaleDef","180","",""
"","","","","","html-slider-response","156","388240","0.0-150.0","emupg5b0n9","74","NaN","<div style=""width:500px;"">
                            <p style=""font-size:50px; font-weight:bold;""
                            >fearful</p>
                            <div style=""width:240px; margin: auto;"">
                                <img src=""images/map07_YlOrBr_scaleRev_orientDef_090.png"" style= ""width:200px""alt=""img"">
                            </div>
                        </div>","-94","","0","","","","images/map07_YlOrBr_scaleRev_orientDef_090.png","fearful","1","07","07","YlOrBr","orientDef","scaleRev","090","",""
"","","","","","html-slider-response","157","390022","0.0-151.0","emupg5b0n9","74","NaN","<div style=""width:500px;"">
                            <p style=""font-size:50px; font-weight:bold;""
                            >fearful</p>
                            <div style=""width:240px; margin: auto;"">
                                <img src=""images/map27_plasma_scaleRev_orientMir_090.png"" style= ""width:200px""alt=""img"">
                            </div>
                        </div>","-94","","0","","","","images/map27_plasma_scaleRev_orientMir_090.png","fearful","1","27","27","plasma","orientMir","scaleRev","090","",""
"","","","","","html-slider-response","158","391708","0.0-152.0","emupg5b0n9","74","NaN","<div style=""width:500px;"">
                            <p style=""font-size:50px; font-weight:bold;""
                            >fearful</p>
                            <div style=""width:240px; margin: auto;"">
                                <img src=""images/map15_RdYlGn_scaleDef_orientMir_180.png"" style= ""width:200px""alt=""img"">
                            </div>
