"success","timeout","failed_images","failed_audio","failed_video","trial_type","trial_index","time_elapsed","internal_node_id","subject_id","condition_num","rt","stimulus","response","question_order","slider_start","practiceTrial","practiceTrialNum","correct","image_path","concept","repetition","map_id","map_num","scale_name","orientation_code","mapping_code","rotation_code","ishihara_plate","correct_response"
"true","false","[]","[]","[]","preload","0","334","0.0-0.0","flxdtjfsp0","46","","","","","","","","","","","","","","","","","","",""
"","","","","","html-button-response","1","1552","0.0-1.0","flxdtjfsp0","46","1216","Welcome to our experiment!<p>At the bottom of this screen, you will see a button that says ""Begin Experiment"".<br>Please only click that button when you are ready to complete the 30 minute experiment in one sitting.</p><p> Once you click that button, it will not be possible to restart the experiment.","0","","","","","","","","","","","","","","","",""
"true","","","","","fullscreen","2","3953","0.0-2.0","flxdtjfsp0","46","1399","","","","","","","","","","","","","","","","","",""
"","","","","","survey-multi-select","3","29719","0.0-3.0","flxdtjfsp0","46","25762","","{""Consent"":[""<strong>I consent</strong>""]}","[0]","","","","","","","","","","","","","","",""
"","","","","","html-button-response","4","31335","0.0-4.0","flxdtjfsp0","46","1615","Welcome! <p> This experiment involves two parts: demographic information, followed by the experimental task.<p> It will take about 30 minutes to complete both parts.","0","","","","","","","","","","","","","","","",""
"","","","","","survey-text","5","42269","0.0-5.0","flxdtjfsp0","46","10926","","{""Age"":""18"",""Gender"":""Female"",""Race/ethnicity"":""Asain"",""Languages"":""English""}","","","","","","","","","","","","","","","",""
"","","","","","html-slider-response","6","62066","0.0-6.0","flxdtjfsp0","46","19795","<div style='text-align:left; font-size:20px; line-height:25px; width: 1000px;'>
                                During this experiment you will be asked to rate how much you associate maps with                    different concepts.<br> Below, you can see some examples of the maps you will be asked to rate. Above the maps
                    is the list of concepts.<br>You will be asked                    to rate how much you associate each map with each concept on a scale from 'not at all' to 'very much' like the
                    one below. <br><br>
                    Now, please look at the list of concepts and maps. For each concept, think about the map you associate 'very
                    much' with the concept.<br>                     When you see that map during the experiment, please rate it near the 'very much' endpoint of the
                    scale.<br>Now, please think about which map you associate 'not at all'                     with each concept. When you see that map during the experiment, please rate it near the 'not at all' endpoint
                    of the scale.<br>
                    Please use the full range of the scale. That is, if a map is somewhat associated with the concept, you would
                    click partway between the middle point and right side of the scale.                    You will be asked to rate each map for a given concept before moving on to the next concept.<br>Press the
                    'Continue' button for instructions on how to use the slider.                    <br>
                </div>

                <div style=""width: 500px; margin: 0 auto;"">
                    <!-- Centered text paragraphs -->
                    <div style=""text-align: center; width: 500px;"">
                        <p style=""font-size:25px; line-height:15px;"">
                            disgust&nbsp;&nbsp;&nbsp;&nbsp;
                            angry&nbsp;&nbsp;&nbsp;&nbsp;
                            fearful&nbsp;&nbsp;&nbsp;&nbsp;
                            happy&nbsp;&nbsp;&nbsp;&nbsp;
                            sad
                        </p>
                        <!-- <p style=""font-size:20px; line-height:15px;"">angry</p>
                        <p style=""font-size:20px;line-height:15px;"">fearful</p>
                        <p style=""font-size:20px;line-height:15px;"">happy</p>
                        <p style=""font-size:20px;line-height:15px;"">sad</p> -->
                    </div>
            

                    <!-- Grid section -->
                   <div style=""display: flex; justify-content: center; padding-top: 15px;"">
                    <div style=""display: grid; grid-template-columns: repeat(10, 55px); grid-gap: 5px; width: auto;"">
                        <img src=""images/map13_turbo_scaleDef_orientMir_000.png"" alt=""map"" style=""width: 100%;""><img src=""images/map23_Purples_scaleDef_orientDef_180.png"" alt=""map"" style=""width: 100%;""><img src=""images/map15_cividis_scaleDef_orientMir_180.png"" alt=""map"" style=""width: 100%;""><img src=""images/map02_PuBu_scaleRev_orientDef_270.png"" alt=""map"" style=""width: 100%;""><img src=""images/map15_plasma_scaleRev_orientDef_090.png"" alt=""map"" style=""width: 100%;""><img src=""images/map26_Oranges_scaleRev_orientDef_090.png"" alt=""map"" style=""width: 100%;""><img src=""images/map13_gist_earth_scaleRev_orientDef_270.png"" alt=""map"" style=""width: 100%;""><img src=""images/map27_PuRd_scaleDef_orientDef_180.png"" alt=""map"" style=""width: 100%;""><img src=""images/map05_BuGn_scaleDef_orientDef_000.png"" alt=""map"" style=""width: 100%;""><img src=""images/map07_BrBG_scaleRev_orientDef_090.png"" alt=""map"" style=""width: 100%;""><img src=""images/map10_RdYlBu_scaleDef_orientDef_000.png"" alt=""map"" style=""width: 100%;""><img src=""images/map13_vanimo_scaleRev_orientDef_090.png"" alt=""map"" style=""width: 100%;""><img src=""images/map12_bwr_scaleDef_orientDef_000.png"" alt=""map"" style=""width: 100%;""><img src=""images/map23_Blues_scaleRev_orientMir_090.png"" alt=""map"" style=""width: 100%;""><img src=""images/map02_PuBuGn_scaleDef_orientMir_180.png"" alt=""map"" style=""width: 100%;""><img src=""images/map23_Greens_scaleDef_orientMir_180.png"" alt=""map"" style=""width: 100%;""><img src=""images/map15_magma_scaleRev_orientMir_090.png"" alt=""map"" style=""width: 100%;""><img src=""images/map10_RdYlGn_scaleRev_orientDef_270.png"" alt=""map"" style=""width: 100%;""><img src=""images/map07_RdBu_scaleRev_orientMir_270.png"" alt=""map"" style=""width: 100%;""><img src=""images/map27_RdPu_scaleDef_orientMir_000.png"" alt=""map"" style=""width: 100%;""><img src=""images/map05_YlGn_scaleRev_orientDef_270.png"" alt=""map"" style=""width: 100%;""><img src=""images/map02_YlGnBu_scaleDef_orientMir_000.png"" alt=""map"" style=""width: 100%;""><img src=""images/map02_GnBu_scaleRev_orientDef_090.png"" alt=""map"" style=""width: 100%;""><img src=""images/map26_Reds_scaleDef_orientDef_180.png"" alt=""map"" style=""width: 100%;""><img src=""images/map07_RdGy_scaleDef_orientMir_000.png"" alt=""map"" style=""width: 100%;""><img src=""images/map13_viridis_scaleRev_orientMir_270.png"" alt=""map"" style=""width: 100%;""><img src=""images/map07_PuOr_scaleRev_orientDef_270.png"" alt=""map"" style=""width: 100%;""><img src=""images/map10_coolwarm_scaleDef_orientMir_180.png"" alt=""map"" style=""width: 100%;""><img src=""images/map12_seismic_scaleRev_orientDef_270.png"" alt=""map"" style=""width: 100%;""><img src=""images/map10_Spectral_scaleRev_orientMir_090.png"" alt=""map"" style=""width: 100%;""><img src=""images/map23_Greys_scaleDef_orientDef_000.png"" alt=""map"" style=""width: 100%;""><img src=""images/map05_PiYG_scaleRev_orientMir_090.png"" alt=""map"" style=""width: 100%;""><img src=""images/map27_OrRd_scaleRev_orientDef_090.png"" alt=""map"" style=""width: 100%;""><img src=""images/map05_PRGn_scaleRev_orientMir_270.png"" alt=""map"" style=""width: 100%;""><img src=""images/map12_berlin_scaleRev_orientMir_090.png"" alt=""map"" style=""width: 100%;""><img src=""images/map15_inferno_scaleDef_orientDef_180.png"" alt=""map"" style=""width: 100%;""><img src=""images/map26_YlOrBr_scaleRev_orientMir_090.png"" alt=""map"" style=""width: 100%;""><img src=""images/map12_managua_scaleDef_orientMir_180.png"" alt=""map"" style=""width: 100%;""><img src=""images/map26_YlOrRd_scaleDef_orientMir_180.png"" alt=""map"" style=""width: 100%;""><img src=""images/map27_BuPu_scaleRev_orientMir_270.png"" alt=""map"" style=""width: 100%;"">
                    </div>
                </div>

                    <!-- Clear floats -->
                    <div style=""clear: both;""></div>
                </div>
                            ","null","","0","true","","","","","","","","","","","","",""
"","","","","","html-button-response","7","64367","0.0-7.0","flxdtjfsp0","46","2300","<div style=""width:800px;""><p style=""text-align:left"">To move the slider, click and drag your cursor to the location of the scale where you would like to make your rating and then let go. When you let go of the slider, your response will be recorded and the next trial will begin. <br>
                    We are interested in your initial impressions of each map for the given concept, so please go with your first intuition. <br>
                    Before you begin the experiment, there will be four training trials for you to practice using the scale. <br>
                     When you are ready to start the training trials, please click ""Continue"".</p><br></div>","0","","","","","","","","","","","","","","","",""
"","","","","","html-slider-response","8","67246","0.0-8.0-0.0","flxdtjfsp0","46","NaN","<div style=""width:500px;"">
                                    <p style=""font-size:25px;"">Please move the slider all the way to the <br> right endpoint of the scale</p>

                                    </div>
                                </div>","200","","0","true","0","true","","","","","","","","","","",""
"","","","","","html-button-response","9","68634","0.0-8.0-1.0","flxdtjfsp0","46","886","<p align='center'><b>Good job!</b> Click on 'Continue' to proceed.</p>","0","","","","","","","","","","","","","","","",""
"","","","","","html-slider-response","10","70746","0.0-9.0-0.0","flxdtjfsp0","46","NaN","<div style=""width:500px;"">
                                    <p style=""font-size:25px;"">Please move the slider all the way to the <br> left endpoint of the scale</p>

                                    </div>
                                </div>","-200","","0","true","1","true","","","","","","","","","","",""
"","","","","","html-button-response","11","72134","0.0-9.0-1.0","flxdtjfsp0","46","886","<p align='center'><b>Good job!</b> Click on 'Continue' to proceed.</p>","0","","","","","","","","","","","","","","","",""
"","","","","","html-slider-response","12","76246","0.0-10.0-0.0","flxdtjfsp0","46","NaN","<div style=""width:500px;"">
                                    <p style=""font-size:25px;"">Please move the slider halfway between the center and right endpoint of the scale</p>

                                    </div>
                                </div>","98","","0","true","2","true","","","","","","","","","","",""
"","","","","","html-button-response","13","77517","0.0-10.0-1.0","flxdtjfsp0","46","769","<p align='center'><b>Good job!</b> Click on 'Continue' to proceed.</p>","0","","","","","","","","","","","","","","","",""
"","","","","","html-slider-response","14","79096","0.0-11.0-0.0","flxdtjfsp0","46","NaN","<div style=""width:500px;"">
                                    <p style=""font-size:25px;"">Please move the slider halfway between the center and left endpoint of the scale</p>

                                    </div>
                                </div>","-100","","0","true","3","true","","","","","","","","","","",""
"","","","","","html-button-response","15","80350","0.0-11.0-1.0","flxdtjfsp0","46","752","<p align='center'><b>Good job!</b> Click on 'Continue' to proceed.</p>","0","","","","","","","","","","","","","","","",""
"","","","","","html-button-response","16","81150","0.0-12.0","flxdtjfsp0","46","800","<p>Great job! You've completed the practice trials. Now you will begin the main task.</p>","0","","","","","","","","","","","","","","","",""
"","","","","","html-button-response","17","83150","0.0-13.0","flxdtjfsp0","46","1999","<p>In this block of trials, you will be asked to rate how much you associate each map with:</p > <p style = 'font-size:150%; font-weight: bold'>disgust</p><br></br>","0","","","","","","","","","","","","","","","",""
"","","","","","html-slider-response","18","85345","0.0-14.0","flxdtjfsp0","46","NaN","<div style=""width:500px;"">
                            <p style=""font-size:50px; font-weight:bold;""
                            >disgust</p>
                            <div style=""width:240px; margin: auto;"">
                                <img src=""images/map15_cividis_scaleDef_orientMir_180.png"" style= ""width:200px""alt=""img"">
                            </div>
                        </div>","50","","0","","","","images/map15_cividis_scaleDef_orientMir_180.png","disgust","1","15","15","cividis","orientMir","scaleDef","180","",""
"","","","","","html-slider-response","19","87561","0.0-15.0","flxdtjfsp0","46","NaN","<div style=""width:500px;"">
                            <p style=""font-size:50px; font-weight:bold;""
                            >disgust</p>
                            <div style=""width:240px; margin: auto;"">
                                <img src=""images/map26_Reds_scaleDef_orientDef_180.png"" style= ""width:200px""alt=""img"">
                            </div>
                        </div>","150","","0","","","","images/map26_Reds_scaleDef_orientDef_180.png","disgust","1","26","26","Reds","orientDef","scaleDef","180","",""
"","","","","","html-slider-response","20","89528","0.0-16.0","flxdtjfsp0","46","NaN","<div style=""width:500px;"">
                            <p style=""font-size:50px; font-weight:bold;""
                            >disgust</p>
                            <div style=""width:240px; margin: auto;"">
                                <img src=""images/map05_PiYG_scaleRev_orientMir_090.png"" style= ""width:200px""alt=""img"">
                            </div>
                        </div>","94","","0","","","","images/map05_PiYG_scaleRev_orientMir_090.png","disgust","1","05","05","PiYG","orientMir","scaleRev","090","",""
"","","","","","html-slider-response","21","91812","0.0-17.0","flxdtjfsp0","46","NaN","<div style=""width:500px;"">
                            <p style=""font-size:50px; font-weight:bold;""
                            >disgust</p>
                            <div style=""width:240px; margin: auto;"">
                                <img src=""images/map13_turbo_scaleDef_orientMir_000.png"" style= ""width:200px""alt=""img"">
                            </div>
                        </div>","-53","","0","","","","images/map13_turbo_scaleDef_orientMir_000.png","disgust","1","13","13","turbo","orientMir","scaleDef","000","",""
"","","","","","html-slider-response","22","94047","0.0-18.0","flxdtjfsp0","46","NaN","<div style=""width:500px;"">
                            <p style=""font-size:50px; font-weight:bold;""
                            >disgust</p>
                            <div style=""width:240px; margin: auto;"">
                                <img src=""images/map15_magma_scaleRev_orientMir_090.png"" style= ""width:200px""alt=""img"">
                            </div>
                        </div>","-30","","0","","","","images/map15_magma_scaleRev_orientMir_090.png","disgust","1","15","15","magma","orientMir","scaleRev","090","",""
"","","","","","html-slider-response","23","96547","0.0-19.0","flxdtjfsp0","46","NaN","<div style=""width:500px;"">
                            <p style=""font-size:50px; font-weight:bold;""
                            >disgust</p>
                            <div style=""width:240px; margin: auto;"">
                                <img src=""images/map12_bwr_scaleDef_orientDef_000.png"" style= ""width:200px""alt=""img"">
                            </div>
                        </div>","-70","","0","","","","images/map12_bwr_scaleDef_orientDef_000.png","disgust","1","12","12","bwr","orientDef","scaleDef","000","",""
"","","","","","html-slider-response","24","98728","0.0-20.0","flxdtjfsp0","46","NaN","<div style=""width:500px;"">
                            <p style=""font-size:50px; font-weight:bold;""
                            >disgust</p>
                            <div style=""width:240px; margin: auto;"">
                                <img src=""images/map10_Spectral_scaleDef_orientMir_000.png"" style= ""width:200px""alt=""img"">
                            </div>
                        </div>","36","","0","","","","images/map10_Spectral_scaleDef_orientMir_000.png","disgust","1","10","10","Spectral","orientMir","scaleDef","000","",""
"","","","","","html-slider-response","25","100914","0.0-21.0","flxdtjfsp0","46","NaN","<div style=""width:500px;"">
                            <p style=""font-size:50px; font-weight:bold;""
                            >disgust</p>
                            <div style=""width:240px; margin: auto;"">
                                <img src=""images/map23_Blues_scaleDef_orientMir_000.png"" style= ""width:200px""alt=""img"">
                            </div>
                        </div>","-160","","0","","","","images/map23_Blues_scaleDef_orientMir_000.png","disgust","1","23","23","Blues","orientMir","scaleDef","000","",""
"","","","","","html-slider-response","26","102996","0.0-22.0","flxdtjfsp0","46","NaN","<div style=""width:500px;"">
                            <p style=""font-size:50px; font-weight:bold;""
                            >disgust</p>
                            <div style=""width:240px; margin: auto;"">
                                <img src=""images/map07_BrBG_scaleDef_orientDef_000.png"" style= ""width:200px""alt=""img"">
                            </div>
                        </div>","119","","0","","","","images/map07_BrBG_scaleDef_orientDef_000.png","disgust","1","07","07","BrBG","orientDef","scaleDef","000","",""
"","","","","","html-slider-response","27","104995","0.0-23.0","flxdtjfsp0","46","NaN","<div style=""width:500px;"">
                            <p style=""font-size:50px; font-weight:bold;""
                            >disgust</p>
                            <div style=""width:240px; margin: auto;"">
                                <img src=""images/map12_seismic_scaleDef_orientDef_180.png"" style= ""width:200px""alt=""img"">
                            </div>
                        </div>","16","","0","","","","images/map12_seismic_scaleDef_orientDef_180.png","disgust","1","12","12","seismic","orientDef","scaleDef","180","",""
"","","","","","html-slider-response","28","106895","0.0-24.0","flxdtjfsp0","46","NaN","<div style=""width:500px;"">
                            <p style=""font-size:50px; font-weight:bold;""
                            >disgust</p>
                            <div style=""width:240px; margin: auto;"">
                                <img src=""images/map13_gist_earth_scaleDef_orientDef_180.png"" style= ""width:200px""alt=""img"">
                            </div>
                        </div>","43","","0","","","","images/map13_gist_earth_scaleDef_orientDef_180.png","disgust","1","13","13","gist","scaleDef","earth","orientDef","",""
"","","","","","html-slider-response","29","108912","0.0-25.0","flxdtjfsp0","46","NaN","<div style=""width:500px;"">
                            <p style=""font-size:50px; font-weight:bold;""
                            >disgust</p>
                            <div style=""width:240px; margin: auto;"">
                                <img src=""images/map10_RdYlGn_scaleDef_orientDef_180.png"" style= ""width:200px""alt=""img"">
                            </div>
                        </div>","49","","0","","","","images/map10_RdYlGn_scaleDef_orientDef_180.png","disgust","1","10","10","RdYlGn","orientDef","scaleDef","180","",""
"","","","","","html-slider-response","30","110611","0.0-26.0","flxdtjfsp0","46","NaN","<div style=""width:500px;"">
                            <p style=""font-size:50px; font-weight:bold;""
                            >disgust</p>
                            <div style=""width:240px; margin: auto;"">
                                <img src=""images/map05_PiYG_scaleDef_orientMir_000.png"" style= ""width:200px""alt=""img"">
                            </div>
                        </div>","78","","0","","","","images/map05_PiYG_scaleDef_orientMir_000.png","disgust","1","05","05","PiYG","orientMir","scaleDef","000","",""
"","","","","","html-slider-response","31","113528","0.0-27.0","flxdtjfsp0","46","NaN","<div style=""width:500px;"">
                            <p style=""font-size:50px; font-weight:bold;""
                            >disgust</p>
                            <div style=""width:240px; margin: auto;"">
                                <img src=""images/map15_inferno_scaleRev_orientDef_270.png"" style= ""width:200px""alt=""img"">
                            </div>
                        </div>","7","","0","","","","images/map15_inferno_scaleRev_orientDef_270.png","disgust","1","15","15","inferno","orientDef","scaleRev","270","",""
"","","","","","html-slider-response","32","116345","0.0-28.0","flxdtjfsp0","46","NaN","<div style=""width:500px;"">
                            <p style=""font-size:50px; font-weight:bold;""
                            >disgust</p>
                            <div style=""width:240px; margin: auto;"">
                                <img src=""images/map07_RdBu_scaleRev_orientMir_270.png"" style= ""width:200px""alt=""img"">
                            </div>
                        </div>","6","","0","","","","images/map07_RdBu_scaleRev_orientMir_270.png","disgust","1","07","07","RdBu","orientMir","scaleRev","270","",""
"","","","","","html-slider-response","33","117978","0.0-29.0","flxdtjfsp0","46","NaN","<div style=""width:500px;"">
                            <p style=""font-size:50px; font-weight:bold;""
                            >disgust</p>
                            <div style=""width:240px; margin: auto;"">
                                <img src=""images/map05_PRGn_scaleRev_orientMir_270.png"" style= ""width:200px""alt=""img"">
                            </div>
                        </div>","54","","0","","","","images/map05_PRGn_scaleRev_orientMir_270.png","disgust","1","05","05","PRGn","orientMir","scaleRev","270","",""
"","","","","","html-slider-response","34","119595","0.0-30.0","flxdtjfsp0","46","NaN","<div style=""width:500px;"">
                            <p style=""font-size:50px; font-weight:bold;""
                            >disgust</p>
                            <div style=""width:240px; margin: auto;"">
                                <img src=""images/map07_RdBu_scaleDef_orientMir_180.png"" style= ""width:200px""alt=""img"">
                            </div>
                        </div>","78","","0","","","","images/map07_RdBu_scaleDef_orientMir_180.png","disgust","1","07","07","RdBu","orientMir","scaleDef","180","",""
"","","","","","html-slider-response","35","121029","0.0-31.0","flxdtjfsp0","46","NaN","<div style=""width:500px;"">
                            <p style=""font-size:50px; font-weight:bold;""
                            >disgust</p>
                            <div style=""width:240px; margin: auto;"">
                                <img src=""images/map26_YlOrRd_scaleDef_orientMir_180.png"" style= ""width:200px""alt=""img"">
                            </div>
                        </div>","29","","0","","","","images/map26_YlOrRd_scaleDef_orientMir_180.png","disgust","1","26","26","YlOrRd","orientMir","scaleDef","180","",""
"","","","","","html-slider-response","36","122945","0.0-32.0","flxdtjfsp0","46","NaN","<div style=""width:500px;"">
                            <p style=""font-size:50px; font-weight:bold;""
                            >disgust</p>
                            <div style=""width:240px; margin: auto;"">
                                <img src=""images/map13_viridis_scaleDef_orientMir_180.png"" style= ""width:200px""alt=""img"">
                            </div>
                        </div>","-121","","0","","","","images/map13_viridis_scaleDef_orientMir_180.png","disgust","1","13","13","viridis","orientMir","scaleDef","180","",""
"","","","","","html-slider-response","37","124712","0.0-33.0","flxdtjfsp0","46","NaN","<div style=""width:500px;"">
                            <p style=""font-size:50px; font-weight:bold;""
                            >disgust</p>
                            <div style=""width:240px; margin: auto;"">
                                <img src=""images/map13_vanimo_scaleDef_orientDef_000.png"" style= ""width:200px""alt=""img"">
                            </div>
                        </div>","102","","0","","","","images/map13_vanimo_scaleDef_orientDef_000.png","disgust","1","13","13","vanimo","orientDef","scaleDef","000","",""
"","","","","","html-slider-response","38","126479","0.0-34.0","flxdtjfsp0","46","NaN","<div style=""width:500px;"">
                            <p style=""font-size:50px; font-weight:bold;""
                            >disgust</p>
                            <div style=""width:240px; margin: auto;"">
                                <img src=""images/map05_YlGn_scaleRev_orientDef_270.png"" style= ""width:200px""alt=""img"">
                            </div>
                        </div>","27","","0","","","","images/map05_YlGn_scaleRev_orientDef_270.png","disgust","1","05","05","YlGn","orientDef","scaleRev","270","",""
"","","","","","html-slider-response","39","128446","0.0-35.0","flxdtjfsp0","46","NaN","<div style=""width:500px;"">
                            <p style=""font-size:50px; font-weight:bold;""
                            >disgust</p>
                            <div style=""width:240px; margin: auto;"">
                                <img src=""images/map02_PuBuGn_scaleDef_orientMir_180.png"" style= ""width:200px""alt=""img"">
                            </div>
                        </div>","-165","","0","","","","images/map02_PuBuGn_scaleDef_orientMir_180.png","disgust","1","02","02","PuBuGn","orientMir","scaleDef","180","",""
"","","","","","html-slider-response","40","130244","0.0-36.0","flxdtjfsp0","46","NaN","<div style=""width:500px;"">
                            <p style=""font-size:50px; font-weight:bold;""
                            >disgust</p>
                            <div style=""width:240px; margin: auto;"">
                                <img src=""images/map12_managua_scaleRev_orientMir_270.png"" style= ""width:200px""alt=""img"">
                            </div>
                        </div>","15","","0","","","","images/map12_managua_scaleRev_orientMir_270.png","disgust","1","12","12","managua","orientMir","scaleRev","270","",""
"","","","","","html-slider-response","41","131646","0.0-37.0","flxdtjfsp0","46","NaN","<div style=""width:500px;"">
                            <p style=""font-size:50px; font-weight:bold;""
                            >disgust</p>
                            <div style=""width:240px; margin: auto;"">
                                <img src=""images/map27_PuRd_scaleRev_orientDef_270.png"" style= ""width:200px""alt=""img"">
                            </div>
                        </div>","-18","","0","","","","images/map27_PuRd_scaleRev_orientDef_270.png","disgust","1","27","27","PuRd","orientDef","scaleRev","270","",""
"","","","","","html-slider-response","42","133328","0.0-38.0","flxdtjfsp0","46","NaN","<div style=""width:500px;"">
                            <p style=""font-size:50px; font-weight:bold;""
                            >disgust</p>
                            <div style=""width:240px; margin: auto;"">
                                <img src=""images/map12_berlin_scaleDef_orientMir_000.png"" style= ""width:200px""alt=""img"">
                            </div>
                        </div>","87","","0","","","","images/map12_berlin_scaleDef_orientMir_000.png","disgust","1","12","12","berlin","orientMir","scaleDef","000","",""
"","","","","","html-slider-response","43","135295","0.0-39.0","flxdtjfsp0","46","NaN","<div style=""width:500px;"">
                            <p style=""font-size:50px; font-weight:bold;""
                            >disgust</p>
                            <div style=""width:240px; margin: auto;"">
                                <img src=""images/map13_turbo_scaleRev_orientMir_090.png"" style= ""width:200px""alt=""img"">
                            </div>
                        </div>","-170","","0","","","","images/map13_turbo_scaleRev_orientMir_090.png","disgust","1","13","13","turbo","orientMir","scaleRev","090","",""
"","","","","","html-slider-response","44","136995","0.0-40.0","flxdtjfsp0","46","NaN","<div style=""width:500px;"">
                            <p style=""font-size:50px; font-weight:bold;""
                            >disgust</p>
                            <div style=""width:240px; margin: auto;"">
                                <img src=""images/map26_Reds_scaleRev_orientDef_270.png"" style= ""width:200px""alt=""img"">
                            </div>
                        </div>","142","","0","","","","images/map26_Reds_scaleRev_orientDef_270.png","disgust","1","26","26","Reds","orientDef","scaleRev","270","",""
"","","","","","html-slider-response","45","139528","0.0-41.0","flxdtjfsp0","46","NaN","<div style=""width:500px;"">
                            <p style=""font-size:50px; font-weight:bold;""
                            >disgust</p>
                            <div style=""width:240px; margin: auto;"">
                                <img src=""images/map10_coolwarm_scaleRev_orientMir_270.png"" style= ""width:200px""alt=""img"">
                            </div>
                        </div>","30","","0","","","","images/map10_coolwarm_scaleRev_orientMir_270.png","disgust","1","10","10","coolwarm","orientMir","scaleRev","270","",""
"","","","","","html-slider-response","46","141144","0.0-42.0","flxdtjfsp0","46","NaN","<div style=""width:500px;"">
                            <p style=""font-size:50px; font-weight:bold;""
                            >disgust</p>
                            <div style=""width:240px; margin: auto;"">
                                <img src=""images/map07_RdGy_scaleRev_orientMir_090.png"" style= ""width:200px""alt=""img"">
                            </div>
                        </div>","124","","0","","","","images/map07_RdGy_scaleRev_orientMir_090.png","disgust","1","07","07","RdGy","orientMir","scaleRev","090","",""
"","","","","","html-slider-response","47","143595","0.0-43.0","flxdtjfsp0","46","NaN","<div style=""width:500px;"">
                            <p style=""font-size:50px; font-weight:bold;""
                            >disgust</p>
                            <div style=""width:240px; margin: auto;"">
                                <img src=""images/map23_Greens_scaleRev_orientMir_270.png"" style= ""width:200px""alt=""img"">
                            </div>
                        </div>","-99","","0","","","","images/map23_Greens_scaleRev_orientMir_270.png","disgust","1","23","23","Greens","orientMir","scaleRev","270","",""
"","","","","","html-slider-response","48","145628","0.0-44.0","flxdtjfsp0","46","NaN","<div style=""width:500px;"">
                            <p style=""font-size:50px; font-weight:bold;""
                            >disgust</p>
                            <div style=""width:240px; margin: auto;"">
                                <img src=""images/map02_GnBu_scaleDef_orientDef_000.png"" style= ""width:200px""alt=""img"">
                            </div>
                        </div>","-156","","0","","","","images/map02_GnBu_scaleDef_orientDef_000.png","disgust","1","02","02","GnBu","orientDef","scaleDef","000","",""
"","","","","","html-slider-response","49","147761","0.0-45.0","flxdtjfsp0","46","NaN","<div style=""width:500px;"">
                            <p style=""font-size:50px; font-weight:bold;""
                            >disgust</p>
                            <div style=""width:240px; margin: auto;"">
                                <img src=""images/map27_RdPu_scaleRev_orientMir_090.png"" style= ""width:200px""alt=""img"">
                            </div>
                        </div>","-182","","0","","","","images/map27_RdPu_scaleRev_orientMir_090.png","disgust","1","27","27","RdPu","orientMir","scaleRev","090","",""
"","","","","","html-slider-response","50","149477","0.0-46.0","flxdtjfsp0","46","NaN","<div style=""width:500px;"">
                            <p style=""font-size:50px; font-weight:bold;""
                            >disgust</p>
                            <div style=""width:240px; margin: auto;"">
                                <img src=""images/map02_PuBu_scaleRev_orientDef_270.png"" style= ""width:200px""alt=""img"">
                            </div>
                        </div>","-200","","0","","","","images/map02_PuBu_scaleRev_orientDef_270.png","disgust","1","02","02","PuBu","orientDef","scaleRev","270","",""
"","","","","","html-slider-response","51","152211","0.0-47.0","flxdtjfsp0","46","NaN","<div style=""width:500px;"">
                            <p style=""font-size:50px; font-weight:bold;""
                            >disgust</p>
                            <div style=""width:240px; margin: auto;"">
                                <img src=""images/map15_plasma_scaleRev_orientDef_090.png"" style= ""width:200px""alt=""img"">
                            </div>
                        </div>","14","","0","","","","images/map15_plasma_scaleRev_orientDef_090.png","disgust","1","15","15","plasma","orientDef","scaleRev","090","",""
"","","","","","html-slider-response","52","153927","0.0-48.0","flxdtjfsp0","46","NaN","<div style=""width:500px;"">
                            <p style=""font-size:50px; font-weight:bold;""
                            >disgust</p>
                            <div style=""width:240px; margin: auto;"">
                                <img src=""images/map23_Blues_scaleRev_orientMir_090.png"" style= ""width:200px""alt=""img"">
                            </div>
                        </div>","-170","","0","","","","images/map23_Blues_scaleRev_orientMir_090.png","disgust","1","23","23","Blues","orientMir","scaleRev","090","",""
"","","","","","html-slider-response","53","156178","0.0-49.0","flxdtjfsp0","46","NaN","<div style=""width:500px;"">
                            <p style=""font-size:50px; font-weight:bold;""
                            >disgust</p>
                            <div style=""width:240px; margin: auto;"">
                                <img src=""images/map10_RdYlGn_scaleRev_orientDef_270.png"" style= ""width:200px""alt=""img"">
                            </div>
                        </div>","68","","0","","","","images/map10_RdYlGn_scaleRev_orientDef_270.png","disgust","1","10","10","RdYlGn","orientDef","scaleRev","270","",""
"","","","","","html-slider-response","54","158161","0.0-50.0","flxdtjfsp0","46","NaN","<div style=""width:500px;"">
                            <p style=""font-size:50px; font-weight:bold;""
                            >disgust</p>
                            <div style=""width:240px; margin: auto;"">
                                <img src=""images/map05_YlGn_scaleDef_orientDef_180.png"" style= ""width:200px""alt=""img"">
                            </div>
                        </div>","-25","","0","","","","images/map05_YlGn_scaleDef_orientDef_180.png","disgust","1","05","05","YlGn","orientDef","scaleDef","180","",""
"","","","","","html-slider-response","55","159861","0.0-51.0","flxdtjfsp0","46","NaN","<div style=""width:500px;"">
                            <p style=""font-size:50px; font-weight:bold;""
                            >disgust</p>
                            <div style=""width:240px; margin: auto;"">
                                <img src=""images/map23_Purples_scaleRev_orientDef_270.png"" style= ""width:200px""alt=""img"">
                            </div>
                        </div>","-181","","0","","","","images/map23_Purples_scaleRev_orientDef_270.png","disgust","1","23","23","Purples","orientDef","scaleRev","270","",""
"","","","","","html-slider-response","56","161844","0.0-52.0","flxdtjfsp0","46","NaN","<div style=""width:500px;"">
                            <p style=""font-size:50px; font-weight:bold;""
                            >disgust</p>
                            <div style=""width:240px; margin: auto;"">
                                <img src=""images/map07_BrBG_scaleRev_orientDef_090.png"" style= ""width:200px""alt=""img"">
                            </div>
                        </div>","90","","0","","","","images/map07_BrBG_scaleRev_orientDef_090.png","disgust","1","07","07","BrBG","orientDef","scaleRev","090","",""
"","","","","","html-slider-response","57","163529","0.0-53.0","flxdtjfsp0","46","NaN","<div style=""width:500px;"">
                            <p style=""font-size:50px; font-weight:bold;""
                            >disgust</p>
                            <div style=""width:240px; margin: auto;"">
                                <img src=""images/map26_Oranges_scaleRev_orientDef_090.png"" style= ""width:200px""alt=""img"">
                            </div>
                        </div>","96","","0","","","","images/map26_Oranges_scaleRev_orientDef_090.png","disgust","1","26","26","Oranges","orientDef","scaleRev","090","",""
"","","","","","html-button-response","58","165267","0.0-54.0","flxdtjfsp0","46","1235","<p>You are doing great!<br></br> You are halway done with the current block. When you are ready to continue, click the 'Continue' button.</p>","0","","","","","","","","","","","","","","","",""
"","","","","","html-slider-response","59","169278","0.0-55.0","flxdtjfsp0","46","NaN","<div style=""width:500px;"">
                            <p style=""font-size:50px; font-weight:bold;""
                            >disgust</p>
                            <div style=""width:240px; margin: auto;"">
                                <img src=""images/map02_PuBu_scaleDef_orientDef_180.png"" style= ""width:200px""alt=""img"">
                            </div>
                        </div>","-199","","0","","","","images/map02_PuBu_scaleDef_orientDef_180.png","disgust","1","02","02","PuBu","orientDef","scaleDef","180","",""
"","","","","","html-slider-response","60","170944","0.0-56.0","flxdtjfsp0","46","NaN","<div style=""width:500px;"">
                            <p style=""font-size:50px; font-weight:bold;""
                            >disgust</p>
                            <div style=""width:240px; margin: auto;"">
                                <img src=""images/map15_inferno_scaleDef_orientDef_180.png"" style= ""width:200px""alt=""img"">
                            </div>
                        </div>","28","","0","","","","images/map15_inferno_scaleDef_orientDef_180.png","disgust","1","15","15","inferno","orientDef","scaleDef","180","",""
"","","","","","html-slider-response","61","172612","0.0-57.0","flxdtjfsp0","46","NaN","<div style=""width:500px;"">
                            <p style=""font-size:50px; font-weight:bold;""
                            >disgust</p>
                            <div style=""width:240px; margin: auto;"">
                                <img src=""images/map02_PuBuGn_scaleRev_orientMir_270.png"" style= ""width:200px""alt=""img"">
                            </div>
                        </div>","-200","","0","","","","images/map02_PuBuGn_scaleRev_orientMir_270.png","disgust","1","02","02","PuBuGn","orientMir","scaleRev","270","",""
"","","","","","html-slider-response","62","176244","0.0-58.0","flxdtjfsp0","46","NaN","<div style=""width:500px;"">
                            <p style=""font-size:50px; font-weight:bold;""
                            >disgust</p>
                            <div style=""width:240px; margin: auto;"">
                                <img src=""images/map23_Purples_scaleDef_orientDef_180.png"" style= ""width:200px""alt=""img"">
                            </div>
                        </div>","-171","","0","","","","images/map23_Purples_scaleDef_orientDef_180.png","disgust","1","23","23","Purples","orientDef","scaleDef","180","",""
"","","","","","html-slider-response","63","177911","0.0-59.0","flxdtjfsp0","46","NaN","<div style=""width:500px;"">
                            <p style=""font-size:50px; font-weight:bold;""
                            >disgust</p>
                            <div style=""width:240px; margin: auto;"">
                                <img src=""images/map26_YlOrBr_scaleRev_orientMir_090.png"" style= ""width:200px""alt=""img"">
                            </div>
                        </div>","80","","0","","","","images/map26_YlOrBr_scaleRev_orientMir_090.png","disgust","1","26","26","YlOrBr","orientMir","scaleRev","090","",""
"","","","","","html-slider-response","64","179961","0.0-60.0","flxdtjfsp0","46","NaN","<div style=""width:500px;"">
                            <p style=""font-size:50px; font-weight:bold;""
                            >disgust</p>
                            <div style=""width:240px; margin: auto;"">
                                <img src=""images/map12_seismic_scaleRev_orientDef_270.png"" style= ""width:200px""alt=""img"">
                            </div>
                        </div>","29","","0","","","","images/map12_seismic_scaleRev_orientDef_270.png","disgust","1","12","12","seismic","orientDef","scaleRev","270","",""
"","","","","","html-slider-response","65","181864","0.0-61.0","flxdtjfsp0","46","NaN","<div style=""width:500px;"">
                            <p style=""font-size:50px; font-weight:bold;""
                            >disgust</p>
                            <div style=""width:240px; margin: auto;"">
                                <img src=""images/map27_BuPu_scaleDef_orientMir_180.png"" style= ""width:200px""alt=""img"">
                            </div>
                        </div>","-177","","0","","","","images/map27_BuPu_scaleDef_orientMir_180.png","disgust","1","27","27","BuPu","orientMir","scaleDef","180","",""
"","","","","","html-slider-response","66","183678","0.0-62.0","flxdtjfsp0","46","NaN","<div style=""width:500px;"">
                            <p style=""font-size:50px; font-weight:bold;""
                            >disgust</p>
                            <div style=""width:240px; margin: auto;"">
                                <img src=""images/map13_viridis_scaleRev_orientMir_270.png"" style= ""width:200px""alt=""img"">
                            </div>
                        </div>","1","","0","","","","images/map13_viridis_scaleRev_orientMir_270.png","disgust","1","13","13","viridis","orientMir","scaleRev","270","",""
"","","","","","html-slider-response","67","185861","0.0-63.0","flxdtjfsp0","46","NaN","<div style=""width:500px;"">
                            <p style=""font-size:50px; font-weight:bold;""
                            >disgust</p>
                            <div style=""width:240px; margin: auto;"">
                                <img src=""images/map27_RdPu_scaleDef_orientMir_000.png"" style= ""width:200px""alt=""img"">
                            </div>
                        </div>","-149","","0","","","","images/map27_RdPu_scaleDef_orientMir_000.png","disgust","1","27","27","RdPu","orientMir","scaleDef","000","",""
"","","","","","html-slider-response","68","187561","0.0-64.0","flxdtjfsp0","46","NaN","<div style=""width:500px;"">
                            <p style=""font-size:50px; font-weight:bold;""
                            >disgust</p>
                            <div style=""width:240px; margin: auto;"">
                                <img src=""images/map27_PuRd_scaleDef_orientDef_180.png"" style= ""width:200px""alt=""img"">
                            </div>
                        </div>","2","","0","","","","images/map27_PuRd_scaleDef_orientDef_180.png","disgust","1","27","27","PuRd","orientDef","scaleDef","180","",""
"","","","","","html-slider-response","69","189028","0.0-65.0","flxdtjfsp0","46","NaN","<div style=""width:500px;"">
                            <p style=""font-size:50px; font-weight:bold;""
                            >disgust</p>
                            <div style=""width:240px; margin: auto;"">
                                <img src=""images/map23_Greens_scaleDef_orientMir_180.png"" style= ""width:200px""alt=""img"">
                            </div>
                        </div>","68","","0","","","","images/map23_Greens_scaleDef_orientMir_180.png","disgust","1","23","23","Greens","orientMir","scaleDef","180","",""
"","","","","","html-slider-response","70","191678","0.0-66.0","flxdtjfsp0","46","NaN","<div style=""width:500px;"">
                            <p style=""font-size:50px; font-weight:bold;""
                            >disgust</p>
                            <div style=""width:240px; margin: auto;"">
                                <img src=""images/map07_PuOr_scaleRev_orientDef_270.png"" style= ""width:200px""alt=""img"">
                            </div>
                        </div>","98","","0","","","","images/map07_PuOr_scaleRev_orientDef_270.png","disgust","1","07","07","PuOr","orientDef","scaleRev","270","",""
"","","","","","html-slider-response","71","193396","0.0-67.0","flxdtjfsp0","46","NaN","<div style=""width:500px;"">
                            <p style=""font-size:50px; font-weight:bold;""
                            >disgust</p>
                            <div style=""width:240px; margin: auto;"">
                                <img src=""images/map13_vanimo_scaleRev_orientDef_090.png"" style= ""width:200px""alt=""img"">
                            </div>
                        </div>","146","","0","","","","images/map13_vanimo_scaleRev_orientDef_090.png","disgust","1","13","13","vanimo","orientDef","scaleRev","090","",""
"","","","","","html-slider-response","72","194978","0.0-68.0","flxdtjfsp0","46","NaN","<div style=""width:500px;"">
                            <p style=""font-size:50px; font-weight:bold;""
                            >disgust</p>
                            <div style=""width:240px; margin: auto;"">
                                <img src=""images/map26_YlOrBr_scaleDef_orientMir_000.png"" style= ""width:200px""alt=""img"">
                            </div>
                        </div>","77","","0","","","","images/map26_YlOrBr_scaleDef_orientMir_000.png","disgust","1","26","26","YlOrBr","orientMir","scaleDef","000","",""
"","","","","","html-slider-response","73","196644","0.0-69.0","flxdtjfsp0","46","NaN","<div style=""width:500px;"">
                            <p style=""font-size:50px; font-weight:bold;""
                            >disgust</p>
                            <div style=""width:240px; margin: auto;"">
                                <img src=""images/map10_Spectral_scaleRev_orientMir_090.png"" style= ""width:200px""alt=""img"">
                            </div>
                        </div>","27","","0","","","","images/map10_Spectral_scaleRev_orientMir_090.png","disgust","1","10","10","Spectral","orientMir","scaleRev","090","",""
"","","","","","html-slider-response","74","198630","0.0-70.0","flxdtjfsp0","46","NaN","<div style=""width:500px;"">
                            <p style=""font-size:50px; font-weight:bold;""
                            >disgust</p>
                            <div style=""width:240px; margin: auto;"">
                                <img src=""images/map27_BuPu_scaleRev_orientMir_270.png"" style= ""width:200px""alt=""img"">
                            </div>
                        </div>","-200","","0","","","","images/map27_BuPu_scaleRev_orientMir_270.png","disgust","1","27","27","BuPu","orientMir","scaleRev","270","",""
"","","","","","html-slider-response","75","200279","0.0-71.0","flxdtjfsp0","46","NaN","<div style=""width:500px;"">
                            <p style=""font-size:50px; font-weight:bold;""
                            >disgust</p>
                            <div style=""width:240px; margin: auto;"">
                                <img src=""images/map15_cividis_scaleRev_orientMir_270.png"" style= ""width:200px""alt=""img"">
                            </div>
                        </div>","33","","0","","","","images/map15_cividis_scaleRev_orientMir_270.png","disgust","1","15","15","cividis","orientMir","scaleRev","270","",""
"","","","","","html-slider-response","76","202811","0.0-72.0","flxdtjfsp0","46","NaN","<div style=""width:500px;"">
                            <p style=""font-size:50px; font-weight:bold;""
                            >disgust</p>
                            <div style=""width:240px; margin: auto;"">
                                <img src=""images/map05_BuGn_scaleRev_orientDef_090.png"" style= ""width:200px""alt=""img"">
                            </div>
                        </div>","-122","","0","","","","images/map05_BuGn_scaleRev_orientDef_090.png","disgust","1","05","05","BuGn","orientDef","scaleRev","090","",""
"","","","","","html-slider-response","77","204328","0.0-73.0","flxdtjfsp0","46","NaN","<div style=""width:500px;"">
                            <p style=""font-size:50px; font-weight:bold;""
                            >disgust</p>
                            <div style=""width:240px; margin: auto;"">
                                <img src=""images/map15_magma_scaleDef_orientMir_000.png"" style= ""width:200px""alt=""img"">
                            </div>
                        </div>","7","","0","","","","images/map15_magma_scaleDef_orientMir_000.png","disgust","1","15","15","magma","orientMir","scaleDef","000","",""
"","","","","","html-slider-response","78","214244","0.0-74.0","flxdtjfsp0","46","NaN","<div style=""width:500px;"">
                            <p style=""font-size:50px; font-weight:bold;""
                            >disgust</p>
                            <div style=""width:240px; margin: auto;"">
                                <img src=""images/map27_OrRd_scaleDef_orientDef_000.png"" style= ""width:200px""alt=""img"">
                            </div>
                        </div>","10","","0","","","","images/map27_OrRd_scaleDef_orientDef_000.png","disgust","1","27","27","OrRd","orientDef","scaleDef","000","",""
"","","","","","html-slider-response","79","215761","0.0-75.0","flxdtjfsp0","46","NaN","<div style=""width:500px;"">
                            <p style=""font-size:50px; font-weight:bold;""
                            >disgust</p>
                            <div style=""width:240px; margin: auto;"">
                                <img src=""images/map10_coolwarm_scaleDef_orientMir_180.png"" style= ""width:200px""alt=""img"">
                            </div>
                        </div>","-12","","0","","","","images/map10_coolwarm_scaleDef_orientMir_180.png","disgust","1","10","10","coolwarm","orientMir","scaleDef","180","",""
"","","","","","html-slider-response","80","221327","0.0-76.0","flxdtjfsp0","46","NaN","<div style=""width:500px;"">
                            <p style=""font-size:50px; font-weight:bold;""
                            >disgust</p>
                            <div style=""width:240px; margin: auto;"">
                                <img src=""images/map12_berlin_scaleRev_orientMir_090.png"" style= ""width:200px""alt=""img"">
                            </div>
                        </div>","17","","0","","","","images/map12_berlin_scaleRev_orientMir_090.png","disgust","1","12","12","berlin","orientMir","scaleRev","090","",""
"","","","","","html-slider-response","81","225179","0.0-77.0","flxdtjfsp0","46","NaN","<div style=""width:500px;"">
                            <p style=""font-size:50px; font-weight:bold;""
                            >disgust</p>
                            <div style=""width:240px; margin: auto;"">
                                <img src=""images/map02_GnBu_scaleRev_orientDef_090.png"" style= ""width:200px""alt=""img"">
                            </div>
                        </div>","-200","","0","","","","images/map02_GnBu_scaleRev_orientDef_090.png","disgust","1","02","02","GnBu","orientDef","scaleRev","090","",""
"","","","","","html-slider-response","82","226777","0.0-78.0","flxdtjfsp0","46","NaN","<div style=""width:500px;"">
                            <p style=""font-size:50px; font-weight:bold;""
                            >disgust</p>
                            <div style=""width:240px; margin: auto;"">
                                <img src=""images/map07_RdGy_scaleDef_orientMir_000.png"" style= ""width:200px""alt=""img"">
                            </div>
                        </div>","69","","0","","","","images/map07_RdGy_scaleDef_orientMir_000.png","disgust","1","07","07","RdGy","orientMir","scaleDef","000","",""
"","","","","","html-slider-response","83","229077","0.0-79.0","flxdtjfsp0","46","NaN","<div style=""width:500px;"">
                            <p style=""font-size:50px; font-weight:bold;""
                            >disgust</p>
                            <div style=""width:240px; margin: auto;"">
                                <img src=""images/map10_RdYlBu_scaleRev_orientDef_090.png"" style= ""width:200px""alt=""img"">
                            </div>
                        </div>","-6","","0","","","","images/map10_RdYlBu_scaleRev_orientDef_090.png","disgust","1","10","10","RdYlBu","orientDef","scaleRev","090","",""
"","","","","","html-slider-response","84","234261","0.0-80.0","flxdtjfsp0","46","NaN","<div style=""width:500px;"">
                            <p style=""font-size:50px; font-weight:bold;""
                            >disgust</p>
                            <div style=""width:240px; margin: auto;"">
                                <img src=""images/map12_managua_scaleDef_orientMir_180.png"" style= ""width:200px""alt=""img"">
                            </div>
                        </div>","33","","0","","","","images/map12_managua_scaleDef_orientMir_180.png","disgust","1","12","12","managua","orientMir","scaleDef","180","",""
"","","","","","html-slider-response","85","235911","0.0-81.0","flxdtjfsp0","46","NaN","<div style=""width:500px;"">
                            <p style=""font-size:50px; font-weight:bold;""
                            >disgust</p>
                            <div style=""width:240px; margin: auto;"">
                                <img src=""images/map27_OrRd_scaleRev_orientDef_090.png"" style= ""width:200px""alt=""img"">
                            </div>
                        </div>","33","","0","","","","images/map27_OrRd_scaleRev_orientDef_090.png","disgust","1","27","27","OrRd","orientDef","scaleRev","090","",""
"","","","","","html-slider-response","86","237328","0.0-82.0","flxdtjfsp0","46","NaN","<div style=""width:500px;"">
                            <p style=""font-size:50px; font-weight:bold;""
                            >disgust</p>
                            <div style=""width:240px; margin: auto;"">
                                <img src=""images/map26_YlOrRd_scaleRev_orientMir_270.png"" style= ""width:200px""alt=""img"">
                            </div>
                        </div>","26","","0","","","","images/map26_YlOrRd_scaleRev_orientMir_270.png","disgust","1","26","26","YlOrRd","orientMir","scaleRev","270","",""
"","","","","","html-slider-response","87","241994","0.0-83.0","flxdtjfsp0","46","NaN","<div style=""width:500px;"">
                            <p style=""font-size:50px; font-weight:bold;""
                            >disgust</p>
                            <div style=""width:240px; margin: auto;"">
                                <img src=""images/map12_bwr_scaleRev_orientDef_090.png"" style= ""width:200px""alt=""img"">
                            </div>
                        </div>","41","","0","","","","images/map12_bwr_scaleRev_orientDef_090.png","disgust","1","12","12","bwr","orientDef","scaleRev","090","",""
"","","","","","html-slider-response","88","244245","0.0-84.0","flxdtjfsp0","46","NaN","<div style=""width:500px;"">
                            <p style=""font-size:50px; font-weight:bold;""
                            >disgust</p>
                            <div style=""width:240px; margin: auto;"">
                                <img src=""images/map23_Greys_scaleDef_orientDef_000.png"" style= ""width:200px""alt=""img"">
                            </div>
                        </div>","19","","0","","","","images/map23_Greys_scaleDef_orientDef_000.png","disgust","1","23","23","Greys","orientDef","scaleDef","000","",""
"","","","","","html-slider-response","89","245810","0.0-85.0","flxdtjfsp0","46","NaN","<div style=""width:500px;"">
                            <p style=""font-size:50px; font-weight:bold;""
                            >disgust</p>
                            <div style=""width:240px; margin: auto;"">
                                <img src=""images/map13_gist_earth_scaleRev_orientDef_270.png"" style= ""width:200px""alt=""img"">
                            </div>
                        </div>","62","","0","","","","images/map13_gist_earth_scaleRev_orientDef_270.png","disgust","1","13","13","gist","scaleRev","earth","orientDef","",""
"","","","","","html-slider-response","90","247410","0.0-86.0","flxdtjfsp0","46","NaN","<div style=""width:500px;"">
                            <p style=""font-size:50px; font-weight:bold;""
                            >disgust</p>
                            <div style=""width:240px; margin: auto;"">
                                <img src=""images/map07_PuOr_scaleDef_orientDef_180.png"" style= ""width:200px""alt=""img"">
                            </div>
                        </div>","45","","0","","","","images/map07_PuOr_scaleDef_orientDef_180.png","disgust","1","07","07","PuOr","orientDef","scaleDef","180","",""
"","","","","","html-slider-response","91","249395","0.0-87.0","flxdtjfsp0","46","NaN","<div style=""width:500px;"">
                            <p style=""font-size:50px; font-weight:bold;""
                            >disgust</p>
                            <div style=""width:240px; margin: auto;"">
                                <img src=""images/map05_BuGn_scaleDef_orientDef_000.png"" style= ""width:200px""alt=""img"">
                            </div>
                        </div>","-200","","0","","","","images/map05_BuGn_scaleDef_orientDef_000.png","disgust","1","05","05","BuGn","orientDef","scaleDef","000","",""
"","","","","","html-slider-response","92","251510","0.0-88.0","flxdtjfsp0","46","NaN","<div style=""width:500px;"">
                            <p style=""font-size:50px; font-weight:bold;""
                            >disgust</p>
                            <div style=""width:240px; margin: auto;"">
                                <img src=""images/map02_YlGnBu_scaleDef_orientMir_000.png"" style= ""width:200px""alt=""img"">
                            </div>
                        </div>","-130","","0","","","","images/map02_YlGnBu_scaleDef_orientMir_000.png","disgust","1","02","02","YlGnBu","orientMir","scaleDef","000","",""
"","","","","","html-slider-response","93","254994","0.0-89.0","flxdtjfsp0","46","NaN","<div style=""width:500px;"">
                            <p style=""font-size:50px; font-weight:bold;""
                            >disgust</p>
                            <div style=""width:240px; margin: auto;"">
                                <img src=""images/map15_plasma_scaleDef_orientDef_000.png"" style= ""width:200px""alt=""img"">
                            </div>
                        </div>","56","","0","","","","images/map15_plasma_scaleDef_orientDef_000.png","disgust","1","15","15","plasma","orientDef","scaleDef","000","",""
"","","","","","html-slider-response","94","256410","0.0-90.0","flxdtjfsp0","46","NaN","<div style=""width:500px;"">
                            <p style=""font-size:50px; font-weight:bold;""
                            >disgust</p>
                            <div style=""width:240px; margin: auto;"">
                                <img src=""images/map26_Oranges_scaleDef_orientDef_000.png"" style= ""width:200px""alt=""img"">
                            </div>
                        </div>","46","","0","","","","images/map26_Oranges_scaleDef_orientDef_000.png","disgust","1","26","26","Oranges","orientDef","scaleDef","000","",""
"","","","","","html-slider-response","95","258011","0.0-91.0","flxdtjfsp0","46","NaN","<div style=""width:500px;"">
                            <p style=""font-size:50px; font-weight:bold;""
                            >disgust</p>
                            <div style=""width:240px; margin: auto;"">
                                <img src=""images/map05_PRGn_scaleDef_orientMir_180.png"" style= ""width:200px""alt=""img"">
                            </div>
                        </div>","62","","0","","","","images/map05_PRGn_scaleDef_orientMir_180.png","disgust","1","05","05","PRGn","orientMir","scaleDef","180","",""
"","","","","","html-slider-response","96","264011","0.0-92.0","flxdtjfsp0","46","NaN","<div style=""width:500px;"">
                            <p style=""font-size:50px; font-weight:bold;""
                            >disgust</p>
                            <div style=""width:240px; margin: auto;"">
                                <img src=""images/map23_Greys_scaleRev_orientDef_090.png"" style= ""width:200px""alt=""img"">
                            </div>
                        </div>","1","","0","","","","images/map23_Greys_scaleRev_orientDef_090.png","disgust","1","23","23","Greys","orientDef","scaleRev","090","",""
"","","","","","html-slider-response","97","265494","0.0-93.0","flxdtjfsp0","46","NaN","<div style=""width:500px;"">
                            <p style=""font-size:50px; font-weight:bold;""
                            >disgust</p>
                            <div style=""width:240px; margin: auto;"">
                                <img src=""images/map10_RdYlBu_scaleDef_orientDef_000.png"" style= ""width:200px""alt=""img"">
                            </div>
                        </div>","35","","0","","","","images/map10_RdYlBu_scaleDef_orientDef_000.png","disgust","1","10","10","RdYlBu","orientDef","scaleDef","000","",""
"","","","","","html-slider-response","98","267527","0.0-94.0","flxdtjfsp0","46","NaN","<div style=""width:500px;"">
                            <p style=""font-size:50px; font-weight:bold;""
                            >disgust</p>
                            <div style=""width:240px; margin: auto;"">
                                <img src=""images/map02_YlGnBu_scaleRev_orientMir_090.png"" style= ""width:200px""alt=""img"">
                            </div>
                        </div>","-200","","0","","","","images/map02_YlGnBu_scaleRev_orientMir_090.png","disgust","1","02","02","YlGnBu","orientMir","scaleRev","090","",""
"","","","","","html-button-response","99","268749","0.0-95.0","flxdtjfsp0","46","719","<p>Great Job! You've finished block 1.<br></br> You have 4 block(s) left to go.<br></br></p>","0","","","","","","","","","","","","","","","",""
"","","","","","html-button-response","100","271099","0.0-96.0","flxdtjfsp0","46","2349","<p>In this block of trials, you will be asked to rate how much you associate each map with:</p > <p style = 'font-size:150%; font-weight: bold'>angry</p><br></br>","0","","","","","","","","","","","","","","","",""
"","","","","","html-slider-response","101","272444","0.0-97.0","flxdtjfsp0","46","NaN","<div style=""width:500px;"">
                            <p style=""font-size:50px; font-weight:bold;""
                            >angry</p>
                            <div style=""width:240px; margin: auto;"">
                                <img src=""images/map15_inferno_scaleRev_orientDef_270.png"" style= ""width:200px""alt=""img"">
                            </div>
                        </div>","102","","0","","","","images/map15_inferno_scaleRev_orientDef_270.png","angry","1","15","15","inferno","orientDef","scaleRev","270","",""
"","","","","","html-slider-response","102","274095","0.0-98.0","flxdtjfsp0","46","NaN","<div style=""width:500px;"">
                            <p style=""font-size:50px; font-weight:bold;""
                            >angry</p>
                            <div style=""width:240px; margin: auto;"">
                                <img src=""images/map13_viridis_scaleDef_orientMir_180.png"" style= ""width:200px""alt=""img"">
                            </div>
                        </div>","-200","","0","","","","images/map13_viridis_scaleDef_orientMir_180.png","angry","1","13","13","viridis","orientMir","scaleDef","180","",""
"","","","","","html-slider-response","103","275610","0.0-99.0","flxdtjfsp0","46","NaN","<div style=""width:500px;"">
                            <p style=""font-size:50px; font-weight:bold;""
                            >angry</p>
                            <div style=""width:240px; margin: auto;"">
                                <img src=""images/map23_Purples_scaleDef_orientDef_180.png"" style= ""width:200px""alt=""img"">
                            </div>
                        </div>","-200","","0","","","","images/map23_Purples_scaleDef_orientDef_180.png","angry","1","23","23","Purples","orientDef","scaleDef","180","",""
"","","","","","html-slider-response","104","277060","0.0-100.0","flxdtjfsp0","46","NaN","<div style=""width:500px;"">
                            <p style=""font-size:50px; font-weight:bold;""
                            >angry</p>
                            <div style=""width:240px; margin: auto;"">
                                <img src=""images/map15_inferno_scaleDef_orientDef_180.png"" style= ""width:200px""alt=""img"">
                            </div>
                        </div>","99","","0","","","","images/map15_inferno_scaleDef_orientDef_180.png","angry","1","15","15","inferno","orientDef","scaleDef","180","",""
"","","","","","html-slider-response","105","278593","0.0-101.0","flxdtjfsp0","46","NaN","<div style=""width:500px;"">
                            <p style=""font-size:50px; font-weight:bold;""
                            >angry</p>
                            <div style=""width:240px; margin: auto;"">
                                <img src=""images/map05_PiYG_scaleRev_orientMir_090.png"" style= ""width:200px""alt=""img"">
                            </div>
                        </div>","-200","","0","","","","images/map05_PiYG_scaleRev_orientMir_090.png","angry","1","05","05","PiYG","orientMir","scaleRev","090","",""
"","","","","","html-slider-response","106","280144","0.0-102.0","flxdtjfsp0","46","NaN","<div style=""width:500px;"">
                            <p style=""font-size:50px; font-weight:bold;""
                            >angry</p>
                            <div style=""width:240px; margin: auto;"">
                                <img src=""images/map12_managua_scaleRev_orientMir_270.png"" style= ""width:200px""alt=""img"">
                            </div>
                        </div>","106","","0","","","","images/map12_managua_scaleRev_orientMir_270.png","angry","1","12","12","managua","orientMir","scaleRev","270","",""
"","","","","","html-slider-response","107","281794","0.0-103.0","flxdtjfsp0","46","NaN","<div style=""width:500px;"">
                            <p style=""font-size:50px; font-weight:bold;""
                            >angry</p>
                            <div style=""width:240px; margin: auto;"">
                                <img src=""images/map12_managua_scaleDef_orientMir_180.png"" style= ""width:200px""alt=""img"">
                            </div>
                        </div>","114","","0","","","","images/map12_managua_scaleDef_orientMir_180.png","angry","1","12","12","managua","orientMir","scaleDef","180","",""
"","","","","","html-slider-response","108","286327","0.0-104.0","flxdtjfsp0","46","NaN","<div style=""width:500px;"">
                            <p style=""font-size:50px; font-weight:bold;""
                            >angry</p>
                            <div style=""width:240px; margin: auto;"">
                                <img src=""images/map07_RdGy_scaleRev_orientMir_090.png"" style= ""width:200px""alt=""img"">
                            </div>
                        </div>","138","","0","","","","images/map07_RdGy_scaleRev_orientMir_090.png","angry","1","07","07","RdGy","orientMir","scaleRev","090","",""
"","","","","","html-slider-response","109","287543","0.0-105.0","flxdtjfsp0","46","NaN","<div style=""width:500px;"">
                            <p style=""font-size:50px; font-weight:bold;""
                            >angry</p>
                            <div style=""width:240px; margin: auto;"">
                                <img src=""images/map10_RdYlBu_scaleRev_orientDef_090.png"" style= ""width:200px""alt=""img"">
                            </div>
                        </div>","3","","0","","","","images/map10_RdYlBu_scaleRev_orientDef_090.png","angry","1","10","10","RdYlBu","orientDef","scaleRev","090","",""
"","","","","","html-slider-response","110","304843","0.0-106.0","flxdtjfsp0","46","NaN","<div style=""width:500px;"">
                            <p style=""font-size:50px; font-weight:bold;""
                            >angry</p>
                            <div style=""width:240px; margin: auto;"">
                                <img src=""images/map05_YlGn_scaleDef_orientDef_180.png"" style= ""width:200px""alt=""img"">
                            </div>
                        </div>","-198","","0","","","","images/map05_YlGn_scaleDef_orientDef_180.png","angry","1","05","05","YlGn","orientDef","scaleDef","180","",""
"","","","","","html-slider-response","111","306576","0.0-107.0","flxdtjfsp0","46","NaN","<div style=""width:500px;"">
                            <p style=""font-size:50px; font-weight:bold;""
                            >angry</p>
                            <div style=""width:240px; margin: auto;"">
                                <img src=""images/map10_RdYlGn_scaleDef_orientDef_180.png"" style= ""width:200px""alt=""img"">
                            </div>
                        </div>","51","","0","","","","images/map10_RdYlGn_scaleDef_orientDef_180.png","angry","1","10","10","RdYlGn","orientDef","scaleDef","180","",""
"","","","","","html-slider-response","112","308093","0.0-108.0","flxdtjfsp0","46","NaN","<div style=""width:500px;"">
                            <p style=""font-size:50px; font-weight:bold;""
                            >angry</p>
                            <div style=""width:240px; margin: auto;"">
                                <img src=""images/map10_Spectral_scaleDef_orientMir_000.png"" style= ""width:200px""alt=""img"">
                            </div>
                        </div>","61","","0","","","","images/map10_Spectral_scaleDef_orientMir_000.png","angry","1","10","10","Spectral","orientMir","scaleDef","000","",""
"","","","","","html-slider-response","113","309710","0.0-109.0","flxdtjfsp0","46","NaN","<div style=""width:500px;"">
                            <p style=""font-size:50px; font-weight:bold;""
                            >angry</p>
                            <div style=""width:240px; margin: auto;"">
                                <img src=""images/map26_YlOrBr_scaleDef_orientMir_000.png"" style= ""width:200px""alt=""img"">
                            </div>
                        </div>","163","","0","","","","images/map26_YlOrBr_scaleDef_orientMir_000.png","angry","1","26","26","YlOrBr","orientMir","scaleDef","000","",""
"","","","","","html-slider-response","114","311410","0.0-110.0","flxdtjfsp0","46","NaN","<div style=""width:500px;"">
                            <p style=""font-size:50px; font-weight:bold;""
                            >angry</p>
                            <div style=""width:240px; margin: auto;"">
                                <img src=""images/map12_bwr_scaleRev_orientDef_090.png"" style= ""width:200px""alt=""img"">
                            </div>
                        </div>","166","","0","","","","images/map12_bwr_scaleRev_orientDef_090.png","angry","1","12","12","bwr","orientDef","scaleRev","090","",""
"","","","","","html-slider-response","115","316893","0.0-111.0","flxdtjfsp0","46","NaN","<div style=""width:500px;"">
                            <p style=""font-size:50px; font-weight:bold;""
                            >angry</p>
                            <div style=""width:240px; margin: auto;"">
                                <img src=""images/map07_RdBu_scaleDef_orientMir_180.png"" style= ""width:200px""alt=""img"">
                            </div>
                        </div>","134","","0","","","","images/map07_RdBu_scaleDef_orientMir_180.png","angry","1","07","07","RdBu","orientMir","scaleDef","180","",""
"","","","","","html-slider-response","116","318726","0.0-112.0","flxdtjfsp0","46","NaN","<div style=""width:500px;"">
                            <p style=""font-size:50px; font-weight:bold;""
                            >angry</p>
                            <div style=""width:240px; margin: auto;"">
                                <img src=""images/map07_PuOr_scaleDef_orientDef_180.png"" style= ""width:200px""alt=""img"">
                            </div>
                        </div>","116","","0","","","","images/map07_PuOr_scaleDef_orientDef_180.png","angry","1","07","07","PuOr","orientDef","scaleDef","180","",""
"","","","","","html-slider-response","117","320360","0.0-113.0","flxdtjfsp0","46","NaN","<div style=""width:500px;"">
                            <p style=""font-size:50px; font-weight:bold;""
                            >angry</p>
                            <div style=""width:240px; margin: auto;"">
                                <img src=""images/map07_BrBG_scaleRev_orientDef_090.png"" style= ""width:200px""alt=""img"">
                            </div>
                        </div>","58","","0","","","","images/map07_BrBG_scaleRev_orientDef_090.png","angry","1","07","07","BrBG","orientDef","scaleRev","090","",""
"","","","","","html-slider-response","118","321943","0.0-114.0","flxdtjfsp0","46","NaN","<div style=""width:500px;"">
                            <p style=""font-size:50px; font-weight:bold;""
                            >angry</p>
                            <div style=""width:240px; margin: auto;"">
                                <img src=""images/map13_viridis_scaleRev_orientMir_270.png"" style= ""width:200px""alt=""img"">
                            </div>
                        </div>","-200","","0","","","","images/map13_viridis_scaleRev_orientMir_270.png","angry","1","13","13","viridis","orientMir","scaleRev","270","",""
"","","","","","html-slider-response","119","323895","0.0-115.0","flxdtjfsp0","46","NaN","<div style=""width:500px;"">
                            <p style=""font-size:50px; font-weight:bold;""
                            >angry</p>
                            <div style=""width:240px; margin: auto;"">
                                <img src=""images/map26_YlOrRd_scaleDef_orientMir_180.png"" style= ""width:200px""alt=""img"">
                            </div>
                        </div>","200","","0","","","","images/map26_YlOrRd_scaleDef_orientMir_180.png","angry","1","26","26","YlOrRd","orientMir","scaleDef","180","",""
"","","","","","html-slider-response","120","325493","0.0-116.0","flxdtjfsp0","46","NaN","<div style=""width:500px;"">
                            <p style=""font-size:50px; font-weight:bold;""
                            >angry</p>
                            <div style=""width:240px; margin: auto;"">
                                <img src=""images/map27_RdPu_scaleDef_orientMir_000.png"" style= ""width:200px""alt=""img"">
                            </div>
                        </div>","-200","","0","","","","images/map27_RdPu_scaleDef_orientMir_000.png","angry","1","27","27","RdPu","orientMir","scaleDef","000","",""
"","","","","","html-slider-response","121","326960","0.0-117.0","flxdtjfsp0","46","NaN","<div style=""width:500px;"">
                            <p style=""font-size:50px; font-weight:bold;""
                            >angry</p>
                            <div style=""width:240px; margin: auto;"">
                                <img src=""images/map23_Greens_scaleRev_orientMir_270.png"" style= ""width:200px""alt=""img"">
                            </div>
                        </div>","-200","","0","","","","images/map23_Greens_scaleRev_orientMir_270.png","angry","1","23","23","Greens","orientMir","scaleRev","270","",""
"","","","","","html-slider-response","122","328443","0.0-118.0","flxdtjfsp0","46","NaN","<div style=""width:500px;"">
                            <p style=""font-size:50px; font-weight:bold;""
                            >angry</p>
                            <div style=""width:240px; margin: auto;"">
                                <img src=""images/map15_magma_scaleDef_orientMir_000.png"" style= ""width:200px""alt=""img"">
                            </div>
                        </div>","118","","0","","","","images/map15_magma_scaleDef_orientMir_000.png","angry","1","15","15","magma","orientMir","scaleDef","000","",""
"","","","","","html-slider-response","123","330043","0.0-119.0","flxdtjfsp0","46","NaN","<div style=""width:500px;"">
                            <p style=""font-size:50px; font-weight:bold;""
                            >angry</p>
                            <div style=""width:240px; margin: auto;"">
                                <img src=""images/map12_seismic_scaleRev_orientDef_270.png"" style= ""width:200px""alt=""img"">
                            </div>
                        </div>","149","","0","","","","images/map12_seismic_scaleRev_orientDef_270.png","angry","1","12","12","seismic","orientDef","scaleRev","270","",""
"","","","","","html-slider-response","124","332143","0.0-120.0","flxdtjfsp0","46","NaN","<div style=""width:500px;"">
                            <p style=""font-size:50px; font-weight:bold;""
                            >angry</p>
                            <div style=""width:240px; margin: auto;"">
                                <img src=""images/map15_cividis_scaleDef_orientMir_180.png"" style= ""width:200px""alt=""img"">
                            </div>
                        </div>","35","","0","","","","images/map15_cividis_scaleDef_orientMir_180.png","angry","1","15","15","cividis","orientMir","scaleDef","180","",""
"","","","","","html-slider-response","125","333526","0.0-121.0","flxdtjfsp0","46","NaN","<div style=""width:500px;"">
                            <p style=""font-size:50px; font-weight:bold;""
                            >angry</p>
                            <div style=""width:240px; margin: auto;"">
                                <img src=""images/map05_YlGn_scaleRev_orientDef_270.png"" style= ""width:200px""alt=""img"">
                            </div>
                        </div>","-200","","0","","","","images/map05_YlGn_scaleRev_orientDef_270.png","angry","1","05","05","YlGn","orientDef","scaleRev","270","",""
"","","","","","html-slider-response","126","335226","0.0-122.0","flxdtjfsp0","46","NaN","<div style=""width:500px;"">
                            <p style=""font-size:50px; font-weight:bold;""
                            >angry</p>
                            <div style=""width:240px; margin: auto;"">
                                <img src=""images/map23_Blues_scaleRev_orientMir_090.png"" style= ""width:200px""alt=""img"">
                            </div>
                        </div>","-200","","0","","","","images/map23_Blues_scaleRev_orientMir_090.png","angry","1","23","23","Blues","orientMir","scaleRev","090","",""
"","","","","","html-slider-response","127","336727","0.0-123.0","flxdtjfsp0","46","NaN","<div style=""width:500px;"">
                            <p style=""font-size:50px; font-weight:bold;""
                            >angry</p>
                            <div style=""width:240px; margin: auto;"">
                                <img src=""images/map02_PuBu_scaleDef_orientDef_180.png"" style= ""width:200px""alt=""img"">
                            </div>
                        </div>","-200","","0","","","","images/map02_PuBu_scaleDef_orientDef_180.png","angry","1","02","02","PuBu","orientDef","scaleDef","180","",""
"","","","","","html-slider-response","128","342443","0.0-124.0","flxdtjfsp0","46","NaN","<div style=""width:500px;"">
                            <p style=""font-size:50px; font-weight:bold;""
                            >angry</p>
                            <div style=""width:240px; margin: auto;"">
                                <img src=""images/map13_vanimo_scaleDef_orientDef_000.png"" style= ""width:200px""alt=""img"">
                            </div>
                        </div>","10","","0","","","","images/map13_vanimo_scaleDef_orientDef_000.png","angry","1","13","13","vanimo","orientDef","scaleDef","000","",""
"","","","","","html-slider-response","129","343842","0.0-125.0","flxdtjfsp0","46","NaN","<div style=""width:500px;"">
                            <p style=""font-size:50px; font-weight:bold;""
                            >angry</p>
                            <div style=""width:240px; margin: auto;"">
                                <img src=""images/map23_Greys_scaleRev_orientDef_090.png"" style= ""width:200px""alt=""img"">
                            </div>
                        </div>","14","","0","","","","images/map23_Greys_scaleRev_orientDef_090.png","angry","1","23","23","Greys","orientDef","scaleRev","090","",""
"","","","","","html-slider-response","130","345293","0.0-126.0","flxdtjfsp0","46","NaN","<div style=""width:500px;"">
                            <p style=""font-size:50px; font-weight:bold;""
                            >angry</p>
                            <div style=""width:240px; margin: auto;"">
                                <img src=""images/map23_Greens_scaleDef_orientMir_180.png"" style= ""width:200px""alt=""img"">
                            </div>
                        </div>","-200","","0","","","","images/map23_Greens_scaleDef_orientMir_180.png","angry","1","23","23","Greens","orientMir","scaleDef","180","",""
"","","","","","html-slider-response","131","347012","0.0-127.0","flxdtjfsp0","46","NaN","<div style=""width:500px;"">
                            <p style=""font-size:50px; font-weight:bold;""
                            >angry</p>
                            <div style=""width:240px; margin: auto;"">
                                <img src=""images/map10_coolwarm_scaleRev_orientMir_270.png"" style= ""width:200px""alt=""img"">
                            </div>
                        </div>","44","","0","","","","images/map10_coolwarm_scaleRev_orientMir_270.png","angry","1","10","10","coolwarm","orientMir","scaleRev","270","",""
"","","","","","html-slider-response","132","348495","0.0-128.0","flxdtjfsp0","46","NaN","<div style=""width:500px;"">
                            <p style=""font-size:50px; font-weight:bold;""
                            >angry</p>
                            <div style=""width:240px; margin: auto;"">
                                <img src=""images/map07_RdBu_scaleRev_orientMir_270.png"" style= ""width:200px""alt=""img"">
                            </div>
                        </div>","66","","0","","","","images/map07_RdBu_scaleRev_orientMir_270.png","angry","1","07","07","RdBu","orientMir","scaleRev","270","",""
"","","","","","html-slider-response","133","350159","0.0-129.0","flxdtjfsp0","46","NaN","<div style=""width:500px;"">
                            <p style=""font-size:50px; font-weight:bold;""
                            >angry</p>
                            <div style=""width:240px; margin: auto;"">
                                <img src=""images/map15_plasma_scaleRev_orientDef_090.png"" style= ""width:200px""alt=""img"">
                            </div>
                        </div>","2","","0","","","","images/map15_plasma_scaleRev_orientDef_090.png","angry","1","15","15","plasma","orientDef","scaleRev","090","",""
"","","","","","html-slider-response","134","351628","0.0-130.0","flxdtjfsp0","46","NaN","<div style=""width:500px;"">
                            <p style=""font-size:50px; font-weight:bold;""
                            >angry</p>
                            <div style=""width:240px; margin: auto;"">
                                <img src=""images/map02_PuBuGn_scaleRev_orientMir_270.png"" style= ""width:200px""alt=""img"">
                            </div>
                        </div>","-200","","0","","","","images/map02_PuBuGn_scaleRev_orientMir_270.png","angry","1","02","02","PuBuGn","orientMir","scaleRev","270","",""
"","","","","","html-slider-response","135","353093","0.0-131.0","flxdtjfsp0","46","NaN","<div style=""width:500px;"">
                            <p style=""font-size:50px; font-weight:bold;""
                            >angry</p>
                            <div style=""width:240px; margin: auto;"">
                                <img src=""images/map15_magma_scaleRev_orientMir_090.png"" style= ""width:200px""alt=""img"">
                            </div>
                        </div>","56","","0","","","","images/map15_magma_scaleRev_orientMir_090.png","angry","1","15","15","magma","orientMir","scaleRev","090","",""
"","","","","","html-slider-response","136","354577","0.0-132.0","flxdtjfsp0","46","NaN","<div style=""width:500px;"">
                            <p style=""font-size:50px; font-weight:bold;""
                            >angry</p>
                            <div style=""width:240px; margin: auto;"">
                                <img src=""images/map26_Oranges_scaleDef_orientDef_000.png"" style= ""width:200px""alt=""img"">
                            </div>
                        </div>","197","","0","","","","images/map26_Oranges_scaleDef_orientDef_000.png","angry","1","26","26","Oranges","orientDef","scaleDef","000","",""
"","","","","","html-slider-response","137","356410","0.0-133.0","flxdtjfsp0","46","NaN","<div style=""width:500px;"">
                            <p style=""font-size:50px; font-weight:bold;""
                            >angry</p>
                            <div style=""width:240px; margin: auto;"">
                                <img src=""images/map12_berlin_scaleRev_orientMir_090.png"" style= ""width:200px""alt=""img"">
                            </div>
                        </div>","89","","0","","","","images/map12_berlin_scaleRev_orientMir_090.png","angry","1","12","12","berlin","orientMir","scaleRev","090","",""
"","","","","","html-slider-response","138","357745","0.0-134.0","flxdtjfsp0","46","NaN","<div style=""width:500px;"">
                            <p style=""font-size:50px; font-weight:bold;""
                            >angry</p>
                            <div style=""width:240px; margin: auto;"">
                                <img src=""images/map23_Blues_scaleDef_orientMir_000.png"" style= ""width:200px""alt=""img"">
                            </div>
                        </div>","-200","","0","","","","images/map23_Blues_scaleDef_orientMir_000.png","angry","1","23","23","Blues","orientMir","scaleDef","000","",""
"","","","","","html-slider-response","139","364043","0.0-135.0","flxdtjfsp0","46","NaN","<div style=""width:500px;"">
                            <p style=""font-size:50px; font-weight:bold;""
                            >angry</p>
                            <div style=""width:240px; margin: auto;"">
                                <img src=""images/map13_vanimo_scaleRev_orientDef_090.png"" style= ""width:200px""alt=""img"">
                            </div>
                        </div>","8","","0","","","","images/map13_vanimo_scaleRev_orientDef_090.png","angry","1","13","13","vanimo","orientDef","scaleRev","090","",""
"","","","","","html-slider-response","140","365544","0.0-136.0","flxdtjfsp0","46","NaN","<div style=""width:500px;"">
                            <p style=""font-size:50px; font-weight:bold;""
                            >angry</p>
                            <div style=""width:240px; margin: auto;"">
                                <img src=""images/map05_BuGn_scaleDef_orientDef_000.png"" style= ""width:200px""alt=""img"">
                            </div>
                        </div>","-200","","0","","","","images/map05_BuGn_scaleDef_orientDef_000.png","angry","1","05","05","BuGn","orientDef","scaleDef","000","",""
"","","","","","html-button-response","141","367715","0.0-137.0","flxdtjfsp0","46","1668","<p>You are doing great!<br></br> You are halway done with the current block. When you are ready to continue, click the 'Continue' button.</p>","0","","","","","","","","","","","","","","","",""
"","","","","","html-slider-response","142","371011","0.0-138.0","flxdtjfsp0","46","NaN","<div style=""width:500px;"">
                            <p style=""font-size:50px; font-weight:bold;""
                            >angry</p>
                            <div style=""width:240px; margin: auto;"">
                                <img src=""images/map27_RdPu_scaleRev_orientMir_090.png"" style= ""width:200px""alt=""img"">
                            </div>
                        </div>","-200","","0","","","","images/map27_RdPu_scaleRev_orientMir_090.png","angry","1","27","27","RdPu","orientMir","scaleRev","090","",""
"","","","","","html-slider-response","143","372810","0.0-139.0","flxdtjfsp0","46","NaN","<div style=""width:500px;"">
                            <p style=""font-size:50px; font-weight:bold;""
                            >angry</p>
                            <div style=""width:240px; margin: auto;"">
                                <img src=""images/map02_PuBu_scaleRev_orientDef_270.png"" style= ""width:200px""alt=""img"">
                            </div>
                        </div>","-200","","0","","","","images/map02_PuBu_scaleRev_orientDef_270.png","angry","1","02","02","PuBu","orientDef","scaleRev","270","",""
"","","","","","html-slider-response","144","374343","0.0-140.0","flxdtjfsp0","46","NaN","<div style=""width:500px;"">
                            <p style=""font-size:50px; font-weight:bold;""
                            >angry</p>
                            <div style=""width:240px; margin: auto;"">
                                <img src=""images/map10_RdYlGn_scaleRev_orientDef_270.png"" style= ""width:200px""alt=""img"">
                            </div>
                        </div>","74","","0","","","","images/map10_RdYlGn_scaleRev_orientDef_270.png","angry","1","10","10","RdYlGn","orientDef","scaleRev","270","",""
"","","","","","html-slider-response","145","376092","0.0-141.0","flxdtjfsp0","46","NaN","<div style=""width:500px;"">
                            <p style=""font-size:50px; font-weight:bold;""
                            >angry</p>
                            <div style=""width:240px; margin: auto;"">
                                <img src=""images/map07_BrBG_scaleDef_orientDef_000.png"" style= ""width:200px""alt=""img"">
                            </div>
                        </div>","-200","","0","","","","images/map07_BrBG_scaleDef_orientDef_000.png","angry","1","07","07","BrBG","orientDef","scaleDef","000","",""
"","","","","","html-slider-response","146","377542","0.0-142.0","flxdtjfsp0","46","NaN","<div style=""width:500px;"">
                            <p style=""font-size:50px; font-weight:bold;""
                            >angry</p>
                            <div style=""width:240px; margin: auto;"">
                                <img src=""images/map02_GnBu_scaleDef_orientDef_000.png"" style= ""width:200px""alt=""img"">
                            </div>
                        </div>","-200","","0","","","","images/map02_GnBu_scaleDef_orientDef_000.png","angry","1","02","02","GnBu","orientDef","scaleDef","000","",""
"","","","","","html-slider-response","147","381395","0.0-143.0","flxdtjfsp0","46","NaN","<div style=""width:500px;"">
                            <p style=""font-size:50px; font-weight:bold;""
                            >angry</p>
                            <div style=""width:240px; margin: auto;"">
                                <img src=""images/map26_Reds_scaleDef_orientDef_180.png"" style= ""width:200px""alt=""img"">
                            </div>
                        </div>","200","","0","","","","images/map26_Reds_scaleDef_orientDef_180.png","angry","1","26","26","Reds","orientDef","scaleDef","180","",""
"","","","","","html-slider-response","148","382976","0.0-144.0","flxdtjfsp0","46","NaN","<div style=""width:500px;"">
                            <p style=""font-size:50px; font-weight:bold;""
                            >angry</p>
                            <div style=""width:240px; margin: auto;"">
                                <img src=""images/map12_bwr_scaleDef_orientDef_000.png"" style= ""width:200px""alt=""img"">
                            </div>
                        </div>","142","","0","","","","images/map12_bwr_scaleDef_orientDef_000.png","angry","1","12","12","bwr","orientDef","scaleDef","000","",""
"","","","","","html-slider-response","149","385094","0.0-145.0","flxdtjfsp0","46","NaN","<div style=""width:500px;"">
                            <p style=""font-size:50px; font-weight:bold;""
                            >angry</p>
                            <div style=""width:240px; margin: auto;"">
                                <img src=""images/map26_Reds_scaleRev_orientDef_270.png"" style= ""width:200px""alt=""img"">
                            </div>
                        </div>","200","","0","","","","images/map26_Reds_scaleRev_orientDef_270.png","angry","1","26","26","Reds","orientDef","scaleRev","270","",""
"","","","","","html-slider-response","150","386644","0.0-146.0","flxdtjfsp0","46","NaN","<div style=""width:500px;"">
                            <p style=""font-size:50px; font-weight:bold;""
                            >angry</p>
                            <div style=""width:240px; margin: auto;"">
                                <img src=""images/map27_OrRd_scaleDef_orientDef_000.png"" style= ""width:200px""alt=""img"">
                            </div>
                        </div>","200","","0","","","","images/map27_OrRd_scaleDef_orientDef_000.png","angry","1","27","27","OrRd","orientDef","scaleDef","000","",""
"","","","","","html-slider-response","151","388444","0.0-147.0","flxdtjfsp0","46","NaN","<div style=""width:500px;"">
                            <p style=""font-size:50px; font-weight:bold;""
                            >angry</p>
                            <div style=""width:240px; margin: auto;"">
                                <img src=""images/map05_BuGn_scaleRev_orientDef_090.png"" style= ""width:200px""alt=""img"">
                            </div>
                        </div>","-200","","0","","","","images/map05_BuGn_scaleRev_orientDef_090.png","angry","1","05","05","BuGn","orientDef","scaleRev","090","",""
"","","","","","html-slider-response","152","390376","0.0-148.0","flxdtjfsp0","46","NaN","<div style=""width:500px;"">
                            <p style=""font-size:50px; font-weight:bold;""
                            >angry</p>
                            <div style=""width:240px; margin: auto;"">
                                <img src=""images/map13_turbo_scaleRev_orientMir_090.png"" style= ""width:200px""alt=""img"">
                            </div>
                        </div>","4","","0","","","","images/map13_turbo_scaleRev_orientMir_090.png","angry","1","13","13","turbo","orientMir","scaleRev","090","",""
"","","","","","html-slider-response","153","391676","0.0-149.0","flxdtjfsp0","46","NaN","<div style=""width:500px;"">
                            <p style=""font-size:50px; font-weight:bold;""
                            >angry</p>
                            <div style=""width:240px; margin: auto;"">
                                <img src=""images/map02_GnBu_scaleRev_orientDef_090.png"" style= ""width:200px""alt=""img"">
                            </div>
                        </div>","-200","","0","","","","images/map02_GnBu_scaleRev_orientDef_090.png","angry","1","02","02","GnBu","orientDef","scaleRev","090","",""
"","","","","","html-slider-response","154","393359","0.0-150.0","flxdtjfsp0","46","NaN","<div style=""width:500px;"">
                            <p style=""font-size:50px; font-weight:bold;""
                            >angry</p>
                            <div style=""width:240px; margin: auto;"">
                                <img src=""images/map10_Spectral_scaleRev_orientMir_090.png"" style= ""width:200px""alt=""img"">
                            </div>
                        </div>","22","","0","","","","images/map10_Spectral_scaleRev_orientMir_090.png","angry","1","10","10","Spectral","orientMir","scaleRev","090","",""
"","","","","","html-slider-response","155","395175","0.0-151.0","flxdtjfsp0","46","NaN","<div style=""width:500px;"">
                            <p style=""font-size:50px; font-weight:bold;""
                            >angry</p>
                            <div style=""width:240px; margin: auto;"">
                                <img src=""images/map27_PuRd_scaleRev_orientDef_270.png"" style= ""width:200px""alt=""img"">
                            </div>
                        </div>","-189","","0","","","","images/map27_PuRd_scaleRev_orientDef_270.png","angry","1","27","27","PuRd","orientDef","scaleRev","270","",""
"","","","","","html-slider-response","156","397060","0.0-152.0","flxdtjfsp0","46","NaN","<div style=""width:500px;"">
                            <p style=""font-size:50px; font-weight:bold;""
                            >angry</p>
                            <div style=""width:240px; margin: auto;"">
                                <img src=""images/map23_Greys_scaleDef_orientDef_000.png"" style= ""width:200px""alt=""img"">
                            </div>
                        </div>","12","","0","","","","images/map23_Greys_scaleDef_orientDef_000.png","angry","1","23","23","Greys","orientDef","scaleDef","000","",""
"","","","","","html-slider-response","157","399109","0.0-153.0","flxdtjfsp0","46","NaN","<div style=""width:500px;"">
                            <p style=""font-size:50px; font-weight:bold;""
                            >angry</p>
                            <div style=""width:240px; margin: auto;"">
                                <img src=""images/map13_gist_earth_scaleDef_orientDef_180.png"" style= ""width:200px""alt=""img"">
                            </div>
