"success","timeout","failed_images","failed_audio","failed_video","trial_type","trial_index","time_elapsed","internal_node_id","subject_id","condition_num","rt","stimulus","response","question_order","slider_start","practiceTrial","practiceTrialNum","correct","image_path","concept","repetition","map_id","map_num","scale_name","orientation_code","mapping_code","rotation_code","ishihara_plate","correct_response"
"true","false","[]","[]","[]","preload","0","386","0.0-0.0","gpx4da409v","56","","","","","","","","","","","","","","","","","","",""
"","","","","","html-button-response","1","1606","0.0-1.0","gpx4da409v","56","1218","Welcome to our experiment!<p>At the bottom of this screen, you will see a button that says ""Begin Experiment"".<br>Please only click that button when you are ready to complete the 30 minute experiment in one sitting.</p><p> Once you click that button, it will not be possible to restart the experiment.","0","","","","","","","","","","","","","","","",""
"true","","","","","fullscreen","2","3957","0.0-2.0","gpx4da409v","56","1348","","","","","","","","","","","","","","","","","",""
"","","","","","survey-multi-select","3","10908","0.0-3.0","gpx4da409v","56","6948","","{""Consent"":[""<strong>I consent</strong>""]}","[0]","","","","","","","","","","","","","","",""
"","","","","","html-button-response","4","12122","0.0-4.0","gpx4da409v","56","1213","Welcome! <p> This experiment involves two parts: demographic information, followed by the experimental task.<p> It will take about 30 minutes to complete both parts.","0","","","","","","","","","","","","","","","",""
"","","","","","survey-text","5","24807","0.0-5.0","gpx4da409v","56","12677","","{""Age"":""18"",""Gender"":""female"",""Race/ethnicity"":""white"",""Languages"":""english""}","","","","","","","","","","","","","","","",""
"","","","","","html-slider-response","6","53789","0.0-6.0","gpx4da409v","56","28978","<div style='text-align:left; font-size:20px; line-height:25px; width: 1000px;'>
                                During this experiment you will be asked to rate how much you associate maps with                    different concepts.<br> Below, you can see some examples of the maps you will be asked to rate. Above the maps
                    is the list of concepts.<br>You will be asked                    to rate how much you associate each map with each concept on a scale from 'not at all' to 'very much' like the
                    one below. <br><br>
                    Now, please look at the list of concepts and maps. For each concept, think about the map you associate 'very
                    much' with the concept.<br>                     When you see that map during the experiment, please rate it near the 'very much' endpoint of the
                    scale.<br>Now, please think about which map you associate 'not at all'                     with each concept. When you see that map during the experiment, please rate it near the 'not at all' endpoint
                    of the scale.<br>
                    Please use the full range of the scale. That is, if a map is somewhat associated with the concept, you would
                    click partway between the middle point and right side of the scale.                    You will be asked to rate each map for a given concept before moving on to the next concept.<br>Press the
                    'Continue' button for instructions on how to use the slider.                    <br>
                </div>

                <div style=""width: 500px; margin: 0 auto;"">
                    <!-- Centered text paragraphs -->
                    <div style=""text-align: center; width: 500px;"">
                        <p style=""font-size:25px; line-height:15px;"">
                            happy&nbsp;&nbsp;&nbsp;&nbsp;
                            disgust&nbsp;&nbsp;&nbsp;&nbsp;
                            fearful&nbsp;&nbsp;&nbsp;&nbsp;
                            sad&nbsp;&nbsp;&nbsp;&nbsp;
                            angry
                        </p>
                        <!-- <p style=""font-size:20px; line-height:15px;"">disgust</p>
                        <p style=""font-size:20px;line-height:15px;"">fearful</p>
                        <p style=""font-size:20px;line-height:15px;"">sad</p>
                        <p style=""font-size:20px;line-height:15px;"">angry</p> -->
                    </div>
            

                    <!-- Grid section -->
                   <div style=""display: flex; justify-content: center; padding-top: 15px;"">
                    <div style=""display: grid; grid-template-columns: repeat(10, 55px); grid-gap: 5px; width: auto;"">
                        <img src=""images/map23_viridis_scaleRev_orientDef_090.png"" alt=""map"" style=""width: 100%;""><img src=""images/map05_YlGnBu_scaleDef_orientMir_180.png"" alt=""map"" style=""width: 100%;""><img src=""images/map13_seismic_scaleRev_orientMir_090.png"" alt=""map"" style=""width: 100%;""><img src=""images/map27_YlOrBr_scaleDef_orientMir_180.png"" alt=""map"" style=""width: 100%;""><img src=""images/map05_GnBu_scaleRev_orientDef_270.png"" alt=""map"" style=""width: 100%;""><img src=""images/map05_BuPu_scaleDef_orientDef_000.png"" alt=""map"" style=""width: 100%;""><img src=""images/map05_PuBu_scaleRev_orientMir_090.png"" alt=""map"" style=""width: 100%;""><img src=""images/map07_PuBuGn_scaleRev_orientDef_090.png"" alt=""map"" style=""width: 100%;""><img src=""images/map12_RdYlGn_scaleDef_orientMir_000.png"" alt=""map"" style=""width: 100%;""><img src=""images/map10_PRGn_scaleRev_orientDef_090.png"" alt=""map"" style=""width: 100%;""><img src=""images/map12_RdBu_scaleRev_orientDef_090.png"" alt=""map"" style=""width: 100%;""><img src=""images/map15_gist_earth_scaleDef_orientMir_000.png"" alt=""map"" style=""width: 100%;""><img src=""images/map13_bwr_scaleRev_orientDef_270.png"" alt=""map"" style=""width: 100%;""><img src=""images/map23_magma_scaleRev_orientMir_270.png"" alt=""map"" style=""width: 100%;""><img src=""images/map26_Greys_scaleRev_orientDef_270.png"" alt=""map"" style=""width: 100%;""><img src=""images/map07_PiYG_scaleDef_orientMir_180.png"" alt=""map"" style=""width: 100%;""><img src=""images/map07_YlGn_scaleRev_orientMir_090.png"" alt=""map"" style=""width: 100%;""><img src=""images/map12_RdYlBu_scaleRev_orientDef_270.png"" alt=""map"" style=""width: 100%;""><img src=""images/map27_Oranges_scaleDef_orientDef_180.png"" alt=""map"" style=""width: 100%;""><img src=""images/map13_berlin_scaleRev_orientMir_270.png"" alt=""map"" style=""width: 100%;""><img src=""images/map12_Spectral_scaleDef_orientMir_180.png"" alt=""map"" style=""width: 100%;""><img src=""images/map10_PuOr_scaleDef_orientMir_000.png"" alt=""map"" style=""width: 100%;""><img src=""images/map02_YlOrRd_scaleDef_orientDef_000.png"" alt=""map"" style=""width: 100%;""><img src=""images/map27_Reds_scaleDef_orientMir_000.png"" alt=""map"" style=""width: 100%;""><img src=""images/map13_coolwarm_scaleDef_orientDef_000.png"" alt=""map"" style=""width: 100%;""><img src=""images/map02_OrRd_scaleRev_orientDef_270.png"" alt=""map"" style=""width: 100%;""><img src=""images/map10_RdGy_scaleRev_orientMir_270.png"" alt=""map"" style=""width: 100%;""><img src=""images/map26_cividis_scaleDef_orientDef_000.png"" alt=""map"" style=""width: 100%;""><img src=""images/map26_Blues_scaleDef_orientMir_180.png"" alt=""map"" style=""width: 100%;""><img src=""images/map10_BrBG_scaleRev_orientDef_270.png"" alt=""map"" style=""width: 100%;""><img src=""images/map07_BuGn_scaleDef_orientDef_180.png"" alt=""map"" style=""width: 100%;""><img src=""images/map27_Greens_scaleRev_orientDef_090.png"" alt=""map"" style=""width: 100%;""><img src=""images/map02_PuRd_scaleRev_orientMir_090.png"" alt=""map"" style=""width: 100%;""><img src=""images/map23_inferno_scaleRev_orientMir_090.png"" alt=""map"" style=""width: 100%;""><img src=""images/map15_vanimo_scaleRev_orientDef_270.png"" alt=""map"" style=""width: 100%;""><img src=""images/map26_Purples_scaleDef_orientMir_000.png"" alt=""map"" style=""width: 100%;""><img src=""images/map02_RdPu_scaleRev_orientMir_270.png"" alt=""map"" style=""width: 100%;""><img src=""images/map15_managua_scaleRev_orientDef_090.png"" alt=""map"" style=""width: 100%;""><img src=""images/map15_turbo_scaleDef_orientMir_180.png"" alt=""map"" style=""width: 100%;""><img src=""images/map23_plasma_scaleRev_orientDef_270.png"" alt=""map"" style=""width: 100%;"">
                    </div>
                </div>

                    <!-- Clear floats -->
                    <div style=""clear: both;""></div>
                </div>
                            ","-182","","0","true","","","","","","","","","","","","",""
"","","","","","html-button-response","7","55339","0.0-7.0","gpx4da409v","56","1549","<div style=""width:800px;""><p style=""text-align:left"">To move the slider, click and drag your cursor to the location of the scale where you would like to make your rating and then let go. When you let go of the slider, your response will be recorded and the next trial will begin. <br>
                    We are interested in your initial impressions of each map for the given concept, so please go with your first intuition. <br>
                    Before you begin the experiment, there will be four training trials for you to practice using the scale. <br>
                     When you are ready to start the training trials, please click ""Continue"".</p><br></div>","0","","","","","","","","","","","","","","","",""
"","","","","","html-slider-response","8","58783","0.0-8.0-0.0","gpx4da409v","56","NaN","<div style=""width:500px;"">
                                    <p style=""font-size:25px;"">Please move the slider all the way to the <br> right endpoint of the scale</p>

                                    </div>
                                </div>","200","","0","true","0","true","","","","","","","","","","",""
"","","","","","html-button-response","9","60222","0.0-8.0-1.0","gpx4da409v","56","936","<p align='center'><b>Good job!</b> Click on 'Continue' to proceed.</p>","0","","","","","","","","","","","","","","","",""
"","","","","","html-slider-response","10","62383","0.0-9.0-0.0","gpx4da409v","56","NaN","<div style=""width:500px;"">
                                    <p style=""font-size:25px;"">Please move the slider all the way to the <br> left endpoint of the scale</p>

                                    </div>
                                </div>","-200","","0","true","1","true","","","","","","","","","","",""
"","","","","","html-button-response","11","63822","0.0-9.0-1.0","gpx4da409v","56","936","<p align='center'><b>Good job!</b> Click on 'Continue' to proceed.</p>","0","","","","","","","","","","","","","","","",""
"","","","","","html-slider-response","12","68733","0.0-10.0-0.0","gpx4da409v","56","NaN","<div style=""width:500px;"">
                                    <p style=""font-size:25px;"">Please move the slider halfway between the center and right endpoint of the scale</p>

                                    </div>
                                </div>","4","","0","true","2","false","","","","","","","","","","",""
"","","","","","html-button-response","13","70905","0.0-10.0-1.0","gpx4da409v","56","1669","<p align='center'><b>Not quite!</b> The slider was not placed near the instructed located. Click on 'Continue' to try again. </p>","0","","","","","","","","","","","","","","","",""
"","","","","","html-slider-response","14","77733","0.0-10.1-0.1","gpx4da409v","56","NaN","<div style=""width:500px;"">
                                    <p style=""font-size:25px;"">Please move the slider halfway between the center and right endpoint of the scale</p>

                                    </div>
                                </div>","91","","0","true","2","true","","","","","","","","","","",""
"","","","","","html-button-response","15","79155","0.0-10.1-1.1","gpx4da409v","56","919","<p align='center'><b>Good job!</b> Click on 'Continue' to proceed.</p>","0","","","","","","","","","","","","","","","",""
"","","","","","html-slider-response","16","81883","0.0-11.0-0.0","gpx4da409v","56","NaN","<div style=""width:500px;"">
                                    <p style=""font-size:25px;"">Please move the slider halfway between the center and left endpoint of the scale</p>

                                    </div>
                                </div>","-98","","0","true","3","true","","","","","","","","","","",""
"","","","","","html-button-response","17","83372","0.0-11.0-1.0","gpx4da409v","56","987","<p align='center'><b>Good job!</b> Click on 'Continue' to proceed.</p>","0","","","","","","","","","","","","","","","",""
"","","","","","html-button-response","18","84755","0.0-12.0","gpx4da409v","56","1383","<p>Great job! You've completed the practice trials. Now you will begin the main task.</p>","0","","","","","","","","","","","","","","","",""
"","","","","","html-button-response","19","87805","0.0-13.0","gpx4da409v","56","3049","<p>In this block of trials, you will be asked to rate how much you associate each map with:</p > <p style = 'font-size:150%; font-weight: bold'>happy</p><br></br>","0","","","","","","","","","","","","","","","",""
"","","","","","html-slider-response","20","90252","0.0-14.0","gpx4da409v","56","NaN","<div style=""width:500px;"">
                            <p style=""font-size:50px; font-weight:bold;""
                            >happy</p>
                            <div style=""width:240px; margin: auto;"">
                                <img src=""images/map02_PuRd_scaleDef_orientMir_000.png"" style= ""width:200px""alt=""img"">
                            </div>
                        </div>","-60","","0","","","","images/map02_PuRd_scaleDef_orientMir_000.png","happy","1","02","02","PuRd","orientMir","scaleDef","000","",""
"","","","","","html-slider-response","21","92485","0.0-15.0","gpx4da409v","56","NaN","<div style=""width:500px;"">
                            <p style=""font-size:50px; font-weight:bold;""
                            >happy</p>
                            <div style=""width:240px; margin: auto;"">
                                <img src=""images/map05_YlGnBu_scaleRev_orientMir_270.png"" style= ""width:200px""alt=""img"">
                            </div>
                        </div>","50","","0","","","","images/map05_YlGnBu_scaleRev_orientMir_270.png","happy","1","05","05","YlGnBu","orientMir","scaleRev","270","",""
"","","","","","html-slider-response","22","94515","0.0-16.0","gpx4da409v","56","NaN","<div style=""width:500px;"">
                            <p style=""font-size:50px; font-weight:bold;""
                            >happy</p>
                            <div style=""width:240px; margin: auto;"">
                                <img src=""images/map10_PRGn_scaleDef_orientDef_000.png"" style= ""width:200px""alt=""img"">
                            </div>
                        </div>","-41","","0","","","","images/map10_PRGn_scaleDef_orientDef_000.png","happy","1","10","10","PRGn","orientDef","scaleDef","000","",""
"","","","","","html-slider-response","23","96316","0.0-17.0","gpx4da409v","56","NaN","<div style=""width:500px;"">
                            <p style=""font-size:50px; font-weight:bold;""
                            >happy</p>
                            <div style=""width:240px; margin: auto;"">
                                <img src=""images/map02_YlOrRd_scaleRev_orientDef_090.png"" style= ""width:200px""alt=""img"">
                            </div>
                        </div>","-22","","0","","","","images/map02_YlOrRd_scaleRev_orientDef_090.png","happy","1","02","02","YlOrRd","orientDef","scaleRev","090","",""
"","","","","","html-slider-response","24","98150","0.0-18.0","gpx4da409v","56","NaN","<div style=""width:500px;"">
                            <p style=""font-size:50px; font-weight:bold;""
                            >happy</p>
                            <div style=""width:240px; margin: auto;"">
                                <img src=""images/map15_turbo_scaleRev_orientMir_270.png"" style= ""width:200px""alt=""img"">
                            </div>
                        </div>","71","","0","","","","images/map15_turbo_scaleRev_orientMir_270.png","happy","1","15","15","turbo","orientMir","scaleRev","270","",""
"","","","","","html-slider-response","25","100784","0.0-19.0","gpx4da409v","56","NaN","<div style=""width:500px;"">
                            <p style=""font-size:50px; font-weight:bold;""
                            >happy</p>
                            <div style=""width:240px; margin: auto;"">
                                <img src=""images/map23_inferno_scaleRev_orientMir_090.png"" style= ""width:200px""alt=""img"">
                            </div>
                        </div>","53","","0","","","","images/map23_inferno_scaleRev_orientMir_090.png","happy","1","23","23","inferno","orientMir","scaleRev","090","",""
"","","","","","html-slider-response","26","102433","0.0-20.0","gpx4da409v","56","NaN","<div style=""width:500px;"">
                            <p style=""font-size:50px; font-weight:bold;""
                            >happy</p>
                            <div style=""width:240px; margin: auto;"">
                                <img src=""images/map23_viridis_scaleDef_orientDef_000.png"" style= ""width:200px""alt=""img"">
                            </div>
                        </div>","-53","","0","","","","images/map23_viridis_scaleDef_orientDef_000.png","happy","1","23","23","viridis","orientDef","scaleDef","000","",""
"","","","","","html-slider-response","27","103819","0.0-21.0","gpx4da409v","56","NaN","<div style=""width:500px;"">
                            <p style=""font-size:50px; font-weight:bold;""
                            >happy</p>
                            <div style=""width:240px; margin: auto;"">
                                <img src=""images/map26_cividis_scaleDef_orientDef_000.png"" style= ""width:200px""alt=""img"">
                            </div>
                        </div>","35","","0","","","","images/map26_cividis_scaleDef_orientDef_000.png","happy","1","26","26","cividis","orientDef","scaleDef","000","",""
"","","","","","html-slider-response","28","105667","0.0-22.0","gpx4da409v","56","NaN","<div style=""width:500px;"">
                            <p style=""font-size:50px; font-weight:bold;""
                            >happy</p>
                            <div style=""width:240px; margin: auto;"">
                                <img src=""images/map13_coolwarm_scaleRev_orientDef_090.png"" style= ""width:200px""alt=""img"">
                            </div>
                        </div>","74","","0","","","","images/map13_coolwarm_scaleRev_orientDef_090.png","happy","1","13","13","coolwarm","orientDef","scaleRev","090","",""
"","","","","","html-slider-response","29","110351","0.0-23.0","gpx4da409v","56","NaN","<div style=""width:500px;"">
                            <p style=""font-size:50px; font-weight:bold;""
                            >happy</p>
                            <div style=""width:240px; margin: auto;"">
                                <img src=""images/map12_Spectral_scaleDef_orientMir_180.png"" style= ""width:200px""alt=""img"">
                            </div>
                        </div>","165","","0","","","","images/map12_Spectral_scaleDef_orientMir_180.png","happy","1","12","12","Spectral","orientMir","scaleDef","180","",""
"","","","","","html-slider-response","30","113851","0.0-24.0","gpx4da409v","56","NaN","<div style=""width:500px;"">
                            <p style=""font-size:50px; font-weight:bold;""
                            >happy</p>
                            <div style=""width:240px; margin: auto;"">
                                <img src=""images/map12_RdYlGn_scaleDef_orientMir_000.png"" style= ""width:200px""alt=""img"">
                            </div>
                        </div>","110","","0","","","","images/map12_RdYlGn_scaleDef_orientMir_000.png","happy","1","12","12","RdYlGn","orientMir","scaleDef","000","",""
"","","","","","html-slider-response","31","144382","0.0-25.0","gpx4da409v","56","NaN","<div style=""width:500px;"">
                            <p style=""font-size:50px; font-weight:bold;""
                            >happy</p>
                            <div style=""width:240px; margin: auto;"">
                                <img src=""images/map15_gist_earth_scaleRev_orientMir_090.png"" style= ""width:200px""alt=""img"">
                            </div>
                        </div>","130","","0","","","","images/map15_gist_earth_scaleRev_orientMir_090.png","happy","1","15","15","gist","scaleRev","earth","orientMir","",""
"","","","","","html-slider-response","32","146466","0.0-26.0","gpx4da409v","56","NaN","<div style=""width:500px;"">
                            <p style=""font-size:50px; font-weight:bold;""
                            >happy</p>
                            <div style=""width:240px; margin: auto;"">
                                <img src=""images/map15_vanimo_scaleRev_orientDef_270.png"" style= ""width:200px""alt=""img"">
                            </div>
                        </div>","-59","","0","","","","images/map15_vanimo_scaleRev_orientDef_270.png","happy","1","15","15","vanimo","orientDef","scaleRev","270","",""
"","","","","","html-slider-response","33","153850","0.0-27.0","gpx4da409v","56","NaN","<div style=""width:500px;"">
                            <p style=""font-size:50px; font-weight:bold;""
                            >happy</p>
                            <div style=""width:240px; margin: auto;"">
                                <img src=""images/map13_seismic_scaleDef_orientMir_000.png"" style= ""width:200px""alt=""img"">
                            </div>
                        </div>","107","","0","","","","images/map13_seismic_scaleDef_orientMir_000.png","happy","1","13","13","seismic","orientMir","scaleDef","000","",""
"","","","","","html-slider-response","34","155483","0.0-28.0","gpx4da409v","56","NaN","<div style=""width:500px;"">
                            <p style=""font-size:50px; font-weight:bold;""
                            >happy</p>
                            <div style=""width:240px; margin: auto;"">
                                <img src=""images/map13_seismic_scaleRev_orientMir_090.png"" style= ""width:200px""alt=""img"">
                            </div>
                        </div>","42","","0","","","","images/map13_seismic_scaleRev_orientMir_090.png","happy","1","13","13","seismic","orientMir","scaleRev","090","",""
"","","","","","html-slider-response","35","157049","0.0-29.0","gpx4da409v","56","NaN","<div style=""width:500px;"">
                            <p style=""font-size:50px; font-weight:bold;""
                            >happy</p>
                            <div style=""width:240px; margin: auto;"">
                                <img src=""images/map26_cividis_scaleRev_orientDef_090.png"" style= ""width:200px""alt=""img"">
                            </div>
                        </div>","-48","","0","","","","images/map26_cividis_scaleRev_orientDef_090.png","happy","1","26","26","cividis","orientDef","scaleRev","090","",""
"","","","","","html-slider-response","36","158566","0.0-30.0","gpx4da409v","56","NaN","<div style=""width:500px;"">
                            <p style=""font-size:50px; font-weight:bold;""
                            >happy</p>
                            <div style=""width:240px; margin: auto;"">
                                <img src=""images/map13_berlin_scaleRev_orientMir_270.png"" style= ""width:200px""alt=""img"">
                            </div>
                        </div>","48","","0","","","","images/map13_berlin_scaleRev_orientMir_270.png","happy","1","13","13","berlin","orientMir","scaleRev","270","",""
"","","","","","html-slider-response","37","159951","0.0-31.0","gpx4da409v","56","NaN","<div style=""width:500px;"">
                            <p style=""font-size:50px; font-weight:bold;""
                            >happy</p>
                            <div style=""width:240px; margin: auto;"">
                                <img src=""images/map10_BrBG_scaleDef_orientDef_180.png"" style= ""width:200px""alt=""img"">
                            </div>
                        </div>","51","","0","","","","images/map10_BrBG_scaleDef_orientDef_180.png","happy","1","10","10","BrBG","orientDef","scaleDef","180","",""
"","","","","","html-slider-response","38","161184","0.0-32.0","gpx4da409v","56","NaN","<div style=""width:500px;"">
                            <p style=""font-size:50px; font-weight:bold;""
                            >happy</p>
                            <div style=""width:240px; margin: auto;"">
                                <img src=""images/map07_PuBuGn_scaleDef_orientDef_000.png"" style= ""width:200px""alt=""img"">
                            </div>
                        </div>","45","","0","","","","images/map07_PuBuGn_scaleDef_orientDef_000.png","happy","1","07","07","PuBuGn","orientDef","scaleDef","000","",""
"","","","","","html-slider-response","39","162451","0.0-33.0","gpx4da409v","56","NaN","<div style=""width:500px;"">
                            <p style=""font-size:50px; font-weight:bold;""
                            >happy</p>
                            <div style=""width:240px; margin: auto;"">
                                <img src=""images/map15_managua_scaleRev_orientDef_090.png"" style= ""width:200px""alt=""img"">
                            </div>
                        </div>","173","","0","","","","images/map15_managua_scaleRev_orientDef_090.png","happy","1","15","15","managua","orientDef","scaleRev","090","",""
"","","","","","html-slider-response","40","163966","0.0-34.0","gpx4da409v","56","NaN","<div style=""width:500px;"">
                            <p style=""font-size:50px; font-weight:bold;""
                            >happy</p>
                            <div style=""width:240px; margin: auto;"">
                                <img src=""images/map23_plasma_scaleDef_orientDef_180.png"" style= ""width:200px""alt=""img"">
                            </div>
                        </div>","-96","","0","","","","images/map23_plasma_scaleDef_orientDef_180.png","happy","1","23","23","plasma","orientDef","scaleDef","180","",""
"","","","","","html-slider-response","41","165333","0.0-35.0","gpx4da409v","56","NaN","<div style=""width:500px;"">
                            <p style=""font-size:50px; font-weight:bold;""
                            >happy</p>
                            <div style=""width:240px; margin: auto;"">
                                <img src=""images/map10_PuOr_scaleRev_orientMir_090.png"" style= ""width:200px""alt=""img"">
                            </div>
                        </div>","124","","0","","","","images/map10_PuOr_scaleRev_orientMir_090.png","happy","1","10","10","PuOr","orientMir","scaleRev","090","",""
"","","","","","html-slider-response","42","166716","0.0-36.0","gpx4da409v","56","NaN","<div style=""width:500px;"">
                            <p style=""font-size:50px; font-weight:bold;""
                            >happy</p>
                            <div style=""width:240px; margin: auto;"">
                                <img src=""images/map02_RdPu_scaleRev_orientMir_270.png"" style= ""width:200px""alt=""img"">
                            </div>
                        </div>","-76","","0","","","","images/map02_RdPu_scaleRev_orientMir_270.png","happy","1","02","02","RdPu","orientMir","scaleRev","270","",""
"","","","","","html-slider-response","43","168385","0.0-37.0","gpx4da409v","56","NaN","<div style=""width:500px;"">
                            <p style=""font-size:50px; font-weight:bold;""
                            >happy</p>
                            <div style=""width:240px; margin: auto;"">
                                <img src=""images/map27_Oranges_scaleRev_orientDef_270.png"" style= ""width:200px""alt=""img"">
                            </div>
                        </div>","85","","0","","","","images/map27_Oranges_scaleRev_orientDef_270.png","happy","1","27","27","Oranges","orientDef","scaleRev","270","",""
"","","","","","html-slider-response","44","170048","0.0-38.0","gpx4da409v","56","NaN","<div style=""width:500px;"">
                            <p style=""font-size:50px; font-weight:bold;""
                            >happy</p>
                            <div style=""width:240px; margin: auto;"">
                                <img src=""images/map13_berlin_scaleDef_orientMir_180.png"" style= ""width:200px""alt=""img"">
                            </div>
                        </div>","142","","0","","","","images/map13_berlin_scaleDef_orientMir_180.png","happy","1","13","13","berlin","orientMir","scaleDef","180","",""
"","","","","","html-slider-response","45","171766","0.0-39.0","gpx4da409v","56","NaN","<div style=""width:500px;"">
                            <p style=""font-size:50px; font-weight:bold;""
                            >happy</p>
                            <div style=""width:240px; margin: auto;"">
                                <img src=""images/map12_RdYlBu_scaleRev_orientDef_270.png"" style= ""width:200px""alt=""img"">
                            </div>
                        </div>","167","","0","","","","images/map12_RdYlBu_scaleRev_orientDef_270.png","happy","1","12","12","RdYlBu","orientDef","scaleRev","270","",""
"","","","","","html-slider-response","46","173449","0.0-40.0","gpx4da409v","56","NaN","<div style=""width:500px;"">
                            <p style=""font-size:50px; font-weight:bold;""
                            >happy</p>
                            <div style=""width:240px; margin: auto;"">
                                <img src=""images/map27_Reds_scaleDef_orientMir_000.png"" style= ""width:200px""alt=""img"">
                            </div>
                        </div>","-180","","0","","","","images/map27_Reds_scaleDef_orientMir_000.png","happy","1","27","27","Reds","orientMir","scaleDef","000","",""
"","","","","","html-slider-response","47","175034","0.0-41.0","gpx4da409v","56","NaN","<div style=""width:500px;"">
                            <p style=""font-size:50px; font-weight:bold;""
                            >happy</p>
                            <div style=""width:240px; margin: auto;"">
                                <img src=""images/map15_gist_earth_scaleDef_orientMir_000.png"" style= ""width:200px""alt=""img"">
                            </div>
                        </div>","200","","0","","","","images/map15_gist_earth_scaleDef_orientMir_000.png","happy","1","15","15","gist","scaleDef","earth","orientMir","",""
"","","","","","html-slider-response","48","177366","0.0-42.0","gpx4da409v","56","NaN","<div style=""width:500px;"">
                            <p style=""font-size:50px; font-weight:bold;""
                            >happy</p>
                            <div style=""width:240px; margin: auto;"">
                                <img src=""images/map26_Blues_scaleDef_orientMir_180.png"" style= ""width:200px""alt=""img"">
                            </div>
                        </div>","200","","0","","","","images/map26_Blues_scaleDef_orientMir_180.png","happy","1","26","26","Blues","orientMir","scaleDef","180","",""
"","","","","","html-slider-response","49","179249","0.0-43.0","gpx4da409v","56","NaN","<div style=""width:500px;"">
                            <p style=""font-size:50px; font-weight:bold;""
                            >happy</p>
                            <div style=""width:240px; margin: auto;"">
                                <img src=""images/map23_magma_scaleRev_orientMir_270.png"" style= ""width:200px""alt=""img"">
                            </div>
                        </div>","-122","","0","","","","images/map23_magma_scaleRev_orientMir_270.png","happy","1","23","23","magma","orientMir","scaleRev","270","",""
"","","","","","html-slider-response","50","181067","0.0-44.0","gpx4da409v","56","NaN","<div style=""width:500px;"">
                            <p style=""font-size:50px; font-weight:bold;""
                            >happy</p>
                            <div style=""width:240px; margin: auto;"">
                                <img src=""images/map02_YlOrRd_scaleDef_orientDef_000.png"" style= ""width:200px""alt=""img"">
                            </div>
                        </div>","-91","","0","","","","images/map02_YlOrRd_scaleDef_orientDef_000.png","happy","1","02","02","YlOrRd","orientDef","scaleDef","000","",""
"","","","","","html-slider-response","51","182766","0.0-45.0","gpx4da409v","56","NaN","<div style=""width:500px;"">
                            <p style=""font-size:50px; font-weight:bold;""
                            >happy</p>
                            <div style=""width:240px; margin: auto;"">
                                <img src=""images/map12_RdBu_scaleDef_orientDef_000.png"" style= ""width:200px""alt=""img"">
                            </div>
                        </div>","200","","0","","","","images/map12_RdBu_scaleDef_orientDef_000.png","happy","1","12","12","RdBu","orientDef","scaleDef","000","",""
"","","","","","html-slider-response","52","184666","0.0-46.0","gpx4da409v","56","NaN","<div style=""width:500px;"">
                            <p style=""font-size:50px; font-weight:bold;""
                            >happy</p>
                            <div style=""width:240px; margin: auto;"">
                                <img src=""images/map05_BuPu_scaleRev_orientDef_090.png"" style= ""width:200px""alt=""img"">
                            </div>
                        </div>","-72","","0","","","","images/map05_BuPu_scaleRev_orientDef_090.png","happy","1","05","05","BuPu","orientDef","scaleRev","090","",""
"","","","","","html-slider-response","53","186366","0.0-47.0","gpx4da409v","56","NaN","<div style=""width:500px;"">
                            <p style=""font-size:50px; font-weight:bold;""
                            >happy</p>
                            <div style=""width:240px; margin: auto;"">
                                <img src=""images/map02_OrRd_scaleDef_orientDef_180.png"" style= ""width:200px""alt=""img"">
                            </div>
                        </div>","-200","","0","","","","images/map02_OrRd_scaleDef_orientDef_180.png","happy","1","02","02","OrRd","orientDef","scaleDef","180","",""
"","","","","","html-slider-response","54","187999","0.0-48.0","gpx4da409v","56","NaN","<div style=""width:500px;"">
                            <p style=""font-size:50px; font-weight:bold;""
                            >happy</p>
                            <div style=""width:240px; margin: auto;"">
                                <img src=""images/map05_GnBu_scaleDef_orientDef_180.png"" style= ""width:200px""alt=""img"">
                            </div>
                        </div>","200","","0","","","","images/map05_GnBu_scaleDef_orientDef_180.png","happy","1","05","05","GnBu","orientDef","scaleDef","180","",""
"","","","","","html-slider-response","55","190050","0.0-49.0","gpx4da409v","56","NaN","<div style=""width:500px;"">
                            <p style=""font-size:50px; font-weight:bold;""
                            >happy</p>
                            <div style=""width:240px; margin: auto;"">
                                <img src=""images/map12_RdYlGn_scaleRev_orientMir_090.png"" style= ""width:200px""alt=""img"">
                            </div>
                        </div>","-200","","0","","","","images/map12_RdYlGn_scaleRev_orientMir_090.png","happy","1","12","12","RdYlGn","orientMir","scaleRev","090","",""
"","","","","","html-slider-response","56","191549","0.0-50.0","gpx4da409v","56","NaN","<div style=""width:500px;"">
                            <p style=""font-size:50px; font-weight:bold;""
                            >happy</p>
                            <div style=""width:240px; margin: auto;"">
                                <img src=""images/map26_Purples_scaleRev_orientMir_090.png"" style= ""width:200px""alt=""img"">
                            </div>
                        </div>","90","","0","","","","images/map26_Purples_scaleRev_orientMir_090.png","happy","1","26","26","Purples","orientMir","scaleRev","090","",""
"","","","","","html-slider-response","57","193266","0.0-51.0","gpx4da409v","56","NaN","<div style=""width:500px;"">
                            <p style=""font-size:50px; font-weight:bold;""
                            >happy</p>
                            <div style=""width:240px; margin: auto;"">
                                <img src=""images/map26_Greys_scaleDef_orientDef_180.png"" style= ""width:200px""alt=""img"">
                            </div>
                        </div>","-131","","0","","","","images/map26_Greys_scaleDef_orientDef_180.png","happy","1","26","26","Greys","orientDef","scaleDef","180","",""
"","","","","","html-slider-response","58","194933","0.0-52.0","gpx4da409v","56","NaN","<div style=""width:500px;"">
                            <p style=""font-size:50px; font-weight:bold;""
                            >happy</p>
                            <div style=""width:240px; margin: auto;"">
                                <img src=""images/map27_Reds_scaleRev_orientMir_090.png"" style= ""width:200px""alt=""img"">
                            </div>
                        </div>","-200","","0","","","","images/map27_Reds_scaleRev_orientMir_090.png","happy","1","27","27","Reds","orientMir","scaleRev","090","",""
"","","","","","html-slider-response","59","196765","0.0-53.0","gpx4da409v","56","NaN","<div style=""width:500px;"">
                            <p style=""font-size:50px; font-weight:bold;""
                            >happy</p>
                            <div style=""width:240px; margin: auto;"">
                                <img src=""images/map05_PuBu_scaleDef_orientMir_000.png"" style= ""width:200px""alt=""img"">
                            </div>
                        </div>","200","","0","","","","images/map05_PuBu_scaleDef_orientMir_000.png","happy","1","05","05","PuBu","orientMir","scaleDef","000","",""
"","","","","","html-button-response","60","198138","0.0-54.0","gpx4da409v","56","871","<p>You are doing great!<br></br> You are halway done with the current block. When you are ready to continue, click the 'Continue' button.</p>","0","","","","","","","","","","","","","","","",""
"","","","","","html-slider-response","61","200666","0.0-55.0","gpx4da409v","56","NaN","<div style=""width:500px;"">
                            <p style=""font-size:50px; font-weight:bold;""
                            >happy</p>
                            <div style=""width:240px; margin: auto;"">
                                <img src=""images/map07_YlGn_scaleRev_orientMir_090.png"" style= ""width:200px""alt=""img"">
                            </div>
                        </div>","200","","0","","","","images/map07_YlGn_scaleRev_orientMir_090.png","happy","1","07","07","YlGn","orientMir","scaleRev","090","",""
"","","","","","html-slider-response","62","202382","0.0-56.0","gpx4da409v","56","NaN","<div style=""width:500px;"">
                            <p style=""font-size:50px; font-weight:bold;""
                            >happy</p>
                            <div style=""width:240px; margin: auto;"">
                                <img src=""images/map23_plasma_scaleRev_orientDef_270.png"" style= ""width:200px""alt=""img"">
                            </div>
                        </div>","-162","","0","","","","images/map23_plasma_scaleRev_orientDef_270.png","happy","1","23","23","plasma","orientDef","scaleRev","270","",""
"","","","","","html-slider-response","63","204084","0.0-57.0","gpx4da409v","56","NaN","<div style=""width:500px;"">
                            <p style=""font-size:50px; font-weight:bold;""
                            >happy</p>
                            <div style=""width:240px; margin: auto;"">
                                <img src=""images/map13_bwr_scaleRev_orientDef_270.png"" style= ""width:200px""alt=""img"">
                            </div>
                        </div>","126","","0","","","","images/map13_bwr_scaleRev_orientDef_270.png","happy","1","13","13","bwr","orientDef","scaleRev","270","",""
"","","","","","html-slider-response","64","205799","0.0-58.0","gpx4da409v","56","NaN","<div style=""width:500px;"">
                            <p style=""font-size:50px; font-weight:bold;""
                            >happy</p>
                            <div style=""width:240px; margin: auto;"">
                                <img src=""images/map27_Oranges_scaleDef_orientDef_180.png"" style= ""width:200px""alt=""img"">
                            </div>
                        </div>","-200","","0","","","","images/map27_Oranges_scaleDef_orientDef_180.png","happy","1","27","27","Oranges","orientDef","scaleDef","180","",""
"","","","","","html-slider-response","65","208016","0.0-59.0","gpx4da409v","56","NaN","<div style=""width:500px;"">
                            <p style=""font-size:50px; font-weight:bold;""
                            >happy</p>
                            <div style=""width:240px; margin: auto;"">
                                <img src=""images/map15_vanimo_scaleDef_orientDef_180.png"" style= ""width:200px""alt=""img"">
                            </div>
                        </div>","-200","","0","","","","images/map15_vanimo_scaleDef_orientDef_180.png","happy","1","15","15","vanimo","orientDef","scaleDef","180","",""
"","","","","","html-slider-response","66","209634","0.0-60.0","gpx4da409v","56","NaN","<div style=""width:500px;"">
                            <p style=""font-size:50px; font-weight:bold;""
                            >happy</p>
                            <div style=""width:240px; margin: auto;"">
                                <img src=""images/map12_RdBu_scaleRev_orientDef_090.png"" style= ""width:200px""alt=""img"">
                            </div>
                        </div>","192","","0","","","","images/map12_RdBu_scaleRev_orientDef_090.png","happy","1","12","12","RdBu","orientDef","scaleRev","090","",""
"","","","","","html-slider-response","67","211199","0.0-61.0","gpx4da409v","56","NaN","<div style=""width:500px;"">
                            <p style=""font-size:50px; font-weight:bold;""
                            >happy</p>
                            <div style=""width:240px; margin: auto;"">
                                <img src=""images/map13_bwr_scaleDef_orientDef_180.png"" style= ""width:200px""alt=""img"">
                            </div>
                        </div>","-157","","0","","","","images/map13_bwr_scaleDef_orientDef_180.png","happy","1","13","13","bwr","orientDef","scaleDef","180","",""
"","","","","","html-slider-response","68","213299","0.0-62.0","gpx4da409v","56","NaN","<div style=""width:500px;"">
                            <p style=""font-size:50px; font-weight:bold;""
                            >happy</p>
                            <div style=""width:240px; margin: auto;"">
                                <img src=""images/map05_BuPu_scaleDef_orientDef_000.png"" style= ""width:200px""alt=""img"">
                            </div>
                        </div>","-66","","0","","","","images/map05_BuPu_scaleDef_orientDef_000.png","happy","1","05","05","BuPu","orientDef","scaleDef","000","",""
"","","","","","html-slider-response","69","217082","0.0-63.0","gpx4da409v","56","NaN","<div style=""width:500px;"">
                            <p style=""font-size:50px; font-weight:bold;""
                            >happy</p>
                            <div style=""width:240px; margin: auto;"">
                                <img src=""images/map05_GnBu_scaleRev_orientDef_270.png"" style= ""width:200px""alt=""img"">
                            </div>
                        </div>","200","","0","","","","images/map05_GnBu_scaleRev_orientDef_270.png","happy","1","05","05","GnBu","orientDef","scaleRev","270","",""
"","","","","","html-slider-response","70","219500","0.0-64.0","gpx4da409v","56","NaN","<div style=""width:500px;"">
                            <p style=""font-size:50px; font-weight:bold;""
                            >happy</p>
                            <div style=""width:240px; margin: auto;"">
                                <img src=""images/map10_BrBG_scaleRev_orientDef_270.png"" style= ""width:200px""alt=""img"">
                            </div>
                        </div>","-200","","0","","","","images/map10_BrBG_scaleRev_orientDef_270.png","happy","1","10","10","BrBG","orientDef","scaleRev","270","",""
"","","","","","html-slider-response","71","221366","0.0-65.0","gpx4da409v","56","NaN","<div style=""width:500px;"">
                            <p style=""font-size:50px; font-weight:bold;""
                            >happy</p>
                            <div style=""width:240px; margin: auto;"">
                                <img src=""images/map10_PuOr_scaleDef_orientMir_000.png"" style= ""width:200px""alt=""img"">
                            </div>
                        </div>","-131","","0","","","","images/map10_PuOr_scaleDef_orientMir_000.png","happy","1","10","10","PuOr","orientMir","scaleDef","000","",""
"","","","","","html-slider-response","72","223049","0.0-66.0","gpx4da409v","56","NaN","<div style=""width:500px;"">
                            <p style=""font-size:50px; font-weight:bold;""
                            >happy</p>
                            <div style=""width:240px; margin: auto;"">
                                <img src=""images/map05_YlGnBu_scaleDef_orientMir_180.png"" style= ""width:200px""alt=""img"">
                            </div>
                        </div>","200","","0","","","","images/map05_YlGnBu_scaleDef_orientMir_180.png","happy","1","05","05","YlGnBu","orientMir","scaleDef","180","",""
"","","","","","html-slider-response","73","226067","0.0-67.0","gpx4da409v","56","NaN","<div style=""width:500px;"">
                            <p style=""font-size:50px; font-weight:bold;""
                            >happy</p>
                            <div style=""width:240px; margin: auto;"">
                                <img src=""images/map27_YlOrBr_scaleRev_orientMir_270.png"" style= ""width:200px""alt=""img"">
                            </div>
                        </div>","-200","","0","","","","images/map27_YlOrBr_scaleRev_orientMir_270.png","happy","1","27","27","YlOrBr","orientMir","scaleRev","270","",""
"","","","","","html-slider-response","74","228599","0.0-68.0","gpx4da409v","56","NaN","<div style=""width:500px;"">
                            <p style=""font-size:50px; font-weight:bold;""
                            >happy</p>
                            <div style=""width:240px; margin: auto;"">
                                <img src=""images/map27_Greens_scaleRev_orientDef_090.png"" style= ""width:200px""alt=""img"">
                            </div>
                        </div>","-132","","0","","","","images/map27_Greens_scaleRev_orientDef_090.png","happy","1","27","27","Greens","orientDef","scaleRev","090","",""
"","","","","","html-slider-response","75","231201","0.0-69.0","gpx4da409v","56","NaN","<div style=""width:500px;"">
                            <p style=""font-size:50px; font-weight:bold;""
                            >happy</p>
                            <div style=""width:240px; margin: auto;"">
                                <img src=""images/map07_BuGn_scaleRev_orientDef_270.png"" style= ""width:200px""alt=""img"">
                            </div>
                        </div>","200","","0","","","","images/map07_BuGn_scaleRev_orientDef_270.png","happy","1","07","07","BuGn","orientDef","scaleRev","270","",""
"","","","","","html-slider-response","76","234000","0.0-70.0","gpx4da409v","56","NaN","<div style=""width:500px;"">
                            <p style=""font-size:50px; font-weight:bold;""
                            >happy</p>
                            <div style=""width:240px; margin: auto;"">
                                <img src=""images/map10_PRGn_scaleRev_orientDef_090.png"" style= ""width:200px""alt=""img"">
                            </div>
                        </div>","-143","","0","","","","images/map10_PRGn_scaleRev_orientDef_090.png","happy","1","10","10","PRGn","orientDef","scaleRev","090","",""
"","","","","","html-slider-response","77","236149","0.0-71.0","gpx4da409v","56","NaN","<div style=""width:500px;"">
                            <p style=""font-size:50px; font-weight:bold;""
                            >happy</p>
                            <div style=""width:240px; margin: auto;"">
                                <img src=""images/map07_PuBuGn_scaleRev_orientDef_090.png"" style= ""width:200px""alt=""img"">
                            </div>
                        </div>","199","","0","","","","images/map07_PuBuGn_scaleRev_orientDef_090.png","happy","1","07","07","PuBuGn","orientDef","scaleRev","090","",""
"","","","","","html-slider-response","78","238250","0.0-72.0","gpx4da409v","56","NaN","<div style=""width:500px;"">
                            <p style=""font-size:50px; font-weight:bold;""
                            >happy</p>
                            <div style=""width:240px; margin: auto;"">
                                <img src=""images/map02_RdPu_scaleDef_orientMir_180.png"" style= ""width:200px""alt=""img"">
                            </div>
                        </div>","200","","0","","","","images/map02_RdPu_scaleDef_orientMir_180.png","happy","1","02","02","RdPu","orientMir","scaleDef","180","",""
"","","","","","html-slider-response","79","239999","0.0-73.0","gpx4da409v","56","NaN","<div style=""width:500px;"">
                            <p style=""font-size:50px; font-weight:bold;""
                            >happy</p>
                            <div style=""width:240px; margin: auto;"">
                                <img src=""images/map15_managua_scaleDef_orientDef_000.png"" style= ""width:200px""alt=""img"">
                            </div>
                        </div>","-133","","0","","","","images/map15_managua_scaleDef_orientDef_000.png","happy","1","15","15","managua","orientDef","scaleDef","000","",""
"","","","","","html-slider-response","80","241632","0.0-74.0","gpx4da409v","56","NaN","<div style=""width:500px;"">
                            <p style=""font-size:50px; font-weight:bold;""
                            >happy</p>
                            <div style=""width:240px; margin: auto;"">
                                <img src=""images/map15_turbo_scaleDef_orientMir_180.png"" style= ""width:200px""alt=""img"">
                            </div>
                        </div>","-92","","0","","","","images/map15_turbo_scaleDef_orientMir_180.png","happy","1","15","15","turbo","orientMir","scaleDef","180","",""
"","","","","","html-slider-response","81","243351","0.0-75.0","gpx4da409v","56","NaN","<div style=""width:500px;"">
                            <p style=""font-size:50px; font-weight:bold;""
                            >happy</p>
                            <div style=""width:240px; margin: auto;"">
                                <img src=""images/map23_magma_scaleDef_orientMir_180.png"" style= ""width:200px""alt=""img"">
                            </div>
                        </div>","-142","","0","","","","images/map23_magma_scaleDef_orientMir_180.png","happy","1","23","23","magma","orientMir","scaleDef","180","",""
"","","","","","html-slider-response","82","244966","0.0-76.0","gpx4da409v","56","NaN","<div style=""width:500px;"">
                            <p style=""font-size:50px; font-weight:bold;""
                            >happy</p>
                            <div style=""width:240px; margin: auto;"">
                                <img src=""images/map23_inferno_scaleDef_orientMir_000.png"" style= ""width:200px""alt=""img"">
                            </div>
                        </div>","-90","","0","","","","images/map23_inferno_scaleDef_orientMir_000.png","happy","1","23","23","inferno","orientMir","scaleDef","000","",""
"","","","","","html-slider-response","83","246467","0.0-77.0","gpx4da409v","56","NaN","<div style=""width:500px;"">
                            <p style=""font-size:50px; font-weight:bold;""
                            >happy</p>
                            <div style=""width:240px; margin: auto;"">
                                <img src=""images/map12_RdYlBu_scaleDef_orientDef_180.png"" style= ""width:200px""alt=""img"">
                            </div>
                        </div>","-128","","0","","","","images/map12_RdYlBu_scaleDef_orientDef_180.png","happy","1","12","12","RdYlBu","orientDef","scaleDef","180","",""
"","","","","","html-slider-response","84","247833","0.0-78.0","gpx4da409v","56","NaN","<div style=""width:500px;"">
                            <p style=""font-size:50px; font-weight:bold;""
                            >happy</p>
                            <div style=""width:240px; margin: auto;"">
                                <img src=""images/map10_RdGy_scaleRev_orientMir_270.png"" style= ""width:200px""alt=""img"">
                            </div>
                        </div>","-200","","0","","","","images/map10_RdGy_scaleRev_orientMir_270.png","happy","1","10","10","RdGy","orientMir","scaleRev","270","",""
"","","","","","html-slider-response","85","249250","0.0-79.0","gpx4da409v","56","NaN","<div style=""width:500px;"">
                            <p style=""font-size:50px; font-weight:bold;""
                            >happy</p>
                            <div style=""width:240px; margin: auto;"">
                                <img src=""images/map05_PuBu_scaleRev_orientMir_090.png"" style= ""width:200px""alt=""img"">
                            </div>
                        </div>","-200","","0","","","","images/map05_PuBu_scaleRev_orientMir_090.png","happy","1","05","05","PuBu","orientMir","scaleRev","090","",""
"","","","","","html-slider-response","86","250949","0.0-80.0","gpx4da409v","56","NaN","<div style=""width:500px;"">
                            <p style=""font-size:50px; font-weight:bold;""
                            >happy</p>
                            <div style=""width:240px; margin: auto;"">
                                <img src=""images/map26_Purples_scaleDef_orientMir_000.png"" style= ""width:200px""alt=""img"">
                            </div>
                        </div>","-200","","0","","","","images/map26_Purples_scaleDef_orientMir_000.png","happy","1","26","26","Purples","orientMir","scaleDef","000","",""
"","","","","","html-slider-response","87","252565","0.0-81.0","gpx4da409v","56","NaN","<div style=""width:500px;"">
                            <p style=""font-size:50px; font-weight:bold;""
                            >happy</p>
                            <div style=""width:240px; margin: auto;"">
                                <img src=""images/map12_Spectral_scaleRev_orientMir_270.png"" style= ""width:200px""alt=""img"">
                            </div>
                        </div>","-200","","0","","","","images/map12_Spectral_scaleRev_orientMir_270.png","happy","1","12","12","Spectral","orientMir","scaleRev","270","",""
"","","","","","html-slider-response","88","254218","0.0-82.0","gpx4da409v","56","NaN","<div style=""width:500px;"">
                            <p style=""font-size:50px; font-weight:bold;""
                            >happy</p>
                            <div style=""width:240px; margin: auto;"">
                                <img src=""images/map26_Greys_scaleRev_orientDef_270.png"" style= ""width:200px""alt=""img"">
                            </div>
                        </div>","-174","","0","","","","images/map26_Greys_scaleRev_orientDef_270.png","happy","1","26","26","Greys","orientDef","scaleRev","270","",""
"","","","","","html-slider-response","89","256349","0.0-83.0","gpx4da409v","56","NaN","<div style=""width:500px;"">
                            <p style=""font-size:50px; font-weight:bold;""
                            >happy</p>
                            <div style=""width:240px; margin: auto;"">
                                <img src=""images/map26_Blues_scaleRev_orientMir_270.png"" style= ""width:200px""alt=""img"">
                            </div>
                        </div>","103","","0","","","","images/map26_Blues_scaleRev_orientMir_270.png","happy","1","26","26","Blues","orientMir","scaleRev","270","",""
"","","","","","html-slider-response","90","257949","0.0-84.0","gpx4da409v","56","NaN","<div style=""width:500px;"">
                            <p style=""font-size:50px; font-weight:bold;""
                            >happy</p>
                            <div style=""width:240px; margin: auto;"">
                                <img src=""images/map02_PuRd_scaleRev_orientMir_090.png"" style= ""width:200px""alt=""img"">
                            </div>
                        </div>","-150","","0","","","","images/map02_PuRd_scaleRev_orientMir_090.png","happy","1","02","02","PuRd","orientMir","scaleRev","090","",""
"","","","","","html-slider-response","91","259548","0.0-85.0","gpx4da409v","56","NaN","<div style=""width:500px;"">
                            <p style=""font-size:50px; font-weight:bold;""
                            >happy</p>
                            <div style=""width:240px; margin: auto;"">
                                <img src=""images/map07_PiYG_scaleRev_orientMir_270.png"" style= ""width:200px""alt=""img"">
                            </div>
                        </div>","200","","0","","","","images/map07_PiYG_scaleRev_orientMir_270.png","happy","1","07","07","PiYG","orientMir","scaleRev","270","",""
"","","","","","html-slider-response","92","261484","0.0-86.0","gpx4da409v","56","NaN","<div style=""width:500px;"">
                            <p style=""font-size:50px; font-weight:bold;""
                            >happy</p>
                            <div style=""width:240px; margin: auto;"">
                                <img src=""images/map07_BuGn_scaleDef_orientDef_180.png"" style= ""width:200px""alt=""img"">
                            </div>
                        </div>","-123","","0","","","","images/map07_BuGn_scaleDef_orientDef_180.png","happy","1","07","07","BuGn","orientDef","scaleDef","180","",""
"","","","","","html-slider-response","93","263284","0.0-87.0","gpx4da409v","56","NaN","<div style=""width:500px;"">
                            <p style=""font-size:50px; font-weight:bold;""
                            >happy</p>
                            <div style=""width:240px; margin: auto;"">
                                <img src=""images/map23_viridis_scaleRev_orientDef_090.png"" style= ""width:200px""alt=""img"">
                            </div>
                        </div>","-162","","0","","","","images/map23_viridis_scaleRev_orientDef_090.png","happy","1","23","23","viridis","orientDef","scaleRev","090","",""
"","","","","","html-slider-response","94","264650","0.0-88.0","gpx4da409v","56","NaN","<div style=""width:500px;"">
                            <p style=""font-size:50px; font-weight:bold;""
                            >happy</p>
                            <div style=""width:240px; margin: auto;"">
                                <img src=""images/map10_RdGy_scaleDef_orientMir_180.png"" style= ""width:200px""alt=""img"">
                            </div>
                        </div>","-153","","0","","","","images/map10_RdGy_scaleDef_orientMir_180.png","happy","1","10","10","RdGy","orientMir","scaleDef","180","",""
"","","","","","html-slider-response","95","266250","0.0-89.0","gpx4da409v","56","NaN","<div style=""width:500px;"">
                            <p style=""font-size:50px; font-weight:bold;""
                            >happy</p>
                            <div style=""width:240px; margin: auto;"">
                                <img src=""images/map27_Greens_scaleDef_orientDef_000.png"" style= ""width:200px""alt=""img"">
                            </div>
                        </div>","-130","","0","","","","images/map27_Greens_scaleDef_orientDef_000.png","happy","1","27","27","Greens","orientDef","scaleDef","000","",""
"","","","","","html-slider-response","96","296583","0.0-90.0","gpx4da409v","56","NaN","<div style=""width:500px;"">
                            <p style=""font-size:50px; font-weight:bold;""
                            >happy</p>
                            <div style=""width:240px; margin: auto;"">
                                <img src=""images/map27_YlOrBr_scaleDef_orientMir_180.png"" style= ""width:200px""alt=""img"">
                            </div>
                        </div>","200","","0","","","","images/map27_YlOrBr_scaleDef_orientMir_180.png","happy","1","27","27","YlOrBr","orientMir","scaleDef","180","",""
"","","","","","html-slider-response","97","298084","0.0-91.0","gpx4da409v","56","NaN","<div style=""width:500px;"">
                            <p style=""font-size:50px; font-weight:bold;""
                            >happy</p>
                            <div style=""width:240px; margin: auto;"">
                                <img src=""images/map07_PiYG_scaleDef_orientMir_180.png"" style= ""width:200px""alt=""img"">
                            </div>
                        </div>","200","","0","","","","images/map07_PiYG_scaleDef_orientMir_180.png","happy","1","07","07","PiYG","orientMir","scaleDef","180","",""
"","","","","","html-slider-response","98","299768","0.0-92.0","gpx4da409v","56","NaN","<div style=""width:500px;"">
                            <p style=""font-size:50px; font-weight:bold;""
                            >happy</p>
                            <div style=""width:240px; margin: auto;"">
                                <img src=""images/map02_OrRd_scaleRev_orientDef_270.png"" style= ""width:200px""alt=""img"">
                            </div>
                        </div>","-200","","0","","","","images/map02_OrRd_scaleRev_orientDef_270.png","happy","1","02","02","OrRd","orientDef","scaleRev","270","",""
"","","","","","html-slider-response","99","301064","0.0-93.0","gpx4da409v","56","NaN","<div style=""width:500px;"">
                            <p style=""font-size:50px; font-weight:bold;""
                            >happy</p>
                            <div style=""width:240px; margin: auto;"">
                                <img src=""images/map07_YlGn_scaleDef_orientMir_000.png"" style= ""width:200px""alt=""img"">
                            </div>
                        </div>","200","","0","","","","images/map07_YlGn_scaleDef_orientMir_000.png","happy","1","07","07","YlGn","orientMir","scaleDef","000","",""
"","","","","","html-slider-response","100","302752","0.0-94.0","gpx4da409v","56","NaN","<div style=""width:500px;"">
                            <p style=""font-size:50px; font-weight:bold;""
                            >happy</p>
                            <div style=""width:240px; margin: auto;"">
                                <img src=""images/map13_coolwarm_scaleDef_orientDef_000.png"" style= ""width:200px""alt=""img"">
                            </div>
                        </div>","-200","","0","","","","images/map13_coolwarm_scaleDef_orientDef_000.png","happy","1","13","13","coolwarm","orientDef","scaleDef","000","",""
"","","","","","html-button-response","101","306187","0.0-95.0","gpx4da409v","56","2933","<p>Great Job! You've finished block 1.<br></br> You have 4 block(s) left to go.<br></br></p>","0","","","","","","","","","","","","","","","",""
"","","","","","html-button-response","102","306971","0.0-96.0","gpx4da409v","56","783","<p>In this block of trials, you will be asked to rate how much you associate each map with:</p > <p style = 'font-size:150%; font-weight: bold'>disgust</p><br></br>","0","","","","","","","","","","","","","","","",""
"","","","","","html-slider-response","103","311101","0.0-97.0","gpx4da409v","56","NaN","<div style=""width:500px;"">
                            <p style=""font-size:50px; font-weight:bold;""
                            >disgust</p>
                            <div style=""width:240px; margin: auto;"">
                                <img src=""images/map05_PuBu_scaleRev_orientMir_090.png"" style= ""width:200px""alt=""img"">
                            </div>
                        </div>","-200","","0","","","","images/map05_PuBu_scaleRev_orientMir_090.png","disgust","1","05","05","PuBu","orientMir","scaleRev","090","",""
"","","","","","html-slider-response","104","312983","0.0-98.0","gpx4da409v","56","NaN","<div style=""width:500px;"">
                            <p style=""font-size:50px; font-weight:bold;""
                            >disgust</p>
                            <div style=""width:240px; margin: auto;"">
                                <img src=""images/map12_Spectral_scaleDef_orientMir_180.png"" style= ""width:200px""alt=""img"">
                            </div>
                        </div>","-200","","0","","","","images/map12_Spectral_scaleDef_orientMir_180.png","disgust","1","12","12","Spectral","orientMir","scaleDef","180","",""
"","","","","","html-slider-response","105","314333","0.0-99.0","gpx4da409v","56","NaN","<div style=""width:500px;"">
                            <p style=""font-size:50px; font-weight:bold;""
                            >disgust</p>
                            <div style=""width:240px; margin: auto;"">
                                <img src=""images/map26_Blues_scaleDef_orientMir_180.png"" style= ""width:200px""alt=""img"">
                            </div>
                        </div>","-200","","0","","","","images/map26_Blues_scaleDef_orientMir_180.png","disgust","1","26","26","Blues","orientMir","scaleDef","180","",""
"","","","","","html-slider-response","106","315716","0.0-100.0","gpx4da409v","56","NaN","<div style=""width:500px;"">
                            <p style=""font-size:50px; font-weight:bold;""
                            >disgust</p>
                            <div style=""width:240px; margin: auto;"">
                                <img src=""images/map07_PiYG_scaleRev_orientMir_270.png"" style= ""width:200px""alt=""img"">
                            </div>
                        </div>","-200","","0","","","","images/map07_PiYG_scaleRev_orientMir_270.png","disgust","1","07","07","PiYG","orientMir","scaleRev","270","",""
"","","","","","html-slider-response","107","317100","0.0-101.0","gpx4da409v","56","NaN","<div style=""width:500px;"">
                            <p style=""font-size:50px; font-weight:bold;""
                            >disgust</p>
                            <div style=""width:240px; margin: auto;"">
                                <img src=""images/map10_PuOr_scaleRev_orientMir_090.png"" style= ""width:200px""alt=""img"">
                            </div>
                        </div>","-200","","0","","","","images/map10_PuOr_scaleRev_orientMir_090.png","disgust","1","10","10","PuOr","orientMir","scaleRev","090","",""
"","","","","","html-slider-response","108","318682","0.0-102.0","gpx4da409v","56","NaN","<div style=""width:500px;"">
                            <p style=""font-size:50px; font-weight:bold;""
                            >disgust</p>
                            <div style=""width:240px; margin: auto;"">
                                <img src=""images/map15_gist_earth_scaleRev_orientMir_090.png"" style= ""width:200px""alt=""img"">
                            </div>
                        </div>","-200","","0","","","","images/map15_gist_earth_scaleRev_orientMir_090.png","disgust","1","15","15","gist","scaleRev","earth","orientMir","",""
"","","","","","html-slider-response","109","320065","0.0-103.0","gpx4da409v","56","NaN","<div style=""width:500px;"">
                            <p style=""font-size:50px; font-weight:bold;""
                            >disgust</p>
                            <div style=""width:240px; margin: auto;"">
                                <img src=""images/map27_Greens_scaleDef_orientDef_000.png"" style= ""width:200px""alt=""img"">
                            </div>
                        </div>","-200","","0","","","","images/map27_Greens_scaleDef_orientDef_000.png","disgust","1","27","27","Greens","orientDef","scaleDef","000","",""
"","","","","","html-slider-response","110","321301","0.0-104.0","gpx4da409v","56","NaN","<div style=""width:500px;"">
                            <p style=""font-size:50px; font-weight:bold;""
                            >disgust</p>
                            <div style=""width:240px; margin: auto;"">
                                <img src=""images/map13_coolwarm_scaleRev_orientDef_090.png"" style= ""width:200px""alt=""img"">
                            </div>
                        </div>","-200","","0","","","","images/map13_coolwarm_scaleRev_orientDef_090.png","disgust","1","13","13","coolwarm","orientDef","scaleRev","090","",""
"","","","","","html-slider-response","111","322847","0.0-105.0","gpx4da409v","56","NaN","<div style=""width:500px;"">
                            <p style=""font-size:50px; font-weight:bold;""
                            >disgust</p>
                            <div style=""width:240px; margin: auto;"">
                                <img src=""images/map26_cividis_scaleDef_orientDef_000.png"" style= ""width:200px""alt=""img"">
                            </div>
                        </div>","200","","0","","","","images/map26_cividis_scaleDef_orientDef_000.png","disgust","1","26","26","cividis","orientDef","scaleDef","000","",""
"","","","","","html-slider-response","112","324700","0.0-106.0","gpx4da409v","56","NaN","<div style=""width:500px;"">
                            <p style=""font-size:50px; font-weight:bold;""
                            >disgust</p>
                            <div style=""width:240px; margin: auto;"">
                                <img src=""images/map27_Reds_scaleDef_orientMir_000.png"" style= ""width:200px""alt=""img"">
                            </div>
                        </div>","-200","","0","","","","images/map27_Reds_scaleDef_orientMir_000.png","disgust","1","27","27","Reds","orientMir","scaleDef","000","",""
"","","","","","html-slider-response","113","326648","0.0-107.0","gpx4da409v","56","NaN","<div style=""width:500px;"">
                            <p style=""font-size:50px; font-weight:bold;""
                            >disgust</p>
                            <div style=""width:240px; margin: auto;"">
                                <img src=""images/map07_YlGn_scaleDef_orientMir_000.png"" style= ""width:200px""alt=""img"">
                            </div>
                        </div>","-200","","0","","","","images/map07_YlGn_scaleDef_orientMir_000.png","disgust","1","07","07","YlGn","orientMir","scaleDef","000","",""
"","","","","","html-slider-response","114","328415","0.0-108.0","gpx4da409v","56","NaN","<div style=""width:500px;"">
                            <p style=""font-size:50px; font-weight:bold;""
                            >disgust</p>
                            <div style=""width:240px; margin: auto;"">
                                <img src=""images/map23_inferno_scaleRev_orientMir_090.png"" style= ""width:200px""alt=""img"">
                            </div>
                        </div>","-200","","0","","","","images/map23_inferno_scaleRev_orientMir_090.png","disgust","1","23","23","inferno","orientMir","scaleRev","090","",""
"","","","","","html-slider-response","115","330200","0.0-109.0","gpx4da409v","56","NaN","<div style=""width:500px;"">
                            <p style=""font-size:50px; font-weight:bold;""
                            >disgust</p>
                            <div style=""width:240px; margin: auto;"">
                                <img src=""images/map12_RdYlBu_scaleRev_orientDef_270.png"" style= ""width:200px""alt=""img"">
                            </div>
                        </div>","200","","0","","","","images/map12_RdYlBu_scaleRev_orientDef_270.png","disgust","1","12","12","RdYlBu","orientDef","scaleRev","270","",""
"","","","","","html-slider-response","116","331449","0.0-110.0","gpx4da409v","56","NaN","<div style=""width:500px;"">
                            <p style=""font-size:50px; font-weight:bold;""
                            >disgust</p>
                            <div style=""width:240px; margin: auto;"">
                                <img src=""images/map27_YlOrBr_scaleRev_orientMir_270.png"" style= ""width:200px""alt=""img"">
                            </div>
                        </div>","-4","","0","","","","images/map27_YlOrBr_scaleRev_orientMir_270.png","disgust","1","27","27","YlOrBr","orientMir","scaleRev","270","",""
"","","","","","html-slider-response","117","332599","0.0-111.0","gpx4da409v","56","NaN","<div style=""width:500px;"">
                            <p style=""font-size:50px; font-weight:bold;""
                            >disgust</p>
                            <div style=""width:240px; margin: auto;"">
                                <img src=""images/map07_PuBuGn_scaleDef_orientDef_000.png"" style= ""width:200px""alt=""img"">
                            </div>
                        </div>","-2","","0","","","","images/map07_PuBuGn_scaleDef_orientDef_000.png","disgust","1","07","07","PuBuGn","orientDef","scaleDef","000","",""
"","","","","","html-slider-response","118","333465","0.0-112.0","gpx4da409v","56","NaN","<div style=""width:500px;"">
                            <p style=""font-size:50px; font-weight:bold;""
                            >disgust</p>
                            <div style=""width:240px; margin: auto;"">
                                <img src=""images/map27_YlOrBr_scaleDef_orientMir_180.png"" style= ""width:200px""alt=""img"">
                            </div>
                        </div>","-2","","0","","","","images/map27_YlOrBr_scaleDef_orientMir_180.png","disgust","1","27","27","YlOrBr","orientMir","scaleDef","180","",""
"","","","","","html-slider-response","119","334315","0.0-113.0","gpx4da409v","56","NaN","<div style=""width:500px;"">
                            <p style=""font-size:50px; font-weight:bold;""
                            >disgust</p>
                            <div style=""width:240px; margin: auto;"">
                                <img src=""images/map23_magma_scaleRev_orientMir_270.png"" style= ""width:200px""alt=""img"">
                            </div>
                        </div>","-2","","0","","","","images/map23_magma_scaleRev_orientMir_270.png","disgust","1","23","23","magma","orientMir","scaleRev","270","",""
"","","","","","html-slider-response","120","335199","0.0-114.0","gpx4da409v","56","NaN","<div style=""width:500px;"">
                            <p style=""font-size:50px; font-weight:bold;""
                            >disgust</p>
                            <div style=""width:240px; margin: auto;"">
                                <img src=""images/map07_BuGn_scaleRev_orientDef_270.png"" style= ""width:200px""alt=""img"">
                            </div>
                        </div>","-2","","0","","","","images/map07_BuGn_scaleRev_orientDef_270.png","disgust","1","07","07","BuGn","orientDef","scaleRev","270","",""
"","","","","","html-slider-response","121","336032","0.0-115.0","gpx4da409v","56","NaN","<div style=""width:500px;"">
                            <p style=""font-size:50px; font-weight:bold;""
                            >disgust</p>
                            <div style=""width:240px; margin: auto;"">
                                <img src=""images/map05_YlGnBu_scaleRev_orientMir_270.png"" style= ""width:200px""alt=""img"">
                            </div>
                        </div>","-2","","0","","","","images/map05_YlGnBu_scaleRev_orientMir_270.png","disgust","1","05","05","YlGnBu","orientMir","scaleRev","270","",""
"","","","","","html-slider-response","122","336815","0.0-116.0","gpx4da409v","56","NaN","<div style=""width:500px;"">
                            <p style=""font-size:50px; font-weight:bold;""
                            >disgust</p>
                            <div style=""width:240px; margin: auto;"">
                                <img src=""images/map26_Purples_scaleRev_orientMir_090.png"" style= ""width:200px""alt=""img"">
                            </div>
                        </div>","-2","","0","","","","images/map26_Purples_scaleRev_orientMir_090.png","disgust","1","26","26","Purples","orientMir","scaleRev","090","",""
"","","","","","html-slider-response","123","337565","0.0-117.0","gpx4da409v","56","NaN","<div style=""width:500px;"">
                            <p style=""font-size:50px; font-weight:bold;""
                            >disgust</p>
                            <div style=""width:240px; margin: auto;"">
                                <img src=""images/map27_Oranges_scaleRev_orientDef_270.png"" style= ""width:200px""alt=""img"">
                            </div>
                        </div>","-2","","0","","","","images/map27_Oranges_scaleRev_orientDef_270.png","disgust","1","27","27","Oranges","orientDef","scaleRev","270","",""
"","","","","","html-slider-response","124","338432","0.0-118.0","gpx4da409v","56","NaN","<div style=""width:500px;"">
                            <p style=""font-size:50px; font-weight:bold;""
                            >disgust</p>
                            <div style=""width:240px; margin: auto;"">
                                <img src=""images/map02_YlOrRd_scaleDef_orientDef_000.png"" style= ""width:200px""alt=""img"">
                            </div>
                        </div>","-2","","0","","","","images/map02_YlOrRd_scaleDef_orientDef_000.png","disgust","1","02","02","YlOrRd","orientDef","scaleDef","000","",""
"","","","","","html-slider-response","125","339265","0.0-119.0","gpx4da409v","56","NaN","<div style=""width:500px;"">
                            <p style=""font-size:50px; font-weight:bold;""
                            >disgust</p>
                            <div style=""width:240px; margin: auto;"">
                                <img src=""images/map26_cividis_scaleRev_orientDef_090.png"" style= ""width:200px""alt=""img"">
                            </div>
                        </div>","-2","","0","","","","images/map26_cividis_scaleRev_orientDef_090.png","disgust","1","26","26","cividis","orientDef","scaleRev","090","",""
"","","","","","html-slider-response","126","339982","0.0-120.0","gpx4da409v","56","NaN","<div style=""width:500px;"">
                            <p style=""font-size:50px; font-weight:bold;""
                            >disgust</p>
                            <div style=""width:240px; margin: auto;"">
                                <img src=""images/map26_Greys_scaleRev_orientDef_270.png"" style= ""width:200px""alt=""img"">
                            </div>
                        </div>","-2","","0","","","","images/map26_Greys_scaleRev_orientDef_270.png","disgust","1","26","26","Greys","orientDef","scaleRev","270","",""
"","","","","","html-slider-response","127","340965","0.0-121.0","gpx4da409v","56","NaN","<div style=""width:500px;"">
                            <p style=""font-size:50px; font-weight:bold;""
                            >disgust</p>
                            <div style=""width:240px; margin: auto;"">
                                <img src=""images/map15_managua_scaleDef_orientDef_000.png"" style= ""width:200px""alt=""img"">
                            </div>
                        </div>","-2","","0","","","","images/map15_managua_scaleDef_orientDef_000.png","disgust","1","15","15","managua","orientDef","scaleDef","000","",""
"","","","","","html-slider-response","128","341982","0.0-122.0","gpx4da409v","56","NaN","<div style=""width:500px;"">
                            <p style=""font-size:50px; font-weight:bold;""
                            >disgust</p>
                            <div style=""width:240px; margin: auto;"">
                                <img src=""images/map26_Purples_scaleDef_orientMir_000.png"" style= ""width:200px""alt=""img"">
                            </div>
                        </div>","-2","","0","","","","images/map26_Purples_scaleDef_orientMir_000.png","disgust","1","26","26","Purples","orientMir","scaleDef","000","",""
"","","","","","html-slider-response","129","342632","0.0-123.0","gpx4da409v","56","NaN","<div style=""width:500px;"">
                            <p style=""font-size:50px; font-weight:bold;""
                            >disgust</p>
                            <div style=""width:240px; margin: auto;"">
                                <img src=""images/map15_managua_scaleRev_orientDef_090.png"" style= ""width:200px""alt=""img"">
                            </div>
                        </div>","-2","","0","","","","images/map15_managua_scaleRev_orientDef_090.png","disgust","1","15","15","managua","orientDef","scaleRev","090","",""
"","","","","","html-slider-response","130","343499","0.0-124.0","gpx4da409v","56","NaN","<div style=""width:500px;"">
                            <p style=""font-size:50px; font-weight:bold;""
                            >disgust</p>
                            <div style=""width:240px; margin: auto;"">
                                <img src=""images/map10_BrBG_scaleRev_orientDef_270.png"" style= ""width:200px""alt=""img"">
                            </div>
                        </div>","-2","","0","","","","images/map10_BrBG_scaleRev_orientDef_270.png","disgust","1","10","10","BrBG","orientDef","scaleRev","270","",""
"","","","","","html-slider-response","131","344415","0.0-125.0","gpx4da409v","56","NaN","<div style=""width:500px;"">
                            <p style=""font-size:50px; font-weight:bold;""
                            >disgust</p>
                            <div style=""width:240px; margin: auto;"">
                                <img src=""images/map07_YlGn_scaleRev_orientMir_090.png"" style= ""width:200px""alt=""img"">
                            </div>
                        </div>","-2","","0","","","","images/map07_YlGn_scaleRev_orientMir_090.png","disgust","1","07","07","YlGn","orientMir","scaleRev","090","",""
"","","","","","html-slider-response","132","345215","0.0-126.0","gpx4da409v","56","NaN","<div style=""width:500px;"">
                            <p style=""font-size:50px; font-weight:bold;""
                            >disgust</p>
                            <div style=""width:240px; margin: auto;"">
                                <img src=""images/map10_PRGn_scaleDef_orientDef_000.png"" style= ""width:200px""alt=""img"">
                            </div>
                        </div>","-2","","0","","","","images/map10_PRGn_scaleDef_orientDef_000.png","disgust","1","10","10","PRGn","orientDef","scaleDef","000","",""
"","","","","","html-slider-response","133","346166","0.0-127.0","gpx4da409v","56","NaN","<div style=""width:500px;"">
                            <p style=""font-size:50px; font-weight:bold;""
                            >disgust</p>
                            <div style=""width:240px; margin: auto;"">
                                <img src=""images/map26_Greys_scaleDef_orientDef_180.png"" style= ""width:200px""alt=""img"">
                            </div>
                        </div>","-2","","0","","","","images/map26_Greys_scaleDef_orientDef_180.png","disgust","1","26","26","Greys","orientDef","scaleDef","180","",""
"","","","","","html-slider-response","134","346865","0.0-128.0","gpx4da409v","56","NaN","<div style=""width:500px;"">
                            <p style=""font-size:50px; font-weight:bold;""
                            >disgust</p>
                            <div style=""width:240px; margin: auto;"">
                                <img src=""images/map12_RdYlGn_scaleRev_orientMir_090.png"" style= ""width:200px""alt=""img"">
                            </div>
                        </div>","-2","","0","","","","images/map12_RdYlGn_scaleRev_orientMir_090.png","disgust","1","12","12","RdYlGn","orientMir","scaleRev","090","",""
"","","","","","html-slider-response","135","347965","0.0-129.0","gpx4da409v","56","NaN","<div style=""width:500px;"">
                            <p style=""font-size:50px; font-weight:bold;""
                            >disgust</p>
                            <div style=""width:240px; margin: auto;"">
                                <img src=""images/map23_plasma_scaleRev_orientDef_270.png"" style= ""width:200px""alt=""img"">
                            </div>
                        </div>","-2","","0","","","","images/map23_plasma_scaleRev_orientDef_270.png","disgust","1","23","23","plasma","orientDef","scaleRev","270","",""
"","","","","","html-slider-response","136","348665","0.0-130.0","gpx4da409v","56","NaN","<div style=""width:500px;"">
                            <p style=""font-size:50px; font-weight:bold;""
                            >disgust</p>
                            <div style=""width:240px; margin: auto;"">
                                <img src=""images/map05_GnBu_scaleRev_orientDef_270.png"" style= ""width:200px""alt=""img"">
                            </div>
                        </div>","-2","","0","","","","images/map05_GnBu_scaleRev_orientDef_270.png","disgust","1","05","05","GnBu","orientDef","scaleRev","270","",""
"","","","","","html-slider-response","137","349482","0.0-131.0","gpx4da409v","56","NaN","<div style=""width:500px;"">
                            <p style=""font-size:50px; font-weight:bold;""
                            >disgust</p>
                            <div style=""width:240px; margin: auto;"">
                                <img src=""images/map05_BuPu_scaleRev_orientDef_090.png"" style= ""width:200px""alt=""img"">
                            </div>
                        </div>","-2","","0","","","","images/map05_BuPu_scaleRev_orientDef_090.png","disgust","1","05","05","BuPu","orientDef","scaleRev","090","",""
"","","","","","html-slider-response","138","350649","0.0-132.0","gpx4da409v","56","NaN","<div style=""width:500px;"">
                            <p style=""font-size:50px; font-weight:bold;""
                            >disgust</p>
                            <div style=""width:240px; margin: auto;"">
                                <img src=""images/map27_Oranges_scaleDef_orientDef_180.png"" style= ""width:200px""alt=""img"">
                            </div>
                        </div>","-2","","0","","","","images/map27_Oranges_scaleDef_orientDef_180.png","disgust","1","27","27","Oranges","orientDef","scaleDef","180","",""
"","","","","","html-slider-response","139","351465","0.0-133.0","gpx4da409v","56","NaN","<div style=""width:500px;"">
                            <p style=""font-size:50px; font-weight:bold;""
                            >disgust</p>
                            <div style=""width:240px; margin: auto;"">
                                <img src=""images/map12_RdBu_scaleRev_orientDef_090.png"" style= ""width:200px""alt=""img"">
                            </div>
                        </div>","-2","","0","","","","images/map12_RdBu_scaleRev_orientDef_090.png","disgust","1","12","12","RdBu","orientDef","scaleRev","090","",""
"","","","","","html-slider-response","140","352299","0.0-134.0","gpx4da409v","56","NaN","<div style=""width:500px;"">
                            <p style=""font-size:50px; font-weight:bold;""
                            >disgust</p>
                            <div style=""width:240px; margin: auto;"">
                                <img src=""images/map27_Greens_scaleRev_orientDef_090.png"" style= ""width:200px""alt=""img"">
                            </div>
                        </div>","-2","","0","","","","images/map27_Greens_scaleRev_orientDef_090.png","disgust","1","27","27","Greens","orientDef","scaleRev","090","",""
"","","","","","html-slider-response","141","353199","0.0-135.0","gpx4da409v","56","NaN","<div style=""width:500px;"">
                            <p style=""font-size:50px; font-weight:bold;""
                            >disgust</p>
                            <div style=""width:240px; margin: auto;"">
                                <img src=""images/map02_PuRd_scaleRev_orientMir_090.png"" style= ""width:200px""alt=""img"">
                            </div>
                        </div>","-2","","0","","","","images/map02_PuRd_scaleRev_orientMir_090.png","disgust","1","02","02","PuRd","orientMir","scaleRev","090","",""
"","","","","","html-slider-response","142","353932","0.0-136.0","gpx4da409v","56","NaN","<div style=""width:500px;"">
                            <p style=""font-size:50px; font-weight:bold;""
                            >disgust</p>
                            <div style=""width:240px; margin: auto;"">
                                <img src=""images/map10_RdGy_scaleDef_orientMir_180.png"" style= ""width:200px""alt=""img"">
                            </div>
                        </div>","-2","","0","","","","images/map10_RdGy_scaleDef_orientMir_180.png","disgust","1","10","10","RdGy","orientMir","scaleDef","180","",""
"","","","","","html-button-response","143","357354","0.0-137.0","gpx4da409v","56","2920","<p>You are doing great!<br></br> You are halway done with the current block. When you are ready to continue, click the 'Continue' button.</p>","0","","","","","","","","","","","","","","","",""
"","","","","","html-slider-response","144","358548","0.0-138.0","gpx4da409v","56","NaN","<div style=""width:500px;"">
                            <p style=""font-size:50px; font-weight:bold;""
                            >disgust</p>
                            <div style=""width:240px; margin: auto;"">
                                <img src=""images/map26_Blues_scaleRev_orientMir_270.png"" style= ""width:200px""alt=""img"">
                            </div>
                        </div>","-1","","0","","","","images/map26_Blues_scaleRev_orientMir_270.png","disgust","1","26","26","Blues","orientMir","scaleRev","270","",""
"","","","","","html-slider-response","145","359465","0.0-139.0","gpx4da409v","56","NaN","<div style=""width:500px;"">
                            <p style=""font-size:50px; font-weight:bold;""
                            >disgust</p>
                            <div style=""width:240px; margin: auto;"">
                                <img src=""images/map05_GnBu_scaleDef_orientDef_180.png"" style= ""width:200px""alt=""img"">
                            </div>
                        </div>","-1","","0","","","","images/map05_GnBu_scaleDef_orientDef_180.png","disgust","1","05","05","GnBu","orientDef","scaleDef","180","",""
"","","","","","html-slider-response","146","360415","0.0-140.0","gpx4da409v","56","NaN","<div style=""width:500px;"">
                            <p style=""font-size:50px; font-weight:bold;""
                            >disgust</p>
                            <div style=""width:240px; margin: auto;"">
                                <img src=""images/map12_RdBu_scaleDef_orientDef_000.png"" style= ""width:200px""alt=""img"">
                            </div>
                        </div>","-1","","0","","","","images/map12_RdBu_scaleDef_orientDef_000.png","disgust","1","12","12","RdBu","orientDef","scaleDef","000","",""
"","","","","","html-slider-response","147","361265","0.0-141.0","gpx4da409v","56","NaN","<div style=""width:500px;"">
                            <p style=""font-size:50px; font-weight:bold;""
                            >disgust</p>
                            <div style=""width:240px; margin: auto;"">
                                <img src=""images/map15_gist_earth_scaleDef_orientMir_000.png"" style= ""width:200px""alt=""img"">
                            </div>
                        </div>","-1","","0","","","","images/map15_gist_earth_scaleDef_orientMir_000.png","disgust","1","15","15","gist","scaleDef","earth","orientMir","",""
"","","","","","html-slider-response","148","361982","0.0-142.0","gpx4da409v","56","NaN","<div style=""width:500px;"">
                            <p style=""font-size:50px; font-weight:bold;""
                            >disgust</p>
                            <div style=""width:240px; margin: auto;"">
                                <img src=""images/map13_seismic_scaleDef_orientMir_000.png"" style= ""width:200px""alt=""img"">
                            </div>
                        </div>","-1","","0","","","","images/map13_seismic_scaleDef_orientMir_000.png","disgust","1","13","13","seismic","orientMir","scaleDef","000","",""
"","","","","","html-slider-response","149","362965","0.0-143.0","gpx4da409v","56","NaN","<div style=""width:500px;"">
                            <p style=""font-size:50px; font-weight:bold;""
                            >disgust</p>
                            <div style=""width:240px; margin: auto;"">
                                <img src=""images/map13_bwr_scaleRev_orientDef_270.png"" style= ""width:200px""alt=""img"">
                            </div>
                        </div>","-1","","0","","","","images/map13_bwr_scaleRev_orientDef_270.png","disgust","1","13","13","bwr","orientDef","scaleRev","270","",""
"","","","","","html-slider-response","150","363698","0.0-144.0","gpx4da409v","56","NaN","<div style=""width:500px;"">
                            <p style=""font-size:50px; font-weight:bold;""
                            >disgust</p>
                            <div style=""width:240px; margin: auto;"">
                                <img src=""images/map12_RdYlBu_scaleDef_orientDef_180.png"" style= ""width:200px""alt=""img"">
                            </div>
                        </div>","-1","","0","","","","images/map12_RdYlBu_scaleDef_orientDef_180.png","disgust","1","12","12","RdYlBu","orientDef","scaleDef","180","",""
"","","","","","html-slider-response","151","364566","0.0-145.0","gpx4da409v","56","NaN","<div style=""width:500px;"">
                            <p style=""font-size:50px; font-weight:bold;""
                            >disgust</p>
                            <div style=""width:240px; margin: auto;"">
                                <img src=""images/map10_PuOr_scaleDef_orientMir_000.png"" style= ""width:200px""alt=""img"">
                            </div>
                        </div>","-1","","0","","","","images/map10_PuOr_scaleDef_orientMir_000.png","disgust","1","10","10","PuOr","orientMir","scaleDef","000","",""
"","","","","","html-slider-response","152","365432","0.0-146.0","gpx4da409v","56","NaN","<div style=""width:500px;"">
                            <p style=""font-size:50px; font-weight:bold;""
                            >disgust</p>
                            <div style=""width:240px; margin: auto;"">
                                <img src=""images/map02_RdPu_scaleDef_orientMir_180.png"" style= ""width:200px""alt=""img"">
                            </div>
                        </div>","-1","","0","","","","images/map02_RdPu_scaleDef_orientMir_180.png","disgust","1","02","02","RdPu","orientMir","scaleDef","180","",""
"","","","","","html-slider-response","153","366349","0.0-147.0","gpx4da409v","56","NaN","<div style=""width:500px;"">
                            <p style=""font-size:50px; font-weight:bold;""
                            >disgust</p>
                            <div style=""width:240px; margin: auto;"">
                                <img src=""images/map02_YlOrRd_scaleRev_orientDef_090.png"" style= ""width:200px""alt=""img"">
                            </div>
                        </div>","-1","","0","","","","images/map02_YlOrRd_scaleRev_orientDef_090.png","disgust","1","02","02","YlOrRd","orientDef","scaleRev","090","",""
"","","","","","html-slider-response","154","367282","0.0-148.0","gpx4da409v","56","NaN","<div style=""width:500px;"">
                            <p style=""font-size:50px; font-weight:bold;""
                            >disgust</p>
                            <div style=""width:240px; margin: auto;"">
                                <img src=""images/map23_viridis_scaleDef_orientDef_000.png"" style= ""width:200px""alt=""img"">
                            </div>
                        </div>","-1","","0","","","","images/map23_viridis_scaleDef_orientDef_000.png","disgust","1","23","23","viridis","orientDef","scaleDef","000","",""
"","","","","","html-slider-response","155","367882","0.0-149.0","gpx4da409v","56","NaN","<div style=""width:500px;"">
                            <p style=""font-size:50px; font-weight:bold;""
                            >disgust</p>
                            <div style=""width:240px; margin: auto;"">
                                <img src=""images/map15_vanimo_scaleDef_orientDef_180.png"" style= ""width:200px""alt=""img"">
                            </div>
                        </div>","-1","","0","","","","images/map15_vanimo_scaleDef_orientDef_180.png","disgust","1","15","15","vanimo","orientDef","scaleDef","180","",""
"","","","","","html-slider-response","156","368765","0.0-150.0","gpx4da409v","56","NaN","<div style=""width:500px;"">
                            <p style=""font-size:50px; font-weight:bold;""
                            >disgust</p>
                            <div style=""width:240px; margin: auto;"">
                                <img src=""images/map13_berlin_scaleRev_orientMir_270.png"" style= ""width:200px""alt=""img"">
                            </div>
                        </div>","-1","","0","","","","images/map13_berlin_scaleRev_orientMir_270.png","disgust","1","13","13","berlin","orientMir","scaleRev","270","",""
"","","","","","html-slider-response","157","369598","0.0-151.0","gpx4da409v","56","NaN","<div style=""width:500px;"">
                            <p style=""font-size:50px; font-weight:bold;""
                            >disgust</p>
                            <div style=""width:240px; margin: auto;"">
                                <img src=""images/map15_turbo_scaleDef_orientMir_180.png"" style= ""width:200px""alt=""img"">
                            </div>
                        </div>","-1","","0","","","","images/map15_turbo_scaleDef_orientMir_180.png","disgust","1","15","15","turbo","orientMir","scaleDef","180","",""
"","","","","","html-slider-response","158","370399","0.0-152.0","gpx4da409v","56","NaN","<div style=""width:500px;"">
                            <p style=""font-size:50px; font-weight:bold;""
                            >disgust</p>
                            <div style=""width:240px; margin: auto;"">
                                <img src=""images/map07_PuBuGn_scaleRev_orientDef_090.png"" style= ""width:200px""alt=""img"">
                            </div>
