"success","timeout","failed_images","failed_audio","failed_video","trial_type","trial_index","time_elapsed","internal_node_id","subject_id","condition_num","rt","stimulus","response","question_order","slider_start","practiceTrial","practiceTrialNum","correct","image_path","concept","repetition","map_id","map_num","scale_name","orientation_code","mapping_code","rotation_code","ishihara_plate","correct_response"
"true","false","[]","[]","[]","preload","0","1173","0.0-0.0","gvyvsja3yc","32","","","","","","","","","","","","","","","","","","",""
"","","","","","html-button-response","1","8382","0.0-1.0","gvyvsja3yc","32","7208","Welcome to our experiment!<p>At the bottom of this screen, you will see a button that says ""Begin Experiment"".<br>Please only click that button when you are ready to complete the 30 minute experiment in one sitting.</p><p> Once you click that button, it will not be possible to restart the experiment.","0","","","","","","","","","","","","","","","",""
"true","","","","","fullscreen","2","10250","0.0-2.0","gvyvsja3yc","32","865","","","","","","","","","","","","","","","","","",""
"","","","","","survey-multi-select","3","34766","0.0-3.0","gvyvsja3yc","32","24512","","{""Consent"":[""<strong>I consent</strong>""]}","[0]","","","","","","","","","","","","","","",""
"","","","","","html-button-response","4","35747","0.0-4.0","gvyvsja3yc","32","980","Welcome! <p> This experiment involves two parts: demographic information, followed by the experimental task.<p> It will take about 30 minutes to complete both parts.","0","","","","","","","","","","","","","","","",""
"","","","","","survey-text","5","44133","0.0-5.0","gvyvsja3yc","32","8379","","{""Age"":""19"",""Gender"":""female"",""Race/ethnicity"":""white"",""Languages"":""english""}","","","","","","","","","","","","","","","",""
"","","","","","html-slider-response","6","45798","0.0-6.0","gvyvsja3yc","32","1662","<div style='text-align:left; font-size:20px; line-height:25px; width: 1000px;'>
                                During this experiment you will be asked to rate how much you associate maps with                    different concepts.<br> Below, you can see some examples of the maps you will be asked to rate. Above the maps
                    is the list of concepts.<br>You will be asked                    to rate how much you associate each map with each concept on a scale from 'not at all' to 'very much' like the
                    one below. <br><br>
                    Now, please look at the list of concepts and maps. For each concept, think about the map you associate 'very
                    much' with the concept.<br>                     When you see that map during the experiment, please rate it near the 'very much' endpoint of the
                    scale.<br>Now, please think about which map you associate 'not at all'                     with each concept. When you see that map during the experiment, please rate it near the 'not at all' endpoint
                    of the scale.<br>
                    Please use the full range of the scale. That is, if a map is somewhat associated with the concept, you would
                    click partway between the middle point and right side of the scale.                    You will be asked to rate each map for a given concept before moving on to the next concept.<br>Press the
                    'Continue' button for instructions on how to use the slider.                    <br>
                </div>

                <div style=""width: 500px; margin: 0 auto;"">
                    <!-- Centered text paragraphs -->
                    <div style=""text-align: center; width: 500px;"">
                        <p style=""font-size:25px; line-height:15px;"">
                            happy&nbsp;&nbsp;&nbsp;&nbsp;
                            angry&nbsp;&nbsp;&nbsp;&nbsp;
                            disgust&nbsp;&nbsp;&nbsp;&nbsp;
                            sad&nbsp;&nbsp;&nbsp;&nbsp;
                            fearful
                        </p>
                        <!-- <p style=""font-size:20px; line-height:15px;"">angry</p>
                        <p style=""font-size:20px;line-height:15px;"">disgust</p>
                        <p style=""font-size:20px;line-height:15px;"">sad</p>
                        <p style=""font-size:20px;line-height:15px;"">fearful</p> -->
                    </div>
            

                    <!-- Grid section -->
                   <div style=""display: flex; justify-content: center; padding-top: 15px;"">
                    <div style=""display: grid; grid-template-columns: repeat(10, 55px); grid-gap: 5px; width: auto;"">
                        <img src=""images/map15_Greens_scaleRev_orientDef_090.png"" alt=""map"" style=""width: 100%;""><img src=""images/map27_PuBuGn_scaleDef_orientDef_000.png"" alt=""map"" style=""width: 100%;""><img src=""images/map05_RdYlGn_scaleDef_orientMir_000.png"" alt=""map"" style=""width: 100%;""><img src=""images/map02_BrBG_scaleDef_orientDef_180.png"" alt=""map"" style=""width: 100%;""><img src=""images/map10_vanimo_scaleDef_orientDef_180.png"" alt=""map"" style=""width: 100%;""><img src=""images/map27_YlGn_scaleRev_orientMir_090.png"" alt=""map"" style=""width: 100%;""><img src=""images/map27_BuGn_scaleRev_orientDef_270.png"" alt=""map"" style=""width: 100%;""><img src=""images/map05_RdBu_scaleDef_orientDef_000.png"" alt=""map"" style=""width: 100%;""><img src=""images/map13_Purples_scaleDef_orientMir_000.png"" alt=""map"" style=""width: 100%;""><img src=""images/map13_cividis_scaleDef_orientDef_000.png"" alt=""map"" style=""width: 100%;""><img src=""images/map12_magma_scaleDef_orientMir_180.png"" alt=""map"" style=""width: 100%;""><img src=""images/map07_bwr_scaleRev_orientDef_270.png"" alt=""map"" style=""width: 100%;""><img src=""images/map07_coolwarm_scaleDef_orientDef_000.png"" alt=""map"" style=""width: 100%;""><img src=""images/map13_Greys_scaleDef_orientDef_180.png"" alt=""map"" style=""width: 100%;""><img src=""images/map26_BuPu_scaleRev_orientDef_090.png"" alt=""map"" style=""width: 100%;""><img src=""images/map23_OrRd_scaleDef_orientDef_180.png"" alt=""map"" style=""width: 100%;""><img src=""images/map10_managua_scaleRev_orientDef_090.png"" alt=""map"" style=""width: 100%;""><img src=""images/map10_gist_earth_scaleRev_orientMir_090.png"" alt=""map"" style=""width: 100%;""><img src=""images/map15_Oranges_scaleRev_orientDef_270.png"" alt=""map"" style=""width: 100%;""><img src=""images/map02_PuOr_scaleRev_orientMir_090.png"" alt=""map"" style=""width: 100%;""><img src=""images/map10_turbo_scaleRev_orientMir_270.png"" alt=""map"" style=""width: 100%;""><img src=""images/map23_YlOrRd_scaleDef_orientDef_000.png"" alt=""map"" style=""width: 100%;""><img src=""images/map05_RdYlBu_scaleRev_orientDef_270.png"" alt=""map"" style=""width: 100%;""><img src=""images/map26_YlGnBu_scaleDef_orientMir_180.png"" alt=""map"" style=""width: 100%;""><img src=""images/map02_RdGy_scaleRev_orientMir_270.png"" alt=""map"" style=""width: 100%;""><img src=""images/map07_seismic_scaleRev_orientMir_090.png"" alt=""map"" style=""width: 100%;""><img src=""images/map12_plasma_scaleRev_orientDef_270.png"" alt=""map"" style=""width: 100%;""><img src=""images/map27_PiYG_scaleDef_orientMir_180.png"" alt=""map"" style=""width: 100%;""><img src=""images/map13_Blues_scaleDef_orientMir_180.png"" alt=""map"" style=""width: 100%;""><img src=""images/map12_inferno_scaleRev_orientMir_090.png"" alt=""map"" style=""width: 100%;""><img src=""images/map23_RdPu_scaleDef_orientMir_180.png"" alt=""map"" style=""width: 100%;""><img src=""images/map26_GnBu_scaleRev_orientDef_270.png"" alt=""map"" style=""width: 100%;""><img src=""images/map15_Reds_scaleRev_orientMir_090.png"" alt=""map"" style=""width: 100%;""><img src=""images/map05_Spectral_scaleRev_orientMir_270.png"" alt=""map"" style=""width: 100%;""><img src=""images/map12_viridis_scaleRev_orientDef_090.png"" alt=""map"" style=""width: 100%;""><img src=""images/map02_PRGn_scaleDef_orientDef_000.png"" alt=""map"" style=""width: 100%;""><img src=""images/map07_berlin_scaleDef_orientMir_180.png"" alt=""map"" style=""width: 100%;""><img src=""images/map23_PuRd_scaleRev_orientMir_090.png"" alt=""map"" style=""width: 100%;""><img src=""images/map26_PuBu_scaleRev_orientMir_090.png"" alt=""map"" style=""width: 100%;""><img src=""images/map15_YlOrBr_scaleRev_orientMir_270.png"" alt=""map"" style=""width: 100%;"">
                    </div>
                </div>

                    <!-- Clear floats -->
                    <div style=""clear: both;""></div>
                </div>
                            ","null","","0","true","","","","","","","","","","","","",""
"","","","","","html-button-response","7","46665","0.0-7.0","gvyvsja3yc","32","866","<div style=""width:800px;""><p style=""text-align:left"">To move the slider, click and drag your cursor to the location of the scale where you would like to make your rating and then let go. When you let go of the slider, your response will be recorded and the next trial will begin. <br>
                    We are interested in your initial impressions of each map for the given concept, so please go with your first intuition. <br>
                    Before you begin the experiment, there will be four training trials for you to practice using the scale. <br>
                     When you are ready to start the training trials, please click ""Continue"".</p><br></div>","0","","","","","","","","","","","","","","","",""
"","","","","","html-slider-response","8","48992","0.0-8.0-0.0","gvyvsja3yc","32","NaN","<div style=""width:500px;"">
                                    <p style=""font-size:25px;"">Please move the slider all the way to the <br> right endpoint of the scale</p>

                                    </div>
                                </div>","200","","0","true","0","true","","","","","","","","","","",""
"","","","","","html-button-response","9","50315","0.0-8.0-1.0","gvyvsja3yc","32","819","<p align='center'><b>Good job!</b> Click on 'Continue' to proceed.</p>","0","","","","","","","","","","","","","","","",""
"","","","","","html-slider-response","10","51944","0.0-9.0-0.0","gvyvsja3yc","32","NaN","<div style=""width:500px;"">
                                    <p style=""font-size:25px;"">Please move the slider all the way to the <br> left endpoint of the scale</p>

                                    </div>
                                </div>","-200","","0","true","1","true","","","","","","","","","","",""
"","","","","","html-button-response","11","53281","0.0-9.0-1.0","gvyvsja3yc","32","834","<p align='center'><b>Good job!</b> Click on 'Continue' to proceed.</p>","0","","","","","","","","","","","","","","","",""
"","","","","","html-slider-response","12","54360","0.0-10.0-0.0","gvyvsja3yc","32","NaN","<div style=""width:500px;"">
                                    <p style=""font-size:25px;"">Please move the slider halfway between the center and right endpoint of the scale</p>

                                    </div>
                                </div>","99","","0","true","2","true","","","","","","","","","","",""
"","","","","","html-button-response","13","55548","0.0-10.0-1.0","gvyvsja3yc","32","685","<p align='center'><b>Good job!</b> Click on 'Continue' to proceed.</p>","0","","","","","","","","","","","","","","","",""
"","","","","","html-slider-response","14","56426","0.0-11.0-0.0","gvyvsja3yc","32","NaN","<div style=""width:500px;"">
                                    <p style=""font-size:25px;"">Please move the slider halfway between the center and left endpoint of the scale</p>

                                    </div>
                                </div>","-107","","0","true","3","true","","","","","","","","","","",""
"","","","","","html-button-response","15","58897","0.0-11.0-1.0","gvyvsja3yc","32","1968","<p align='center'><b>Good job!</b> Click on 'Continue' to proceed.</p>","0","","","","","","","","","","","","","","","",""
"","","","","","html-button-response","16","60131","0.0-12.0","gvyvsja3yc","32","1233","<p>Great job! You've completed the practice trials. Now you will begin the main task.</p>","0","","","","","","","","","","","","","","","",""
"","","","","","html-button-response","17","65114","0.0-13.0","gvyvsja3yc","32","4982","<p>In this block of trials, you will be asked to rate how much you associate each map with:</p > <p style = 'font-size:150%; font-weight: bold'>happy</p><br></br>","0","","","","","","","","","","","","","","","",""
"","","","","","html-slider-response","18","66759","0.0-14.0","gvyvsja3yc","32","NaN","<div style=""width:500px;"">
                            <p style=""font-size:50px; font-weight:bold;""
                            >happy</p>
                            <div style=""width:240px; margin: auto;"">
                                <img src=""images/map02_PuOr_scaleRev_orientMir_090.png"" style= ""width:200px""alt=""img"">
                            </div>
                        </div>","97","","0","","","","images/map02_PuOr_scaleRev_orientMir_090.png","happy","1","02","02","PuOr","orientMir","scaleRev","090","",""
"","","","","","html-slider-response","19","68309","0.0-15.0","gvyvsja3yc","32","NaN","<div style=""width:500px;"">
                            <p style=""font-size:50px; font-weight:bold;""
                            >happy</p>
                            <div style=""width:240px; margin: auto;"">
                                <img src=""images/map27_PuBuGn_scaleDef_orientDef_000.png"" style= ""width:200px""alt=""img"">
                            </div>
                        </div>","87","","0","","","","images/map27_PuBuGn_scaleDef_orientDef_000.png","happy","1","27","27","PuBuGn","orientDef","scaleDef","000","",""
"","","","","","html-slider-response","20","69876","0.0-16.0","gvyvsja3yc","32","NaN","<div style=""width:500px;"">
                            <p style=""font-size:50px; font-weight:bold;""
                            >happy</p>
                            <div style=""width:240px; margin: auto;"">
                                <img src=""images/map05_RdYlBu_scaleDef_orientDef_180.png"" style= ""width:200px""alt=""img"">
                            </div>
                        </div>","90","","0","","","","images/map05_RdYlBu_scaleDef_orientDef_180.png","happy","1","05","05","RdYlBu","orientDef","scaleDef","180","",""
"","","","","","html-slider-response","21","71126","0.0-17.0","gvyvsja3yc","32","NaN","<div style=""width:500px;"">
                            <p style=""font-size:50px; font-weight:bold;""
                            >happy</p>
                            <div style=""width:240px; margin: auto;"">
                                <img src=""images/map27_PuBuGn_scaleRev_orientDef_090.png"" style= ""width:200px""alt=""img"">
                            </div>
                        </div>","90","","0","","","","images/map27_PuBuGn_scaleRev_orientDef_090.png","happy","1","27","27","PuBuGn","orientDef","scaleRev","090","",""
"","","","","","html-slider-response","22","73226","0.0-18.0","gvyvsja3yc","32","NaN","<div style=""width:500px;"">
                            <p style=""font-size:50px; font-weight:bold;""
                            >happy</p>
                            <div style=""width:240px; margin: auto;"">
                                <img src=""images/map12_plasma_scaleRev_orientDef_270.png"" style= ""width:200px""alt=""img"">
                            </div>
                        </div>","-20","","0","","","","images/map12_plasma_scaleRev_orientDef_270.png","happy","1","12","12","plasma","orientDef","scaleRev","270","",""
"","","","","","html-slider-response","23","75792","0.0-19.0","gvyvsja3yc","32","NaN","<div style=""width:500px;"">
                            <p style=""font-size:50px; font-weight:bold;""
                            >happy</p>
                            <div style=""width:240px; margin: auto;"">
                                <img src=""images/map05_Spectral_scaleDef_orientMir_180.png"" style= ""width:200px""alt=""img"">
                            </div>
                        </div>","-10","","0","","","","images/map05_Spectral_scaleDef_orientMir_180.png","happy","1","05","05","Spectral","orientMir","scaleDef","180","",""
"","","","","","html-slider-response","24","77142","0.0-20.0","gvyvsja3yc","32","NaN","<div style=""width:500px;"">
                            <p style=""font-size:50px; font-weight:bold;""
                            >happy</p>
                            <div style=""width:240px; margin: auto;"">
                                <img src=""images/map02_PuOr_scaleDef_orientMir_000.png"" style= ""width:200px""alt=""img"">
                            </div>
                        </div>","-14","","0","","","","images/map02_PuOr_scaleDef_orientMir_000.png","happy","1","02","02","PuOr","orientMir","scaleDef","000","",""
"","","","","","html-slider-response","25","79175","0.0-21.0","gvyvsja3yc","32","NaN","<div style=""width:500px;"">
                            <p style=""font-size:50px; font-weight:bold;""
                            >happy</p>
                            <div style=""width:240px; margin: auto;"">
                                <img src=""images/map05_RdYlGn_scaleRev_orientMir_090.png"" style= ""width:200px""alt=""img"">
                            </div>
                        </div>","-17","","0","","","","images/map05_RdYlGn_scaleRev_orientMir_090.png","happy","1","05","05","RdYlGn","orientMir","scaleRev","090","",""
"","","","","","html-slider-response","26","81708","0.0-22.0","gvyvsja3yc","32","NaN","<div style=""width:500px;"">
                            <p style=""font-size:50px; font-weight:bold;""
                            >happy</p>
                            <div style=""width:240px; margin: auto;"">
                                <img src=""images/map15_Oranges_scaleRev_orientDef_270.png"" style= ""width:200px""alt=""img"">
                            </div>
                        </div>","-184","","0","","","","images/map15_Oranges_scaleRev_orientDef_270.png","happy","1","15","15","Oranges","orientDef","scaleRev","270","",""
"","","","","","html-slider-response","27","84692","0.0-23.0","gvyvsja3yc","32","NaN","<div style=""width:500px;"">
                            <p style=""font-size:50px; font-weight:bold;""
                            >happy</p>
                            <div style=""width:240px; margin: auto;"">
                                <img src=""images/map05_RdBu_scaleRev_orientDef_090.png"" style= ""width:200px""alt=""img"">
                            </div>
                        </div>","60","","0","","","","images/map05_RdBu_scaleRev_orientDef_090.png","happy","1","05","05","RdBu","orientDef","scaleRev","090","",""
"","","","","","html-slider-response","28","95141","0.0-24.0","gvyvsja3yc","32","NaN","<div style=""width:500px;"">
                            <p style=""font-size:50px; font-weight:bold;""
                            >happy</p>
                            <div style=""width:240px; margin: auto;"">
                                <img src=""images/map05_Spectral_scaleRev_orientMir_270.png"" style= ""width:200px""alt=""img"">
                            </div>
                        </div>","-39","","0","","","","images/map05_Spectral_scaleRev_orientMir_270.png","happy","1","05","05","Spectral","orientMir","scaleRev","270","",""
"","","","","","html-slider-response","29","97459","0.0-25.0","gvyvsja3yc","32","NaN","<div style=""width:500px;"">
                            <p style=""font-size:50px; font-weight:bold;""
                            >happy</p>
                            <div style=""width:240px; margin: auto;"">
                                <img src=""images/map07_berlin_scaleDef_orientMir_180.png"" style= ""width:200px""alt=""img"">
                            </div>
                        </div>","-182","","0","","","","images/map07_berlin_scaleDef_orientMir_180.png","happy","1","07","07","berlin","orientMir","scaleDef","180","",""
"","","","","","html-slider-response","30","99792","0.0-26.0","gvyvsja3yc","32","NaN","<div style=""width:500px;"">
                            <p style=""font-size:50px; font-weight:bold;""
                            >happy</p>
                            <div style=""width:240px; margin: auto;"">
                                <img src=""images/map10_vanimo_scaleRev_orientDef_270.png"" style= ""width:200px""alt=""img"">
                            </div>
                        </div>","-166","","0","","","","images/map10_vanimo_scaleRev_orientDef_270.png","happy","1","10","10","vanimo","orientDef","scaleRev","270","",""
"","","","","","html-slider-response","31","102525","0.0-27.0","gvyvsja3yc","32","NaN","<div style=""width:500px;"">
                            <p style=""font-size:50px; font-weight:bold;""
                            >happy</p>
                            <div style=""width:240px; margin: auto;"">
                                <img src=""images/map15_Greens_scaleRev_orientDef_090.png"" style= ""width:200px""alt=""img"">
                            </div>
                        </div>","-94","","0","","","","images/map15_Greens_scaleRev_orientDef_090.png","happy","1","15","15","Greens","orientDef","scaleRev","090","",""
"","","","","","html-slider-response","32","104192","0.0-28.0","gvyvsja3yc","32","NaN","<div style=""width:500px;"">
                            <p style=""font-size:50px; font-weight:bold;""
                            >happy</p>
                            <div style=""width:240px; margin: auto;"">
                                <img src=""images/map13_cividis_scaleDef_orientDef_000.png"" style= ""width:200px""alt=""img"">
                            </div>
                        </div>","-100","","0","","","","images/map13_cividis_scaleDef_orientDef_000.png","happy","1","13","13","cividis","orientDef","scaleDef","000","",""
"","","","","","html-slider-response","33","105942","0.0-29.0","gvyvsja3yc","32","NaN","<div style=""width:500px;"">
                            <p style=""font-size:50px; font-weight:bold;""
                            >happy</p>
                            <div style=""width:240px; margin: auto;"">
                                <img src=""images/map07_seismic_scaleRev_orientMir_090.png"" style= ""width:200px""alt=""img"">
                            </div>
                        </div>","-102","","0","","","","images/map07_seismic_scaleRev_orientMir_090.png","happy","1","07","07","seismic","orientMir","scaleRev","090","",""
"","","","","","html-slider-response","34","108059","0.0-30.0","gvyvsja3yc","32","NaN","<div style=""width:500px;"">
                            <p style=""font-size:50px; font-weight:bold;""
                            >happy</p>
                            <div style=""width:240px; margin: auto;"">
                                <img src=""images/map26_PuBu_scaleRev_orientMir_090.png"" style= ""width:200px""alt=""img"">
                            </div>
                        </div>","74","","0","","","","images/map26_PuBu_scaleRev_orientMir_090.png","happy","1","26","26","PuBu","orientMir","scaleRev","090","",""
"","","","","","html-slider-response","35","109642","0.0-31.0","gvyvsja3yc","32","NaN","<div style=""width:500px;"">
                            <p style=""font-size:50px; font-weight:bold;""
                            >happy</p>
                            <div style=""width:240px; margin: auto;"">
                                <img src=""images/map02_BrBG_scaleDef_orientDef_180.png"" style= ""width:200px""alt=""img"">
                            </div>
                        </div>","-86","","0","","","","images/map02_BrBG_scaleDef_orientDef_180.png","happy","1","02","02","BrBG","orientDef","scaleDef","180","",""
"","","","","","html-slider-response","36","111025","0.0-32.0","gvyvsja3yc","32","NaN","<div style=""width:500px;"">
                            <p style=""font-size:50px; font-weight:bold;""
                            >happy</p>
                            <div style=""width:240px; margin: auto;"">
                                <img src=""images/map27_YlGn_scaleDef_orientMir_000.png"" style= ""width:200px""alt=""img"">
                            </div>
                        </div>","-86","","0","","","","images/map27_YlGn_scaleDef_orientMir_000.png","happy","1","27","27","YlGn","orientMir","scaleDef","000","",""
"","","","","","html-slider-response","37","112142","0.0-33.0","gvyvsja3yc","32","NaN","<div style=""width:500px;"">
                            <p style=""font-size:50px; font-weight:bold;""
                            >happy</p>
                            <div style=""width:240px; margin: auto;"">
                                <img src=""images/map10_turbo_scaleRev_orientMir_270.png"" style= ""width:200px""alt=""img"">
                            </div>
                        </div>","-86","","0","","","","images/map10_turbo_scaleRev_orientMir_270.png","happy","1","10","10","turbo","orientMir","scaleRev","270","",""
"","","","","","html-slider-response","38","113326","0.0-34.0","gvyvsja3yc","32","NaN","<div style=""width:500px;"">
                            <p style=""font-size:50px; font-weight:bold;""
                            >happy</p>
                            <div style=""width:240px; margin: auto;"">
                                <img src=""images/map13_Purples_scaleDef_orientMir_000.png"" style= ""width:200px""alt=""img"">
                            </div>
                        </div>","-86","","0","","","","images/map13_Purples_scaleDef_orientMir_000.png","happy","1","13","13","Purples","orientMir","scaleDef","000","",""
"","","","","","html-slider-response","39","114725","0.0-35.0","gvyvsja3yc","32","NaN","<div style=""width:500px;"">
                            <p style=""font-size:50px; font-weight:bold;""
                            >happy</p>
                            <div style=""width:240px; margin: auto;"">
                                <img src=""images/map12_inferno_scaleDef_orientMir_000.png"" style= ""width:200px""alt=""img"">
                            </div>
                        </div>","-86","","0","","","","images/map12_inferno_scaleDef_orientMir_000.png","happy","1","12","12","inferno","orientMir","scaleDef","000","",""
"","","","","","html-slider-response","40","116392","0.0-36.0","gvyvsja3yc","32","NaN","<div style=""width:500px;"">
                            <p style=""font-size:50px; font-weight:bold;""
                            >happy</p>
                            <div style=""width:240px; margin: auto;"">
                                <img src=""images/map07_coolwarm_scaleRev_orientDef_090.png"" style= ""width:200px""alt=""img"">
                            </div>
                        </div>","115","","0","","","","images/map07_coolwarm_scaleRev_orientDef_090.png","happy","1","07","07","coolwarm","orientDef","scaleRev","090","",""
"","","","","","html-slider-response","41","118542","0.0-37.0","gvyvsja3yc","32","NaN","<div style=""width:500px;"">
                            <p style=""font-size:50px; font-weight:bold;""
                            >happy</p>
                            <div style=""width:240px; margin: auto;"">
                                <img src=""images/map10_managua_scaleRev_orientDef_090.png"" style= ""width:200px""alt=""img"">
                            </div>
                        </div>","-136","","0","","","","images/map10_managua_scaleRev_orientDef_090.png","happy","1","10","10","managua","orientDef","scaleRev","090","",""
"","","","","","html-slider-response","42","119909","0.0-38.0","gvyvsja3yc","32","NaN","<div style=""width:500px;"">
                            <p style=""font-size:50px; font-weight:bold;""
                            >happy</p>
                            <div style=""width:240px; margin: auto;"">
                                <img src=""images/map27_BuGn_scaleRev_orientDef_270.png"" style= ""width:200px""alt=""img"">
                            </div>
                        </div>","-136","","0","","","","images/map27_BuGn_scaleRev_orientDef_270.png","happy","1","27","27","BuGn","orientDef","scaleRev","270","",""
"","","","","","html-slider-response","43","121209","0.0-39.0","gvyvsja3yc","32","NaN","<div style=""width:500px;"">
                            <p style=""font-size:50px; font-weight:bold;""
                            >happy</p>
                            <div style=""width:240px; margin: auto;"">
                                <img src=""images/map15_Oranges_scaleDef_orientDef_180.png"" style= ""width:200px""alt=""img"">
                            </div>
                        </div>","-136","","0","","","","images/map15_Oranges_scaleDef_orientDef_180.png","happy","1","15","15","Oranges","orientDef","scaleDef","180","",""
"","","","","","html-slider-response","44","122557","0.0-40.0","gvyvsja3yc","32","NaN","<div style=""width:500px;"">
                            <p style=""font-size:50px; font-weight:bold;""
                            >happy</p>
                            <div style=""width:240px; margin: auto;"">
                                <img src=""images/map10_gist_earth_scaleDef_orientMir_000.png"" style= ""width:200px""alt=""img"">
                            </div>
                        </div>","-136","","0","","","","images/map10_gist_earth_scaleDef_orientMir_000.png","happy","1","10","10","gist","scaleDef","earth","orientMir","",""
"","","","","","html-slider-response","45","123808","0.0-41.0","gvyvsja3yc","32","NaN","<div style=""width:500px;"">
                            <p style=""font-size:50px; font-weight:bold;""
                            >happy</p>
                            <div style=""width:240px; margin: auto;"">
                                <img src=""images/map07_bwr_scaleRev_orientDef_270.png"" style= ""width:200px""alt=""img"">
                            </div>
                        </div>","-136","","0","","","","images/map07_bwr_scaleRev_orientDef_270.png","happy","1","07","07","bwr","orientDef","scaleRev","270","",""
"","","","","","html-slider-response","46","124958","0.0-42.0","gvyvsja3yc","32","NaN","<div style=""width:500px;"">
                            <p style=""font-size:50px; font-weight:bold;""
                            >happy</p>
                            <div style=""width:240px; margin: auto;"">
                                <img src=""images/map26_BuPu_scaleDef_orientDef_000.png"" style= ""width:200px""alt=""img"">
                            </div>
                        </div>","-136","","0","","","","images/map26_BuPu_scaleDef_orientDef_000.png","happy","1","26","26","BuPu","orientDef","scaleDef","000","",""
"","","","","","html-slider-response","47","126208","0.0-43.0","gvyvsja3yc","32","NaN","<div style=""width:500px;"">
                            <p style=""font-size:50px; font-weight:bold;""
                            >happy</p>
                            <div style=""width:240px; margin: auto;"">
                                <img src=""images/map13_Blues_scaleDef_orientMir_180.png"" style= ""width:200px""alt=""img"">
                            </div>
                        </div>","-136","","0","","","","images/map13_Blues_scaleDef_orientMir_180.png","happy","1","13","13","Blues","orientMir","scaleDef","180","",""
"","","","","","html-slider-response","48","127375","0.0-44.0","gvyvsja3yc","32","NaN","<div style=""width:500px;"">
                            <p style=""font-size:50px; font-weight:bold;""
                            >happy</p>
                            <div style=""width:240px; margin: auto;"">
                                <img src=""images/map15_Greens_scaleDef_orientDef_000.png"" style= ""width:200px""alt=""img"">
                            </div>
                        </div>","-136","","0","","","","images/map15_Greens_scaleDef_orientDef_000.png","happy","1","15","15","Greens","orientDef","scaleDef","000","",""
"","","","","","html-slider-response","49","129108","0.0-45.0","gvyvsja3yc","32","NaN","<div style=""width:500px;"">
                            <p style=""font-size:50px; font-weight:bold;""
                            >happy</p>
                            <div style=""width:240px; margin: auto;"">
                                <img src=""images/map07_coolwarm_scaleDef_orientDef_000.png"" style= ""width:200px""alt=""img"">
                            </div>
                        </div>","65","","0","","","","images/map07_coolwarm_scaleDef_orientDef_000.png","happy","1","07","07","coolwarm","orientDef","scaleDef","000","",""
"","","","","","html-slider-response","50","130492","0.0-46.0","gvyvsja3yc","32","NaN","<div style=""width:500px;"">
                            <p style=""font-size:50px; font-weight:bold;""
                            >happy</p>
                            <div style=""width:240px; margin: auto;"">
                                <img src=""images/map26_YlGnBu_scaleRev_orientMir_270.png"" style= ""width:200px""alt=""img"">
                            </div>
                        </div>","82","","0","","","","images/map26_YlGnBu_scaleRev_orientMir_270.png","happy","1","26","26","YlGnBu","orientMir","scaleRev","270","",""
"","","","","","html-slider-response","51","132292","0.0-47.0","gvyvsja3yc","32","NaN","<div style=""width:500px;"">
                            <p style=""font-size:50px; font-weight:bold;""
                            >happy</p>
                            <div style=""width:240px; margin: auto;"">
                                <img src=""images/map02_PRGn_scaleDef_orientDef_000.png"" style= ""width:200px""alt=""img"">
                            </div>
                        </div>","-90","","0","","","","images/map02_PRGn_scaleDef_orientDef_000.png","happy","1","02","02","PRGn","orientDef","scaleDef","000","",""
"","","","","","html-slider-response","52","133792","0.0-48.0","gvyvsja3yc","32","NaN","<div style=""width:500px;"">
                            <p style=""font-size:50px; font-weight:bold;""
                            >happy</p>
                            <div style=""width:240px; margin: auto;"">
                                <img src=""images/map10_gist_earth_scaleRev_orientMir_090.png"" style= ""width:200px""alt=""img"">
                            </div>
                        </div>","-106","","0","","","","images/map10_gist_earth_scaleRev_orientMir_090.png","happy","1","10","10","gist","scaleRev","earth","orientMir","",""
"","","","","","html-slider-response","53","135008","0.0-49.0","gvyvsja3yc","32","NaN","<div style=""width:500px;"">
                            <p style=""font-size:50px; font-weight:bold;""
                            >happy</p>
                            <div style=""width:240px; margin: auto;"">
                                <img src=""images/map26_BuPu_scaleRev_orientDef_090.png"" style= ""width:200px""alt=""img"">
                            </div>
                        </div>","-106","","0","","","","images/map26_BuPu_scaleRev_orientDef_090.png","happy","1","26","26","BuPu","orientDef","scaleRev","090","",""
"","","","","","html-slider-response","54","136559","0.0-50.0","gvyvsja3yc","32","NaN","<div style=""width:500px;"">
                            <p style=""font-size:50px; font-weight:bold;""
                            >happy</p>
                            <div style=""width:240px; margin: auto;"">
                                <img src=""images/map13_Blues_scaleRev_orientMir_270.png"" style= ""width:200px""alt=""img"">
                            </div>
                        </div>","134","","0","","","","images/map13_Blues_scaleRev_orientMir_270.png","happy","1","13","13","Blues","orientMir","scaleRev","270","",""
"","","","","","html-slider-response","55","138641","0.0-51.0","gvyvsja3yc","32","NaN","<div style=""width:500px;"">
                            <p style=""font-size:50px; font-weight:bold;""
                            >happy</p>
                            <div style=""width:240px; margin: auto;"">
                                <img src=""images/map13_Greys_scaleDef_orientDef_180.png"" style= ""width:200px""alt=""img"">
                            </div>
                        </div>","-189","","0","","","","images/map13_Greys_scaleDef_orientDef_180.png","happy","1","13","13","Greys","orientDef","scaleDef","180","",""
"","","","","","html-slider-response","56","140341","0.0-52.0","gvyvsja3yc","32","NaN","<div style=""width:500px;"">
                            <p style=""font-size:50px; font-weight:bold;""
                            >happy</p>
                            <div style=""width:240px; margin: auto;"">
                                <img src=""images/map10_managua_scaleDef_orientDef_000.png"" style= ""width:200px""alt=""img"">
                            </div>
                        </div>","-121","","0","","","","images/map10_managua_scaleDef_orientDef_000.png","happy","1","10","10","managua","orientDef","scaleDef","000","",""
"","","","","","html-slider-response","57","141892","0.0-53.0","gvyvsja3yc","32","NaN","<div style=""width:500px;"">
                            <p style=""font-size:50px; font-weight:bold;""
                            >happy</p>
                            <div style=""width:240px; margin: auto;"">
                                <img src=""images/map15_YlOrBr_scaleDef_orientMir_180.png"" style= ""width:200px""alt=""img"">
                            </div>
                        </div>","-114","","0","","","","images/map15_YlOrBr_scaleDef_orientMir_180.png","happy","1","15","15","YlOrBr","orientMir","scaleDef","180","",""
"","","","","","html-button-response","58","144564","0.0-54.0","gvyvsja3yc","32","2169","<p>You are doing great!<br></br> You are halway done with the current block. When you are ready to continue, click the 'Continue' button.</p>","0","","","","","","","","","","","","","","","",""
"","","","","","html-slider-response","59","148225","0.0-55.0","gvyvsja3yc","32","NaN","<div style=""width:500px;"">
                            <p style=""font-size:50px; font-weight:bold;""
                            >happy</p>
                            <div style=""width:240px; margin: auto;"">
                                <img src=""images/map27_BuGn_scaleDef_orientDef_180.png"" style= ""width:200px""alt=""img"">
                            </div>
                        </div>","-138","","0","","","","images/map27_BuGn_scaleDef_orientDef_180.png","happy","1","27","27","BuGn","orientDef","scaleDef","180","",""
"","","","","","html-slider-response","60","149725","0.0-56.0","gvyvsja3yc","32","NaN","<div style=""width:500px;"">
                            <p style=""font-size:50px; font-weight:bold;""
                            >happy</p>
                            <div style=""width:240px; margin: auto;"">
                                <img src=""images/map23_YlOrRd_scaleDef_orientDef_000.png"" style= ""width:200px""alt=""img"">
                            </div>
                        </div>","-138","","0","","","","images/map23_YlOrRd_scaleDef_orientDef_000.png","happy","1","23","23","YlOrRd","orientDef","scaleDef","000","",""
"","","","","","html-slider-response","61","151125","0.0-57.0","gvyvsja3yc","32","NaN","<div style=""width:500px;"">
                            <p style=""font-size:50px; font-weight:bold;""
                            >happy</p>
                            <div style=""width:240px; margin: auto;"">
                                <img src=""images/map07_berlin_scaleRev_orientMir_270.png"" style= ""width:200px""alt=""img"">
                            </div>
                        </div>","-138","","0","","","","images/map07_berlin_scaleRev_orientMir_270.png","happy","1","07","07","berlin","orientMir","scaleRev","270","",""
"","","","","","html-slider-response","62","152757","0.0-58.0","gvyvsja3yc","32","NaN","<div style=""width:500px;"">
                            <p style=""font-size:50px; font-weight:bold;""
                            >happy</p>
                            <div style=""width:240px; margin: auto;"">
                                <img src=""images/map26_GnBu_scaleRev_orientDef_270.png"" style= ""width:200px""alt=""img"">
                            </div>
                        </div>","140","","0","","","","images/map26_GnBu_scaleRev_orientDef_270.png","happy","1","26","26","GnBu","orientDef","scaleRev","270","",""
"","","","","","html-slider-response","63","154142","0.0-59.0","gvyvsja3yc","32","NaN","<div style=""width:500px;"">
                            <p style=""font-size:50px; font-weight:bold;""
                            >happy</p>
                            <div style=""width:240px; margin: auto;"">
                                <img src=""images/map13_Purples_scaleRev_orientMir_090.png"" style= ""width:200px""alt=""img"">
                            </div>
                        </div>","111","","0","","","","images/map13_Purples_scaleRev_orientMir_090.png","happy","1","13","13","Purples","orientMir","scaleRev","090","",""
"","","","","","html-slider-response","64","155875","0.0-60.0","gvyvsja3yc","32","NaN","<div style=""width:500px;"">
                            <p style=""font-size:50px; font-weight:bold;""
                            >happy</p>
                            <div style=""width:240px; margin: auto;"">
                                <img src=""images/map07_seismic_scaleDef_orientMir_000.png"" style= ""width:200px""alt=""img"">
                            </div>
                        </div>","92","","0","","","","images/map07_seismic_scaleDef_orientMir_000.png","happy","1","07","07","seismic","orientMir","scaleDef","000","",""
"","","","","","html-slider-response","65","157408","0.0-61.0","gvyvsja3yc","32","NaN","<div style=""width:500px;"">
                            <p style=""font-size:50px; font-weight:bold;""
                            >happy</p>
                            <div style=""width:240px; margin: auto;"">
                                <img src=""images/map05_RdBu_scaleDef_orientDef_000.png"" style= ""width:200px""alt=""img"">
                            </div>
                        </div>","90","","0","","","","images/map05_RdBu_scaleDef_orientDef_000.png","happy","1","05","05","RdBu","orientDef","scaleDef","000","",""
"","","","","","html-slider-response","66","158875","0.0-62.0","gvyvsja3yc","32","NaN","<div style=""width:500px;"">
                            <p style=""font-size:50px; font-weight:bold;""
                            >happy</p>
                            <div style=""width:240px; margin: auto;"">
                                <img src=""images/map05_RdYlBu_scaleRev_orientDef_270.png"" style= ""width:200px""alt=""img"">
                            </div>
                        </div>","90","","0","","","","images/map05_RdYlBu_scaleRev_orientDef_270.png","happy","1","05","05","RdYlBu","orientDef","scaleRev","270","",""
"","","","","","html-slider-response","67","160741","0.0-63.0","gvyvsja3yc","32","NaN","<div style=""width:500px;"">
                            <p style=""font-size:50px; font-weight:bold;""
                            >happy</p>
                            <div style=""width:240px; margin: auto;"">
                                <img src=""images/map15_Reds_scaleDef_orientMir_000.png"" style= ""width:200px""alt=""img"">
                            </div>
                        </div>","-173","","0","","","","images/map15_Reds_scaleDef_orientMir_000.png","happy","1","15","15","Reds","orientMir","scaleDef","000","",""
"","","","","","html-slider-response","68","162541","0.0-64.0","gvyvsja3yc","32","NaN","<div style=""width:500px;"">
                            <p style=""font-size:50px; font-weight:bold;""
                            >happy</p>
                            <div style=""width:240px; margin: auto;"">
                                <img src=""images/map23_RdPu_scaleDef_orientMir_180.png"" style= ""width:200px""alt=""img"">
                            </div>
                        </div>","-142","","0","","","","images/map23_RdPu_scaleDef_orientMir_180.png","happy","1","23","23","RdPu","orientMir","scaleDef","180","",""
"","","","","","html-slider-response","69","163924","0.0-65.0","gvyvsja3yc","32","NaN","<div style=""width:500px;"">
                            <p style=""font-size:50px; font-weight:bold;""
                            >happy</p>
                            <div style=""width:240px; margin: auto;"">
                                <img src=""images/map02_PRGn_scaleRev_orientDef_090.png"" style= ""width:200px""alt=""img"">
                            </div>
                        </div>","-137","","0","","","","images/map02_PRGn_scaleRev_orientDef_090.png","happy","1","02","02","PRGn","orientDef","scaleRev","090","",""
"","","","","","html-slider-response","70","165108","0.0-66.0","gvyvsja3yc","32","NaN","<div style=""width:500px;"">
                            <p style=""font-size:50px; font-weight:bold;""
                            >happy</p>
                            <div style=""width:240px; margin: auto;"">
                                <img src=""images/map10_turbo_scaleDef_orientMir_180.png"" style= ""width:200px""alt=""img"">
                            </div>
                        </div>","-137","","0","","","","images/map10_turbo_scaleDef_orientMir_180.png","happy","1","10","10","turbo","orientMir","scaleDef","180","",""
"","","","","","html-slider-response","71","194740","0.0-67.0","gvyvsja3yc","32","NaN","<div style=""width:500px;"">
                            <p style=""font-size:50px; font-weight:bold;""
                            >happy</p>
                            <div style=""width:240px; margin: auto;"">
                                <img src=""images/map26_PuBu_scaleDef_orientMir_000.png"" style= ""width:200px""alt=""img"">
                            </div>
                        </div>","76","","0","","","","images/map26_PuBu_scaleDef_orientMir_000.png","happy","1","26","26","PuBu","orientMir","scaleDef","000","",""
"","","","","","html-slider-response","72","237923","0.0-68.0","gvyvsja3yc","32","NaN","<div style=""width:500px;"">
                            <p style=""font-size:50px; font-weight:bold;""
                            >happy</p>
                            <div style=""width:240px; margin: auto;"">
                                <img src=""images/map02_RdGy_scaleRev_orientMir_270.png"" style= ""width:200px""alt=""img"">
                            </div>
                        </div>","-137","","0","","","","images/map02_RdGy_scaleRev_orientMir_270.png","happy","1","02","02","RdGy","orientMir","scaleRev","270","",""
"","","","","","html-slider-response","73","239924","0.0-69.0","gvyvsja3yc","32","NaN","<div style=""width:500px;"">
                            <p style=""font-size:50px; font-weight:bold;""
                            >happy</p>
                            <div style=""width:240px; margin: auto;"">
                                <img src=""images/map12_inferno_scaleRev_orientMir_090.png"" style= ""width:200px""alt=""img"">
                            </div>
                        </div>","-137","","0","","","","images/map12_inferno_scaleRev_orientMir_090.png","happy","1","12","12","inferno","orientMir","scaleRev","090","",""
"","","","","","html-slider-response","74","242191","0.0-70.0","gvyvsja3yc","32","NaN","<div style=""width:500px;"">
                            <p style=""font-size:50px; font-weight:bold;""
                            >happy</p>
                            <div style=""width:240px; margin: auto;"">
                                <img src=""images/map12_viridis_scaleDef_orientDef_000.png"" style= ""width:200px""alt=""img"">
                            </div>
                        </div>","-112","","0","","","","images/map12_viridis_scaleDef_orientDef_000.png","happy","1","12","12","viridis","orientDef","scaleDef","000","",""
"","","","","","html-slider-response","75","244507","0.0-71.0","gvyvsja3yc","32","NaN","<div style=""width:500px;"">
                            <p style=""font-size:50px; font-weight:bold;""
                            >happy</p>
                            <div style=""width:240px; margin: auto;"">
                                <img src=""images/map07_bwr_scaleDef_orientDef_180.png"" style= ""width:200px""alt=""img"">
                            </div>
                        </div>","-59","","0","","","","images/map07_bwr_scaleDef_orientDef_180.png","happy","1","07","07","bwr","orientDef","scaleDef","180","",""
"","","","","","html-slider-response","76","247407","0.0-72.0","gvyvsja3yc","32","NaN","<div style=""width:500px;"">
                            <p style=""font-size:50px; font-weight:bold;""
                            >happy</p>
                            <div style=""width:240px; margin: auto;"">
                                <img src=""images/map23_OrRd_scaleDef_orientDef_180.png"" style= ""width:200px""alt=""img"">
                            </div>
                        </div>","-79","","0","","","","images/map23_OrRd_scaleDef_orientDef_180.png","happy","1","23","23","OrRd","orientDef","scaleDef","180","",""
"","","","","","html-slider-response","77","250656","0.0-73.0","gvyvsja3yc","32","NaN","<div style=""width:500px;"">
                            <p style=""font-size:50px; font-weight:bold;""
                            >happy</p>
                            <div style=""width:240px; margin: auto;"">
                                <img src=""images/map02_RdGy_scaleDef_orientMir_180.png"" style= ""width:200px""alt=""img"">
                            </div>
                        </div>","-120","","0","","","","images/map02_RdGy_scaleDef_orientMir_180.png","happy","1","02","02","RdGy","orientMir","scaleDef","180","",""
"","","","","","html-slider-response","78","253157","0.0-74.0","gvyvsja3yc","32","NaN","<div style=""width:500px;"">
                            <p style=""font-size:50px; font-weight:bold;""
                            >happy</p>
                            <div style=""width:240px; margin: auto;"">
                                <img src=""images/map27_YlGn_scaleRev_orientMir_090.png"" style= ""width:200px""alt=""img"">
                            </div>
                        </div>","-109","","0","","","","images/map27_YlGn_scaleRev_orientMir_090.png","happy","1","27","27","YlGn","orientMir","scaleRev","090","",""
"","","","","","html-slider-response","79","254991","0.0-75.0","gvyvsja3yc","32","NaN","<div style=""width:500px;"">
                            <p style=""font-size:50px; font-weight:bold;""
                            >happy</p>
                            <div style=""width:240px; margin: auto;"">
                                <img src=""images/map23_YlOrRd_scaleRev_orientDef_090.png"" style= ""width:200px""alt=""img"">
                            </div>
                        </div>","-108","","0","","","","images/map23_YlOrRd_scaleRev_orientDef_090.png","happy","1","23","23","YlOrRd","orientDef","scaleRev","090","",""
"","","","","","html-slider-response","80","264958","0.0-76.0","gvyvsja3yc","32","NaN","<div style=""width:500px;"">
                            <p style=""font-size:50px; font-weight:bold;""
                            >happy</p>
                            <div style=""width:240px; margin: auto;"">
                                <img src=""images/map13_cividis_scaleRev_orientDef_090.png"" style= ""width:200px""alt=""img"">
                            </div>
                        </div>","-138","","0","","","","images/map13_cividis_scaleRev_orientDef_090.png","happy","1","13","13","cividis","orientDef","scaleRev","090","",""
"","","","","","html-slider-response","81","270790","0.0-77.0","gvyvsja3yc","32","NaN","<div style=""width:500px;"">
                            <p style=""font-size:50px; font-weight:bold;""
                            >happy</p>
                            <div style=""width:240px; margin: auto;"">
                                <img src=""images/map12_viridis_scaleRev_orientDef_090.png"" style= ""width:200px""alt=""img"">
                            </div>
                        </div>","-130","","0","","","","images/map12_viridis_scaleRev_orientDef_090.png","happy","1","12","12","viridis","orientDef","scaleRev","090","",""
"","","","","","html-slider-response","82","276991","0.0-78.0","gvyvsja3yc","32","NaN","<div style=""width:500px;"">
                            <p style=""font-size:50px; font-weight:bold;""
                            >happy</p>
                            <div style=""width:240px; margin: auto;"">
                                <img src=""images/map26_GnBu_scaleDef_orientDef_180.png"" style= ""width:200px""alt=""img"">
                            </div>
                        </div>","96","","0","","","","images/map26_GnBu_scaleDef_orientDef_180.png","happy","1","26","26","GnBu","orientDef","scaleDef","180","",""
"","","","","","html-slider-response","83","296806","0.0-79.0","gvyvsja3yc","32","NaN","<div style=""width:500px;"">
                            <p style=""font-size:50px; font-weight:bold;""
                            >happy</p>
                            <div style=""width:240px; margin: auto;"">
                                <img src=""images/map23_RdPu_scaleRev_orientMir_270.png"" style= ""width:200px""alt=""img"">
                            </div>
                        </div>","48","","0","","","","images/map23_RdPu_scaleRev_orientMir_270.png","happy","1","23","23","RdPu","orientMir","scaleRev","270","",""
"","","","","","html-slider-response","84","298357","0.0-80.0","gvyvsja3yc","32","NaN","<div style=""width:500px;"">
                            <p style=""font-size:50px; font-weight:bold;""
                            >happy</p>
                            <div style=""width:240px; margin: auto;"">
                                <img src=""images/map12_plasma_scaleDef_orientDef_180.png"" style= ""width:200px""alt=""img"">
                            </div>
                        </div>","-46","","0","","","","images/map12_plasma_scaleDef_orientDef_180.png","happy","1","12","12","plasma","orientDef","scaleDef","180","",""
"","","","","","html-slider-response","85","302973","0.0-81.0","gvyvsja3yc","32","NaN","<div style=""width:500px;"">
                            <p style=""font-size:50px; font-weight:bold;""
                            >happy</p>
                            <div style=""width:240px; margin: auto;"">
                                <img src=""images/map15_YlOrBr_scaleRev_orientMir_270.png"" style= ""width:200px""alt=""img"">
                            </div>
                        </div>","-170","","0","","","","images/map15_YlOrBr_scaleRev_orientMir_270.png","happy","1","15","15","YlOrBr","orientMir","scaleRev","270","",""
"","","","","","html-slider-response","86","304407","0.0-82.0","gvyvsja3yc","32","NaN","<div style=""width:500px;"">
                            <p style=""font-size:50px; font-weight:bold;""
                            >happy</p>
                            <div style=""width:240px; margin: auto;"">
                                <img src=""images/map05_RdYlGn_scaleDef_orientMir_000.png"" style= ""width:200px""alt=""img"">
                            </div>
                        </div>","-161","","0","","","","images/map05_RdYlGn_scaleDef_orientMir_000.png","happy","1","05","05","RdYlGn","orientMir","scaleDef","000","",""
"","","","","","html-slider-response","87","306024","0.0-83.0","gvyvsja3yc","32","NaN","<div style=""width:500px;"">
                            <p style=""font-size:50px; font-weight:bold;""
                            >happy</p>
                            <div style=""width:240px; margin: auto;"">
                                <img src=""images/map27_PiYG_scaleRev_orientMir_270.png"" style= ""width:200px""alt=""img"">
                            </div>
                        </div>","-142","","0","","","","images/map27_PiYG_scaleRev_orientMir_270.png","happy","1","27","27","PiYG","orientMir","scaleRev","270","",""
"","","","","","html-slider-response","88","307641","0.0-84.0","gvyvsja3yc","32","NaN","<div style=""width:500px;"">
                            <p style=""font-size:50px; font-weight:bold;""
                            >happy</p>
                            <div style=""width:240px; margin: auto;"">
                                <img src=""images/map23_PuRd_scaleDef_orientMir_000.png"" style= ""width:200px""alt=""img"">
                            </div>
                        </div>","126","","0","","","","images/map23_PuRd_scaleDef_orientMir_000.png","happy","1","23","23","PuRd","orientMir","scaleDef","000","",""
"","","","","","html-slider-response","89","309540","0.0-85.0","gvyvsja3yc","32","NaN","<div style=""width:500px;"">
                            <p style=""font-size:50px; font-weight:bold;""
                            >happy</p>
                            <div style=""width:240px; margin: auto;"">
                                <img src=""images/map15_Reds_scaleRev_orientMir_090.png"" style= ""width:200px""alt=""img"">
                            </div>
                        </div>","-154","","0","","","","images/map15_Reds_scaleRev_orientMir_090.png","happy","1","15","15","Reds","orientMir","scaleRev","090","",""
"","","","","","html-slider-response","90","310757","0.0-86.0","gvyvsja3yc","32","NaN","<div style=""width:500px;"">
                            <p style=""font-size:50px; font-weight:bold;""
                            >happy</p>
                            <div style=""width:240px; margin: auto;"">
                                <img src=""images/map13_Greys_scaleRev_orientDef_270.png"" style= ""width:200px""alt=""img"">
                            </div>
                        </div>","-154","","0","","","","images/map13_Greys_scaleRev_orientDef_270.png","happy","1","13","13","Greys","orientDef","scaleRev","270","",""
"","","","","","html-slider-response","91","312707","0.0-87.0","gvyvsja3yc","32","NaN","<div style=""width:500px;"">
                            <p style=""font-size:50px; font-weight:bold;""
                            >happy</p>
                            <div style=""width:240px; margin: auto;"">
                                <img src=""images/map27_PiYG_scaleDef_orientMir_180.png"" style= ""width:200px""alt=""img"">
                            </div>
                        </div>","60","","0","","","","images/map27_PiYG_scaleDef_orientMir_180.png","happy","1","27","27","PiYG","orientMir","scaleDef","180","",""
"","","","","","html-slider-response","92","314507","0.0-88.0","gvyvsja3yc","32","NaN","<div style=""width:500px;"">
                            <p style=""font-size:50px; font-weight:bold;""
                            >happy</p>
                            <div style=""width:240px; margin: auto;"">
                                <img src=""images/map23_OrRd_scaleRev_orientDef_270.png"" style= ""width:200px""alt=""img"">
                            </div>
                        </div>","-156","","0","","","","images/map23_OrRd_scaleRev_orientDef_270.png","happy","1","23","23","OrRd","orientDef","scaleRev","270","",""
"","","","","","html-slider-response","93","315740","0.0-89.0","gvyvsja3yc","32","NaN","<div style=""width:500px;"">
                            <p style=""font-size:50px; font-weight:bold;""
                            >happy</p>
                            <div style=""width:240px; margin: auto;"">
                                <img src=""images/map23_PuRd_scaleRev_orientMir_090.png"" style= ""width:200px""alt=""img"">
                            </div>
                        </div>","-156","","0","","","","images/map23_PuRd_scaleRev_orientMir_090.png","happy","1","23","23","PuRd","orientMir","scaleRev","090","",""
"","","","","","html-slider-response","94","317006","0.0-90.0","gvyvsja3yc","32","NaN","<div style=""width:500px;"">
                            <p style=""font-size:50px; font-weight:bold;""
                            >happy</p>
                            <div style=""width:240px; margin: auto;"">
                                <img src=""images/map10_vanimo_scaleDef_orientDef_180.png"" style= ""width:200px""alt=""img"">
                            </div>
                        </div>","-156","","0","","","","images/map10_vanimo_scaleDef_orientDef_180.png","happy","1","10","10","vanimo","orientDef","scaleDef","180","",""
"","","","","","html-slider-response","95","318740","0.0-91.0","gvyvsja3yc","32","NaN","<div style=""width:500px;"">
                            <p style=""font-size:50px; font-weight:bold;""
                            >happy</p>
                            <div style=""width:240px; margin: auto;"">
                                <img src=""images/map26_YlGnBu_scaleDef_orientMir_180.png"" style= ""width:200px""alt=""img"">
                            </div>
                        </div>","170","","0","","","","images/map26_YlGnBu_scaleDef_orientMir_180.png","happy","1","26","26","YlGnBu","orientMir","scaleDef","180","",""
"","","","","","html-slider-response","96","320457","0.0-92.0","gvyvsja3yc","32","NaN","<div style=""width:500px;"">
                            <p style=""font-size:50px; font-weight:bold;""
                            >happy</p>
                            <div style=""width:240px; margin: auto;"">
                                <img src=""images/map12_magma_scaleDef_orientMir_180.png"" style= ""width:200px""alt=""img"">
                            </div>
                        </div>","-130","","0","","","","images/map12_magma_scaleDef_orientMir_180.png","happy","1","12","12","magma","orientMir","scaleDef","180","",""
"","","","","","html-slider-response","97","321973","0.0-93.0","gvyvsja3yc","32","NaN","<div style=""width:500px;"">
                            <p style=""font-size:50px; font-weight:bold;""
                            >happy</p>
                            <div style=""width:240px; margin: auto;"">
                                <img src=""images/map12_magma_scaleRev_orientMir_270.png"" style= ""width:200px""alt=""img"">
                            </div>
                        </div>","-130","","0","","","","images/map12_magma_scaleRev_orientMir_270.png","happy","1","12","12","magma","orientMir","scaleRev","270","",""
"","","","","","html-slider-response","98","323357","0.0-94.0","gvyvsja3yc","32","NaN","<div style=""width:500px;"">
                            <p style=""font-size:50px; font-weight:bold;""
                            >happy</p>
                            <div style=""width:240px; margin: auto;"">
                                <img src=""images/map02_BrBG_scaleRev_orientDef_270.png"" style= ""width:200px""alt=""img"">
                            </div>
                        </div>","-130","","0","","","","images/map02_BrBG_scaleRev_orientDef_270.png","happy","1","02","02","BrBG","orientDef","scaleRev","270","",""
"","","","","","html-button-response","99","325429","0.0-95.0","gvyvsja3yc","32","1569","<p>Great Job! You've finished block 1.<br></br> You have 4 block(s) left to go.<br></br></p>","0","","","","","","","","","","","","","","","",""
"","","","","","html-button-response","100","326529","0.0-96.0","gvyvsja3yc","32","1099","<p>In this block of trials, you will be asked to rate how much you associate each map with:</p > <p style = 'font-size:150%; font-weight: bold'>angry</p><br></br>","0","","","","","","","","","","","","","","","",""
"","","","","","html-slider-response","101","329573","0.0-97.0","gvyvsja3yc","32","NaN","<div style=""width:500px;"">
                            <p style=""font-size:50px; font-weight:bold;""
                            >angry</p>
                            <div style=""width:240px; margin: auto;"">
                                <img src=""images/map23_RdPu_scaleDef_orientMir_180.png"" style= ""width:200px""alt=""img"">
                            </div>
                        </div>","-147","","0","","","","images/map23_RdPu_scaleDef_orientMir_180.png","angry","1","23","23","RdPu","orientMir","scaleDef","180","",""
"","","","","","html-slider-response","102","330874","0.0-98.0","gvyvsja3yc","32","NaN","<div style=""width:500px;"">
                            <p style=""font-size:50px; font-weight:bold;""
                            >angry</p>
                            <div style=""width:240px; margin: auto;"">
                                <img src=""images/map26_YlGnBu_scaleRev_orientMir_270.png"" style= ""width:200px""alt=""img"">
                            </div>
                        </div>","-147","","0","","","","images/map26_YlGnBu_scaleRev_orientMir_270.png","angry","1","26","26","YlGnBu","orientMir","scaleRev","270","",""
"","","","","","html-slider-response","103","332623","0.0-99.0","gvyvsja3yc","32","NaN","<div style=""width:500px;"">
                            <p style=""font-size:50px; font-weight:bold;""
                            >angry</p>
                            <div style=""width:240px; margin: auto;"">
                                <img src=""images/map05_RdYlGn_scaleRev_orientMir_090.png"" style= ""width:200px""alt=""img"">
                            </div>
                        </div>","69","","0","","","","images/map05_RdYlGn_scaleRev_orientMir_090.png","angry","1","05","05","RdYlGn","orientMir","scaleRev","090","",""
"","","","","","html-slider-response","104","334757","0.0-100.0","gvyvsja3yc","32","NaN","<div style=""width:500px;"">
                            <p style=""font-size:50px; font-weight:bold;""
                            >angry</p>
                            <div style=""width:240px; margin: auto;"">
                                <img src=""images/map13_Greys_scaleRev_orientDef_270.png"" style= ""width:200px""alt=""img"">
                            </div>
                        </div>","190","","0","","","","images/map13_Greys_scaleRev_orientDef_270.png","angry","1","13","13","Greys","orientDef","scaleRev","270","",""
"","","","","","html-slider-response","105","336557","0.0-101.0","gvyvsja3yc","32","NaN","<div style=""width:500px;"">
                            <p style=""font-size:50px; font-weight:bold;""
                            >angry</p>
                            <div style=""width:240px; margin: auto;"">
                                <img src=""images/map05_RdBu_scaleRev_orientDef_090.png"" style= ""width:200px""alt=""img"">
                            </div>
                        </div>","-99","","0","","","","images/map05_RdBu_scaleRev_orientDef_090.png","angry","1","05","05","RdBu","orientDef","scaleRev","090","",""
"","","","","","html-slider-response","106","338724","0.0-102.0","gvyvsja3yc","32","NaN","<div style=""width:500px;"">
                            <p style=""font-size:50px; font-weight:bold;""
                            >angry</p>
                            <div style=""width:240px; margin: auto;"">
                                <img src=""images/map13_Greys_scaleDef_orientDef_180.png"" style= ""width:200px""alt=""img"">
                            </div>
                        </div>","183","","0","","","","images/map13_Greys_scaleDef_orientDef_180.png","angry","1","13","13","Greys","orientDef","scaleDef","180","",""
"","","","","","html-slider-response","107","345123","0.0-103.0","gvyvsja3yc","32","NaN","<div style=""width:500px;"">
                            <p style=""font-size:50px; font-weight:bold;""
                            >angry</p>
                            <div style=""width:240px; margin: auto;"">
                                <img src=""images/map27_BuGn_scaleDef_orientDef_180.png"" style= ""width:200px""alt=""img"">
                            </div>
                        </div>","-34","","0","","","","images/map27_BuGn_scaleDef_orientDef_180.png","angry","1","27","27","BuGn","orientDef","scaleDef","180","",""
"","","","","","html-slider-response","108","346956","0.0-104.0","gvyvsja3yc","32","NaN","<div style=""width:500px;"">
                            <p style=""font-size:50px; font-weight:bold;""
                            >angry</p>
                            <div style=""width:240px; margin: auto;"">
                                <img src=""images/map10_managua_scaleRev_orientDef_090.png"" style= ""width:200px""alt=""img"">
                            </div>
                        </div>","-49","","0","","","","images/map10_managua_scaleRev_orientDef_090.png","angry","1","10","10","managua","orientDef","scaleRev","090","",""
"","","","","","html-slider-response","109","348591","0.0-105.0","gvyvsja3yc","32","NaN","<div style=""width:500px;"">
                            <p style=""font-size:50px; font-weight:bold;""
                            >angry</p>
                            <div style=""width:240px; margin: auto;"">
                                <img src=""images/map10_gist_earth_scaleRev_orientMir_090.png"" style= ""width:200px""alt=""img"">
                            </div>
                        </div>","-51","","0","","","","images/map10_gist_earth_scaleRev_orientMir_090.png","angry","1","10","10","gist","scaleRev","earth","orientMir","",""
"","","","","","html-slider-response","110","349890","0.0-106.0","gvyvsja3yc","32","NaN","<div style=""width:500px;"">
                            <p style=""font-size:50px; font-weight:bold;""
                            >angry</p>
                            <div style=""width:240px; margin: auto;"">
                                <img src=""images/map27_YlGn_scaleDef_orientMir_000.png"" style= ""width:200px""alt=""img"">
                            </div>
                        </div>","-53","","0","","","","images/map27_YlGn_scaleDef_orientMir_000.png","angry","1","27","27","YlGn","orientMir","scaleDef","000","",""
"","","","","","html-slider-response","111","352890","0.0-107.0","gvyvsja3yc","32","NaN","<div style=""width:500px;"">
                            <p style=""font-size:50px; font-weight:bold;""
                            >angry</p>
                            <div style=""width:240px; margin: auto;"">
                                <img src=""images/map12_magma_scaleDef_orientMir_180.png"" style= ""width:200px""alt=""img"">
                            </div>
                        </div>","-26","","0","","","","images/map12_magma_scaleDef_orientMir_180.png","angry","1","12","12","magma","orientMir","scaleDef","180","",""
"","","","","","html-slider-response","112","354622","0.0-108.0","gvyvsja3yc","32","NaN","<div style=""width:500px;"">
                            <p style=""font-size:50px; font-weight:bold;""
                            >angry</p>
                            <div style=""width:240px; margin: auto;"">
                                <img src=""images/map02_RdGy_scaleDef_orientMir_180.png"" style= ""width:200px""alt=""img"">
                            </div>
                        </div>","179","","0","","","","images/map02_RdGy_scaleDef_orientMir_180.png","angry","1","02","02","RdGy","orientMir","scaleDef","180","",""
"","","","","","html-slider-response","113","356440","0.0-109.0","gvyvsja3yc","32","NaN","<div style=""width:500px;"">
                            <p style=""font-size:50px; font-weight:bold;""
                            >angry</p>
                            <div style=""width:240px; margin: auto;"">
                                <img src=""images/map05_Spectral_scaleDef_orientMir_180.png"" style= ""width:200px""alt=""img"">
                            </div>
                        </div>","82","","0","","","","images/map05_Spectral_scaleDef_orientMir_180.png","angry","1","05","05","Spectral","orientMir","scaleDef","180","",""
"","","","","","html-slider-response","114","359807","0.0-110.0","gvyvsja3yc","32","NaN","<div style=""width:500px;"">
                            <p style=""font-size:50px; font-weight:bold;""
                            >angry</p>
                            <div style=""width:240px; margin: auto;"">
                                <img src=""images/map13_Blues_scaleDef_orientMir_180.png"" style= ""width:200px""alt=""img"">
                            </div>
                        </div>","-139","","0","","","","images/map13_Blues_scaleDef_orientMir_180.png","angry","1","13","13","Blues","orientMir","scaleDef","180","",""
"","","","","","html-slider-response","115","361740","0.0-111.0","gvyvsja3yc","32","NaN","<div style=""width:500px;"">
                            <p style=""font-size:50px; font-weight:bold;""
                            >angry</p>
                            <div style=""width:240px; margin: auto;"">
                                <img src=""images/map12_viridis_scaleRev_orientDef_090.png"" style= ""width:200px""alt=""img"">
                            </div>
                        </div>","19","","0","","","","images/map12_viridis_scaleRev_orientDef_090.png","angry","1","12","12","viridis","orientDef","scaleRev","090","",""
"","","","","","html-slider-response","116","363423","0.0-112.0","gvyvsja3yc","32","NaN","<div style=""width:500px;"">
                            <p style=""font-size:50px; font-weight:bold;""
                            >angry</p>
                            <div style=""width:240px; margin: auto;"">
                                <img src=""images/map05_RdYlBu_scaleRev_orientDef_270.png"" style= ""width:200px""alt=""img"">
                            </div>
                        </div>","19","","0","","","","images/map05_RdYlBu_scaleRev_orientDef_270.png","angry","1","05","05","RdYlBu","orientDef","scaleRev","270","",""
"","","","","","html-slider-response","117","365273","0.0-113.0","gvyvsja3yc","32","NaN","<div style=""width:500px;"">
                            <p style=""font-size:50px; font-weight:bold;""
                            >angry</p>
                            <div style=""width:240px; margin: auto;"">
                                <img src=""images/map15_YlOrBr_scaleRev_orientMir_270.png"" style= ""width:200px""alt=""img"">
                            </div>
                        </div>","140","","0","","","","images/map15_YlOrBr_scaleRev_orientMir_270.png","angry","1","15","15","YlOrBr","orientMir","scaleRev","270","",""
"","","","","","html-slider-response","118","366923","0.0-114.0","gvyvsja3yc","32","NaN","<div style=""width:500px;"">
                            <p style=""font-size:50px; font-weight:bold;""
                            >angry</p>
                            <div style=""width:240px; margin: auto;"">
                                <img src=""images/map07_seismic_scaleDef_orientMir_000.png"" style= ""width:200px""alt=""img"">
                            </div>
                        </div>","118","","0","","","","images/map07_seismic_scaleDef_orientMir_000.png","angry","1","07","07","seismic","orientMir","scaleDef","000","",""
"","","","","","html-slider-response","119","369724","0.0-115.0","gvyvsja3yc","32","NaN","<div style=""width:500px;"">
                            <p style=""font-size:50px; font-weight:bold;""
                            >angry</p>
                            <div style=""width:240px; margin: auto;"">
                                <img src=""images/map15_Oranges_scaleRev_orientDef_270.png"" style= ""width:200px""alt=""img"">
                            </div>
                        </div>","154","","0","","","","images/map15_Oranges_scaleRev_orientDef_270.png","angry","1","15","15","Oranges","orientDef","scaleRev","270","",""
"","","","","","html-slider-response","120","371506","0.0-116.0","gvyvsja3yc","32","NaN","<div style=""width:500px;"">
                            <p style=""font-size:50px; font-weight:bold;""
                            >angry</p>
                            <div style=""width:240px; margin: auto;"">
                                <img src=""images/map27_BuGn_scaleRev_orientDef_270.png"" style= ""width:200px""alt=""img"">
                            </div>
                        </div>","-103","","0","","","","images/map27_BuGn_scaleRev_orientDef_270.png","angry","1","27","27","BuGn","orientDef","scaleRev","270","",""
"","","","","","html-slider-response","121","373223","0.0-117.0","gvyvsja3yc","32","NaN","<div style=""width:500px;"">
                            <p style=""font-size:50px; font-weight:bold;""
                            >angry</p>
                            <div style=""width:240px; margin: auto;"">
                                <img src=""images/map10_turbo_scaleRev_orientMir_270.png"" style= ""width:200px""alt=""img"">
                            </div>
                        </div>","-103","","0","","","","images/map10_turbo_scaleRev_orientMir_270.png","angry","1","10","10","turbo","orientMir","scaleRev","270","",""
"","","","","","html-slider-response","122","376456","0.0-118.0","gvyvsja3yc","32","NaN","<div style=""width:500px;"">
                            <p style=""font-size:50px; font-weight:bold;""
                            >angry</p>
                            <div style=""width:240px; margin: auto;"">
                                <img src=""images/map10_managua_scaleDef_orientDef_000.png"" style= ""width:200px""alt=""img"">
                            </div>
                        </div>","71","","0","","","","images/map10_managua_scaleDef_orientDef_000.png","angry","1","10","10","managua","orientDef","scaleDef","000","",""
"","","","","","html-slider-response","123","378289","0.0-119.0","gvyvsja3yc","32","NaN","<div style=""width:500px;"">
                            <p style=""font-size:50px; font-weight:bold;""
                            >angry</p>
                            <div style=""width:240px; margin: auto;"">
                                <img src=""images/map10_vanimo_scaleDef_orientDef_180.png"" style= ""width:200px""alt=""img"">
                            </div>
                        </div>","113","","0","","","","images/map10_vanimo_scaleDef_orientDef_180.png","angry","1","10","10","vanimo","orientDef","scaleDef","180","",""
"","","","","","html-slider-response","124","382505","0.0-120.0","gvyvsja3yc","32","NaN","<div style=""width:500px;"">
                            <p style=""font-size:50px; font-weight:bold;""
                            >angry</p>
                            <div style=""width:240px; margin: auto;"">
                                <img src=""images/map23_YlOrRd_scaleRev_orientDef_090.png"" style= ""width:200px""alt=""img"">
                            </div>
                        </div>","154","","0","","","","images/map23_YlOrRd_scaleRev_orientDef_090.png","angry","1","23","23","YlOrRd","orientDef","scaleRev","090","",""
"","","","","","html-slider-response","125","384306","0.0-121.0","gvyvsja3yc","32","NaN","<div style=""width:500px;"">
                            <p style=""font-size:50px; font-weight:bold;""
                            >angry</p>
                            <div style=""width:240px; margin: auto;"">
                                <img src=""images/map23_PuRd_scaleDef_orientMir_000.png"" style= ""width:200px""alt=""img"">
                            </div>
                        </div>","-146","","0","","","","images/map23_PuRd_scaleDef_orientMir_000.png","angry","1","23","23","PuRd","orientMir","scaleDef","000","",""
"","","","","","html-slider-response","126","389889","0.0-122.0","gvyvsja3yc","32","NaN","<div style=""width:500px;"">
                            <p style=""font-size:50px; font-weight:bold;""
                            >angry</p>
                            <div style=""width:240px; margin: auto;"">
                                <img src=""images/map13_Purples_scaleDef_orientMir_000.png"" style= ""width:200px""alt=""img"">
                            </div>
                        </div>","43","","0","","","","images/map13_Purples_scaleDef_orientMir_000.png","angry","1","13","13","Purples","orientMir","scaleDef","000","",""
"","","","","","html-slider-response","127","394090","0.0-123.0","gvyvsja3yc","32","NaN","<div style=""width:500px;"">
                            <p style=""font-size:50px; font-weight:bold;""
                            >angry</p>
                            <div style=""width:240px; margin: auto;"">
                                <img src=""images/map26_PuBu_scaleDef_orientMir_000.png"" style= ""width:200px""alt=""img"">
                            </div>
                        </div>","78","","0","","","","images/map26_PuBu_scaleDef_orientMir_000.png","angry","1","26","26","PuBu","orientMir","scaleDef","000","",""
"","","","","","html-slider-response","128","395689","0.0-124.0","gvyvsja3yc","32","NaN","<div style=""width:500px;"">
                            <p style=""font-size:50px; font-weight:bold;""
                            >angry</p>
                            <div style=""width:240px; margin: auto;"">
                                <img src=""images/map27_PiYG_scaleDef_orientMir_180.png"" style= ""width:200px""alt=""img"">
                            </div>
                        </div>","-90","","0","","","","images/map27_PiYG_scaleDef_orientMir_180.png","angry","1","27","27","PiYG","orientMir","scaleDef","180","",""
"","","","","","html-slider-response","129","398506","0.0-125.0","gvyvsja3yc","32","NaN","<div style=""width:500px;"">
                            <p style=""font-size:50px; font-weight:bold;""
                            >angry</p>
                            <div style=""width:240px; margin: auto;"">
                                <img src=""images/map10_vanimo_scaleRev_orientDef_270.png"" style= ""width:200px""alt=""img"">
                            </div>
                        </div>","128","","0","","","","images/map10_vanimo_scaleRev_orientDef_270.png","angry","1","10","10","vanimo","orientDef","scaleRev","270","",""
"","","","","","html-slider-response","130","401490","0.0-126.0","gvyvsja3yc","32","NaN","<div style=""width:500px;"">
                            <p style=""font-size:50px; font-weight:bold;""
                            >angry</p>
                            <div style=""width:240px; margin: auto;"">
                                <img src=""images/map12_plasma_scaleDef_orientDef_180.png"" style= ""width:200px""alt=""img"">
                            </div>
                        </div>","89","","0","","","","images/map12_plasma_scaleDef_orientDef_180.png","angry","1","12","12","plasma","orientDef","scaleDef","180","",""
"","","","","","html-slider-response","131","404356","0.0-127.0","gvyvsja3yc","32","NaN","<div style=""width:500px;"">
                            <p style=""font-size:50px; font-weight:bold;""
                            >angry</p>
                            <div style=""width:240px; margin: auto;"">
                                <img src=""images/map23_YlOrRd_scaleDef_orientDef_000.png"" style= ""width:200px""alt=""img"">
                            </div>
                        </div>","178","","0","","","","images/map23_YlOrRd_scaleDef_orientDef_000.png","angry","1","23","23","YlOrRd","orientDef","scaleDef","000","",""
"","","","","","html-slider-response","132","406256","0.0-128.0","gvyvsja3yc","32","NaN","<div style=""width:500px;"">
                            <p style=""font-size:50px; font-weight:bold;""
                            >angry</p>
                            <div style=""width:240px; margin: auto;"">
                                <img src=""images/map23_PuRd_scaleRev_orientMir_090.png"" style= ""width:200px""alt=""img"">
                            </div>
                        </div>","-94","","0","","","","images/map23_PuRd_scaleRev_orientMir_090.png","angry","1","23","23","PuRd","orientMir","scaleRev","090","",""
"","","","","","html-slider-response","133","408972","0.0-129.0","gvyvsja3yc","32","NaN","<div style=""width:500px;"">
                            <p style=""font-size:50px; font-weight:bold;""
                            >angry</p>
                            <div style=""width:240px; margin: auto;"">
                                <img src=""images/map26_GnBu_scaleDef_orientDef_180.png"" style= ""width:200px""alt=""img"">
                            </div>
                        </div>","-123","","0","","","","images/map26_GnBu_scaleDef_orientDef_180.png","angry","1","26","26","GnBu","orientDef","scaleDef","180","",""
"","","","","","html-slider-response","134","410773","0.0-130.0","gvyvsja3yc","32","NaN","<div style=""width:500px;"">
                            <p style=""font-size:50px; font-weight:bold;""
                            >angry</p>
                            <div style=""width:240px; margin: auto;"">
                                <img src=""images/map05_RdYlGn_scaleDef_orientMir_000.png"" style= ""width:200px""alt=""img"">
                            </div>
                        </div>","61","","0","","","","images/map05_RdYlGn_scaleDef_orientMir_000.png","angry","1","05","05","RdYlGn","orientMir","scaleDef","000","",""
"","","","","","html-slider-response","135","412322","0.0-131.0","gvyvsja3yc","32","NaN","<div style=""width:500px;"">
                            <p style=""font-size:50px; font-weight:bold;""
                            >angry</p>
                            <div style=""width:240px; margin: auto;"">
                                <img src=""images/map12_inferno_scaleDef_orientMir_000.png"" style= ""width:200px""alt=""img"">
                            </div>
                        </div>","-118","","0","","","","images/map12_inferno_scaleDef_orientMir_000.png","angry","1","12","12","inferno","orientMir","scaleDef","000","",""
"","","","","","html-slider-response","136","415090","0.0-132.0","gvyvsja3yc","32","NaN","<div style=""width:500px;"">
                            <p style=""font-size:50px; font-weight:bold;""
                            >angry</p>
                            <div style=""width:240px; margin: auto;"">
                                <img src=""images/map07_berlin_scaleDef_orientMir_180.png"" style= ""width:200px""alt=""img"">
                            </div>
                        </div>","151","","0","","","","images/map07_berlin_scaleDef_orientMir_180.png","angry","1","07","07","berlin","orientMir","scaleDef","180","",""
"","","","","","html-slider-response","137","417789","0.0-133.0","gvyvsja3yc","32","NaN","<div style=""width:500px;"">
                            <p style=""font-size:50px; font-weight:bold;""
                            >angry</p>
                            <div style=""width:240px; margin: auto;"">
                                <img src=""images/map26_BuPu_scaleDef_orientDef_000.png"" style= ""width:200px""alt=""img"">
                            </div>
                        </div>","-129","","0","","","","images/map26_BuPu_scaleDef_orientDef_000.png","angry","1","26","26","BuPu","orientDef","scaleDef","000","",""
"","","","","","html-slider-response","138","419655","0.0-134.0","gvyvsja3yc","32","NaN","<div style=""width:500px;"">
                            <p style=""font-size:50px; font-weight:bold;""
                            >angry</p>
                            <div style=""width:240px; margin: auto;"">
                                <img src=""images/map23_OrRd_scaleDef_orientDef_180.png"" style= ""width:200px""alt=""img"">
                            </div>
                        </div>","179","","0","","","","images/map23_OrRd_scaleDef_orientDef_180.png","angry","1","23","23","OrRd","orientDef","scaleDef","180","",""
"","","","","","html-slider-response","139","420939","0.0-135.0","gvyvsja3yc","32","NaN","<div style=""width:500px;"">
                            <p style=""font-size:50px; font-weight:bold;""
                            >angry</p>
                            <div style=""width:240px; margin: auto;"">
                                <img src=""images/map12_plasma_scaleRev_orientDef_270.png"" style= ""width:200px""alt=""img"">
                            </div>
                        </div>","159","","0","","","","images/map12_plasma_scaleRev_orientDef_270.png","angry","1","12","12","plasma","orientDef","scaleRev","270","",""
"","","","","","html-slider-response","140","422389","0.0-136.0","gvyvsja3yc","32","NaN","<div style=""width:500px;"">
                            <p style=""font-size:50px; font-weight:bold;""
                            >angry</p>
                            <div style=""width:240px; margin: auto;"">
                                <img src=""images/map10_turbo_scaleDef_orientMir_180.png"" style= ""width:200px""alt=""img"">
                            </div>
                        </div>","90","","0","","","","images/map10_turbo_scaleDef_orientMir_180.png","angry","1","10","10","turbo","orientMir","scaleDef","180","",""
"","","","","","html-button-response","141","423795","0.0-137.0","gvyvsja3yc","32","902","<p>You are doing great!<br></br> You are halway done with the current block. When you are ready to continue, click the 'Continue' button.</p>","0","","","","","","","","","","","","","","","",""
"","","","","","html-slider-response","142","425540","0.0-138.0","gvyvsja3yc","32","NaN","<div style=""width:500px;"">
                            <p style=""font-size:50px; font-weight:bold;""
                            >angry</p>
                            <div style=""width:240px; margin: auto;"">
                                <img src=""images/map27_PuBuGn_scaleDef_orientDef_000.png"" style= ""width:200px""alt=""img"">
                            </div>
                        </div>","-125","","0","","","","images/map27_PuBuGn_scaleDef_orientDef_000.png","angry","1","27","27","PuBuGn","orientDef","scaleDef","000","",""
"","","","","","html-slider-response","143","427106","0.0-139.0","gvyvsja3yc","32","NaN","<div style=""width:500px;"">
                            <p style=""font-size:50px; font-weight:bold;""
                            >angry</p>
                            <div style=""width:240px; margin: auto;"">
                                <img src=""images/map02_BrBG_scaleDef_orientDef_180.png"" style= ""width:200px""alt=""img"">
                            </div>
                        </div>","-118","","0","","","","images/map02_BrBG_scaleDef_orientDef_180.png","angry","1","02","02","BrBG","orientDef","scaleDef","180","",""
"","","","","","html-slider-response","144","429073","0.0-140.0","gvyvsja3yc","32","NaN","<div style=""width:500px;"">
                            <p style=""font-size:50px; font-weight:bold;""
                            >angry</p>
                            <div style=""width:240px; margin: auto;"">
                                <img src=""images/map12_inferno_scaleRev_orientMir_090.png"" style= ""width:200px""alt=""img"">
                            </div>
                        </div>","139","","0","","","","images/map12_inferno_scaleRev_orientMir_090.png","angry","1","12","12","inferno","orientMir","scaleRev","090","",""
"","","","","","html-slider-response","145","430739","0.0-141.0","gvyvsja3yc","32","NaN","<div style=""width:500px;"">
                            <p style=""font-size:50px; font-weight:bold;""
                            >angry</p>
                            <div style=""width:240px; margin: auto;"">
                                <img src=""images/map15_Greens_scaleRev_orientDef_090.png"" style= ""width:200px""alt=""img"">
                            </div>
                        </div>","-57","","0","","","","images/map15_Greens_scaleRev_orientDef_090.png","angry","1","15","15","Greens","orientDef","scaleRev","090","",""
"","","","","","html-slider-response","146","432440","0.0-142.0","gvyvsja3yc","32","NaN","<div style=""width:500px;"">
                            <p style=""font-size:50px; font-weight:bold;""
                            >angry</p>
                            <div style=""width:240px; margin: auto;"">
                                <img src=""images/map02_PRGn_scaleRev_orientDef_090.png"" style= ""width:200px""alt=""img"">
                            </div>
                        </div>","10","","0","","","","images/map02_PRGn_scaleRev_orientDef_090.png","angry","1","02","02","PRGn","orientDef","scaleRev","090","",""
"","","","","","html-slider-response","147","433939","0.0-143.0","gvyvsja3yc","32","NaN","<div style=""width:500px;"">
                            <p style=""font-size:50px; font-weight:bold;""
                            >angry</p>
                            <div style=""width:240px; margin: auto;"">
                                <img src=""images/map15_Oranges_scaleDef_orientDef_180.png"" style= ""width:200px""alt=""img"">
                            </div>
                        </div>","90","","0","","","","images/map15_Oranges_scaleDef_orientDef_180.png","angry","1","15","15","Oranges","orientDef","scaleDef","180","",""
"","","","","","html-slider-response","148","435356","0.0-144.0","gvyvsja3yc","32","NaN","<div style=""width:500px;"">
                            <p style=""font-size:50px; font-weight:bold;""
                            >angry</p>
                            <div style=""width:240px; margin: auto;"">
                                <img src=""images/map07_berlin_scaleRev_orientMir_270.png"" style= ""width:200px""alt=""img"">
                            </div>
                        </div>","142","","0","","","","images/map07_berlin_scaleRev_orientMir_270.png","angry","1","07","07","berlin","orientMir","scaleRev","270","",""
"","","","","","html-slider-response","149","436772","0.0-145.0","gvyvsja3yc","32","NaN","<div style=""width:500px;"">
                            <p style=""font-size:50px; font-weight:bold;""
                            >angry</p>
                            <div style=""width:240px; margin: auto;"">
                                <img src=""images/map23_OrRd_scaleRev_orientDef_270.png"" style= ""width:200px""alt=""img"">
                            </div>
                        </div>","178","","0","","","","images/map23_OrRd_scaleRev_orientDef_270.png","angry","1","23","23","OrRd","orientDef","scaleRev","270","",""
"","","","","","html-slider-response","150","438473","0.0-146.0","gvyvsja3yc","32","NaN","<div style=""width:500px;"">
                            <p style=""font-size:50px; font-weight:bold;""
                            >angry</p>
                            <div style=""width:240px; margin: auto;"">
                                <img src=""images/map12_viridis_scaleDef_orientDef_000.png"" style= ""width:200px""alt=""img"">
                            </div>
                        </div>","-32","","0","","","","images/map12_viridis_scaleDef_orientDef_000.png","angry","1","12","12","viridis","orientDef","scaleDef","000","",""
"","","","","","html-slider-response","151","439706","0.0-147.0","gvyvsja3yc","32","NaN","<div style=""width:500px;"">
                            <p style=""font-size:50px; font-weight:bold;""
                            >angry</p>
                            <div style=""width:240px; margin: auto;"">
                                <img src=""images/map27_YlGn_scaleRev_orientMir_090.png"" style= ""width:200px""alt=""img"">
                            </div>
                        </div>","-24","","0","","","","images/map27_YlGn_scaleRev_orientMir_090.png","angry","1","27","27","YlGn","orientMir","scaleRev","090","",""
"","","","","","html-slider-response","152","441340","0.0-148.0","gvyvsja3yc","32","NaN","<div style=""width:500px;"">
                            <p style=""font-size:50px; font-weight:bold;""
                            >angry</p>
                            <div style=""width:240px; margin: auto;"">
                                <img src=""images/map15_YlOrBr_scaleDef_orientMir_180.png"" style= ""width:200px""alt=""img"">
                            </div>
                        </div>","78","","0","","","","images/map15_YlOrBr_scaleDef_orientMir_180.png","angry","1","15","15","YlOrBr","orientMir","scaleDef","180","",""
"","","","","","html-slider-response","153","442856","0.0-149.0","gvyvsja3yc","32","NaN","<div style=""width:500px;"">
                            <p style=""font-size:50px; font-weight:bold;""
                            >angry</p>
                            <div style=""width:240px; margin: auto;"">
                                <img src=""images/map05_Spectral_scaleRev_orientMir_270.png"" style= ""width:200px""alt=""img"">
                            </div>
                        </div>","62","","0","","","","images/map05_Spectral_scaleRev_orientMir_270.png","angry","1","05","05","Spectral","orientMir","scaleRev","270","",""
"","","","","","html-slider-response","154","444288","0.0-150.0","gvyvsja3yc","32","NaN","<div style=""width:500px;"">
                            <p style=""font-size:50px; font-weight:bold;""
                            >angry</p>
                            <div style=""width:240px; margin: auto;"">
                                <img src=""images/map27_PiYG_scaleRev_orientMir_270.png"" style= ""width:200px""alt=""img"">
                            </div>
                        </div>","-48","","0","","","","images/map27_PiYG_scaleRev_orientMir_270.png","angry","1","27","27","PiYG","orientMir","scaleRev","270","",""
"","","","","","html-slider-response","155","445838","0.0-151.0","gvyvsja3yc","32","NaN","<div style=""width:500px;"">
                            <p style=""font-size:50px; font-weight:bold;""
                            >angry</p>
                            <div style=""width:240px; margin: auto;"">
                                <img src=""images/map26_YlGnBu_scaleDef_orientMir_180.png"" style= ""width:200px""alt=""img"">
                            </div>
                        </div>","-84","","0","","","","images/map26_YlGnBu_scaleDef_orientMir_180.png","angry","1","26","26","YlGnBu","orientMir","scaleDef","180","",""
"","","","","","html-slider-response","156","447006","0.0-152.0","gvyvsja3yc","32","NaN","<div style=""width:500px;"">
                            <p style=""font-size:50px; font-weight:bold;""
                            >angry</p>
                            <div style=""width:240px; margin: auto;"">
                                <img src=""images/map13_Blues_scaleRev_orientMir_270.png"" style= ""width:200px""alt=""img"">
                            </div>
                        </div>","-126","","0","","","","images/map13_Blues_scaleRev_orientMir_270.png","angry","1","13","13","Blues","orientMir","scaleRev","270","",""
"","","","","","html-slider-response","157","448723","0.0-153.0","gvyvsja3yc","32","NaN","<div style=""width:500px;"">
                            <p style=""font-size:50px; font-weight:bold;""
                            >angry</p>
                            <div style=""width:240px; margin: auto;"">
                                <img src=""images/map02_PuOr_scaleRev_orientMir_090.png"" style= ""width:200px""alt=""img"">
                            </div>
                        </div>","5","","0","","","","images/map02_PuOr_scaleRev_orientMir_090.png","angry","1","02","02","PuOr","orientMir","scaleRev","090","",""
"","","","","","html-slider-response","158","450357","0.0-154.0","gvyvsja3yc","32","NaN","<div style=""width:500px;"">
