"success","timeout","failed_images","failed_audio","failed_video","trial_type","trial_index","time_elapsed","internal_node_id","subject_id","condition_num","rt","stimulus","response","question_order","slider_start","practiceTrial","practiceTrialNum","correct","image_path","concept","repetition","map_id","map_num","scale_name","orientation_code","mapping_code","rotation_code","ishihara_plate","correct_response"
"true","false","[]","[]","[]","preload","0","307","0.0-0.0","h29tezmn1n","73","","","","","","","","","","","","","","","","","","",""
"","","","","","html-button-response","1","8391","0.0-1.0","h29tezmn1n","73","8083","Welcome to our experiment!<p>At the bottom of this screen, you will see a button that says ""Begin Experiment"".<br>Please only click that button when you are ready to complete the 30 minute experiment in one sitting.</p><p> Once you click that button, it will not be possible to restart the experiment.","0","","","","","","","","","","","","","","","",""
"true","","","","","fullscreen","2","10910","0.0-2.0","h29tezmn1n","73","1514","","","","","","","","","","","","","","","","","",""
"","","","","","survey-multi-select","3","24658","0.0-3.0","h29tezmn1n","73","13744","","{""Consent"":[""<strong>I consent</strong>""]}","[0]","","","","","","","","","","","","","","",""
"","","","","","html-button-response","4","52057","0.0-4.0","h29tezmn1n","73","27397","Welcome! <p> This experiment involves two parts: demographic information, followed by the experimental task.<p> It will take about 30 minutes to complete both parts.","0","","","","","","","","","","","","","","","",""
"","","","","","survey-text","5","63142","0.0-5.0","h29tezmn1n","73","11077","","{""Age"":""18"",""Gender"":""Female"",""Race/ethnicity"":""White"",""Languages"":""English""}","","","","","","","","","","","","","","","",""
"","","","","","html-slider-response","6","77123","0.0-6.0","h29tezmn1n","73","13978","<div style='text-align:left; font-size:20px; line-height:25px; width: 1000px;'>
                                During this experiment you will be asked to rate how much you associate maps with                    different concepts.<br> Below, you can see some examples of the maps you will be asked to rate. Above the maps
                    is the list of concepts.<br>You will be asked                    to rate how much you associate each map with each concept on a scale from 'not at all' to 'very much' like the
                    one below. <br><br>
                    Now, please look at the list of concepts and maps. For each concept, think about the map you associate 'very
                    much' with the concept.<br>                     When you see that map during the experiment, please rate it near the 'very much' endpoint of the
                    scale.<br>Now, please think about which map you associate 'not at all'                     with each concept. When you see that map during the experiment, please rate it near the 'not at all' endpoint
                    of the scale.<br>
                    Please use the full range of the scale. That is, if a map is somewhat associated with the concept, you would
                    click partway between the middle point and right side of the scale.                    You will be asked to rate each map for a given concept before moving on to the next concept.<br>Press the
                    'Continue' button for instructions on how to use the slider.                    <br>
                </div>

                <div style=""width: 500px; margin: 0 auto;"">
                    <!-- Centered text paragraphs -->
                    <div style=""text-align: center; width: 500px;"">
                        <p style=""font-size:25px; line-height:15px;"">
                            happy&nbsp;&nbsp;&nbsp;&nbsp;
                            disgust&nbsp;&nbsp;&nbsp;&nbsp;
                            sad&nbsp;&nbsp;&nbsp;&nbsp;
                            fearful&nbsp;&nbsp;&nbsp;&nbsp;
                            angry
                        </p>
                        <!-- <p style=""font-size:20px; line-height:15px;"">disgust</p>
                        <p style=""font-size:20px;line-height:15px;"">sad</p>
                        <p style=""font-size:20px;line-height:15px;"">fearful</p>
                        <p style=""font-size:20px;line-height:15px;"">angry</p> -->
                    </div>
            

                    <!-- Grid section -->
                   <div style=""display: flex; justify-content: center; padding-top: 15px;"">
                    <div style=""display: grid; grid-template-columns: repeat(10, 55px); grid-gap: 5px; width: auto;"">
                        <img src=""images/map26_gist_earth_scaleRev_orientMir_180.png"" alt=""map"" style=""width: 100%;""><img src=""images/map15_RdBu_scaleDef_orientDef_090.png"" alt=""map"" style=""width: 100%;""><img src=""images/map13_RdGy_scaleDef_orientMir_270.png"" alt=""map"" style=""width: 100%;""><img src=""images/map07_PuRd_scaleDef_orientMir_090.png"" alt=""map"" style=""width: 100%;""><img src=""images/map13_BrBG_scaleDef_orientDef_270.png"" alt=""map"" style=""width: 100%;""><img src=""images/map12_BuGn_scaleRev_orientMir_000.png"" alt=""map"" style=""width: 100%;""><img src=""images/map13_PuOr_scaleRev_orientMir_180.png"" alt=""map"" style=""width: 100%;""><img src=""images/map27_magma_scaleDef_orientMir_270.png"" alt=""map"" style=""width: 100%;""><img src=""images/map27_turbo_scaleRev_orientDef_000.png"" alt=""map"" style=""width: 100%;""><img src=""images/map15_RdYlBu_scaleRev_orientMir_000.png"" alt=""map"" style=""width: 100%;""><img src=""images/map05_Greens_scaleRev_orientDef_180.png"" alt=""map"" style=""width: 100%;""><img src=""images/map26_managua_scaleDef_orientDef_090.png"" alt=""map"" style=""width: 100%;""><img src=""images/map23_bwr_scaleRev_orientMir_000.png"" alt=""map"" style=""width: 100%;""><img src=""images/map10_GnBu_scaleDef_orientDef_270.png"" alt=""map"" style=""width: 100%;""><img src=""images/map13_PRGn_scaleDef_orientDef_090.png"" alt=""map"" style=""width: 100%;""><img src=""images/map12_PuBuGn_scaleRev_orientDef_180.png"" alt=""map"" style=""width: 100%;""><img src=""images/map05_Oranges_scaleDef_orientDef_270.png"" alt=""map"" style=""width: 100%;""><img src=""images/map23_coolwarm_scaleDef_orientDef_090.png"" alt=""map"" style=""width: 100%;""><img src=""images/map12_PiYG_scaleDef_orientMir_270.png"" alt=""map"" style=""width: 100%;""><img src=""images/map26_vanimo_scaleDef_orientDef_270.png"" alt=""map"" style=""width: 100%;""><img src=""images/map02_Purples_scaleDef_orientMir_090.png"" alt=""map"" style=""width: 100%;""><img src=""images/map15_RdYlGn_scaleDef_orientMir_090.png"" alt=""map"" style=""width: 100%;""><img src=""images/map05_Blues_scaleRev_orientDef_000.png"" alt=""map"" style=""width: 100%;""><img src=""images/map05_Reds_scaleRev_orientMir_180.png"" alt=""map"" style=""width: 100%;""><img src=""images/map07_YlOrRd_scaleRev_orientDef_180.png"" alt=""map"" style=""width: 100%;""><img src=""images/map02_cividis_scaleDef_orientDef_090.png"" alt=""map"" style=""width: 100%;""><img src=""images/map12_YlGnBu_scaleRev_orientDef_000.png"" alt=""map"" style=""width: 100%;""><img src=""images/map12_YlGn_scaleRev_orientMir_180.png"" alt=""map"" style=""width: 100%;""><img src=""images/map15_Spectral_scaleDef_orientMir_270.png"" alt=""map"" style=""width: 100%;""><img src=""images/map27_viridis_scaleDef_orientDef_090.png"" alt=""map"" style=""width: 100%;""><img src=""images/map10_RdPu_scaleRev_orientDef_000.png"" alt=""map"" style=""width: 100%;""><img src=""images/map27_plasma_scaleRev_orientMir_000.png"" alt=""map"" style=""width: 100%;""><img src=""images/map10_BuPu_scaleRev_orientDef_180.png"" alt=""map"" style=""width: 100%;""><img src=""images/map27_inferno_scaleDef_orientMir_090.png"" alt=""map"" style=""width: 100%;""><img src=""images/map10_PuBu_scaleDef_orientMir_090.png"" alt=""map"" style=""width: 100%;""><img src=""images/map02_Greys_scaleRev_orientMir_000.png"" alt=""map"" style=""width: 100%;""><img src=""images/map26_berlin_scaleRev_orientDef_000.png"" alt=""map"" style=""width: 100%;""><img src=""images/map07_YlOrBr_scaleRev_orientDef_000.png"" alt=""map"" style=""width: 100%;""><img src=""images/map23_seismic_scaleDef_orientMir_090.png"" alt=""map"" style=""width: 100%;""><img src=""images/map07_OrRd_scaleDef_orientDef_270.png"" alt=""map"" style=""width: 100%;"">
                    </div>
                </div>

                    <!-- Clear floats -->
                    <div style=""clear: both;""></div>
                </div>
                            ","null","","0","true","","","","","","","","","","","","",""
"","","","","","html-button-response","7","176430","0.0-7.0","h29tezmn1n","73","99305","<div style=""width:800px;""><p style=""text-align:left"">To move the slider, click and drag your cursor to the location of the scale where you would like to make your rating and then let go. When you let go of the slider, your response will be recorded and the next trial will begin. <br>
                    We are interested in your initial impressions of each map for the given concept, so please go with your first intuition. <br>
                    Before you begin the experiment, there will be four training trials for you to practice using the scale. <br>
                     When you are ready to start the training trials, please click ""Continue"".</p><br></div>","0","","","","","","","","","","","","","","","",""
"","","","","","html-slider-response","8","181617","0.0-8.0-0.0","h29tezmn1n","73","NaN","<div style=""width:500px;"">
                                    <p style=""font-size:25px;"">Please move the slider all the way to the <br> right endpoint of the scale</p>

                                    </div>
                                </div>","196","","0","true","0","true","","","","","","","","","","",""
"","","","","","html-button-response","9","183514","0.0-8.0-1.0","h29tezmn1n","73","1393","<p align='center'><b>Good job!</b> Click on 'Continue' to proceed.</p>","0","","","","","","","","","","","","","","","",""
"","","","","","html-slider-response","10","185208","0.0-9.0-0.0","h29tezmn1n","73","NaN","<div style=""width:500px;"">
                                    <p style=""font-size:25px;"">Please move the slider all the way to the <br> left endpoint of the scale</p>

                                    </div>
                                </div>","-200","","0","true","1","true","","","","","","","","","","",""
"","","","","","html-button-response","11","186712","0.0-9.0-1.0","h29tezmn1n","73","1002","<p align='center'><b>Good job!</b> Click on 'Continue' to proceed.</p>","0","","","","","","","","","","","","","","","",""
"","","","","","html-slider-response","12","208274","0.0-10.0-0.0","h29tezmn1n","73","NaN","<div style=""width:500px;"">
                                    <p style=""font-size:25px;"">Please move the slider halfway between the center and right endpoint of the scale</p>

                                    </div>
                                </div>","107","","0","true","2","true","","","","","","","","","","",""
"","","","","","html-button-response","13","210013","0.0-10.0-1.0","h29tezmn1n","73","1235","<p align='center'><b>Good job!</b> Click on 'Continue' to proceed.</p>","0","","","","","","","","","","","","","","","",""
"","","","","","html-slider-response","14","213591","0.0-11.0-0.0","h29tezmn1n","73","NaN","<div style=""width:500px;"">
                                    <p style=""font-size:25px;"">Please move the slider halfway between the center and left endpoint of the scale</p>

                                    </div>
                                </div>","-107","","0","true","3","true","","","","","","","","","","",""
"","","","","","html-button-response","15","215146","0.0-11.0-1.0","h29tezmn1n","73","1054","<p align='center'><b>Good job!</b> Click on 'Continue' to proceed.</p>","0","","","","","","","","","","","","","","","",""
"","","","","","html-button-response","16","216913","0.0-12.0","h29tezmn1n","73","1765","<p>Great job! You've completed the practice trials. Now you will begin the main task.</p>","0","","","","","","","","","","","","","","","",""
"","","","","","html-button-response","17","220013","0.0-13.0","h29tezmn1n","73","3099","<p>In this block of trials, you will be asked to rate how much you associate each map with:</p > <p style = 'font-size:150%; font-weight: bold'>happy</p><br></br>","0","","","","","","","","","","","","","","","",""
"","","","","","html-slider-response","18","222024","0.0-14.0","h29tezmn1n","73","NaN","<div style=""width:500px;"">
                            <p style=""font-size:50px; font-weight:bold;""
                            >happy</p>
                            <div style=""width:240px; margin: auto;"">
                                <img src=""images/map02_Purples_scaleDef_orientMir_090.png"" style= ""width:200px""alt=""img"">
                            </div>
                        </div>","-102","","0","","","","images/map02_Purples_scaleDef_orientMir_090.png","happy","1","02","02","Purples","orientMir","scaleDef","090","",""
"","","","","","html-slider-response","19","224725","0.0-15.0","h29tezmn1n","73","NaN","<div style=""width:500px;"">
                            <p style=""font-size:50px; font-weight:bold;""
                            >happy</p>
                            <div style=""width:240px; margin: auto;"">
                                <img src=""images/map05_Reds_scaleDef_orientMir_090.png"" style= ""width:200px""alt=""img"">
                            </div>
                        </div>","-52","","0","","","","images/map05_Reds_scaleDef_orientMir_090.png","happy","1","05","05","Reds","orientMir","scaleDef","090","",""
"","","","","","html-slider-response","20","226659","0.0-16.0","h29tezmn1n","73","NaN","<div style=""width:500px;"">
                            <p style=""font-size:50px; font-weight:bold;""
                            >happy</p>
                            <div style=""width:240px; margin: auto;"">
                                <img src=""images/map12_BuGn_scaleRev_orientMir_000.png"" style= ""width:200px""alt=""img"">
                            </div>
                        </div>","97","","0","","","","images/map12_BuGn_scaleRev_orientMir_000.png","happy","1","12","12","BuGn","orientMir","scaleRev","000","",""
"","","","","","html-slider-response","21","228424","0.0-17.0","h29tezmn1n","73","NaN","<div style=""width:500px;"">
                            <p style=""font-size:50px; font-weight:bold;""
                            >happy</p>
                            <div style=""width:240px; margin: auto;"">
                                <img src=""images/map23_Spectral_scaleRev_orientDef_000.png"" style= ""width:200px""alt=""img"">
                            </div>
                        </div>","109","","0","","","","images/map23_Spectral_scaleRev_orientDef_000.png","happy","1","23","23","Spectral","orientDef","scaleRev","000","",""
"","","","","","html-slider-response","22","230092","0.0-18.0","h29tezmn1n","73","NaN","<div style=""width:500px;"">
                            <p style=""font-size:50px; font-weight:bold;""
                            >happy</p>
                            <div style=""width:240px; margin: auto;"">
                                <img src=""images/map05_Greens_scaleDef_orientDef_090.png"" style= ""width:200px""alt=""img"">
                            </div>
                        </div>","84","","0","","","","images/map05_Greens_scaleDef_orientDef_090.png","happy","1","05","05","Greens","orientDef","scaleDef","090","",""
"","","","","","html-slider-response","23","232141","0.0-19.0","h29tezmn1n","73","NaN","<div style=""width:500px;"">
                            <p style=""font-size:50px; font-weight:bold;""
                            >happy</p>
                            <div style=""width:240px; margin: auto;"">
                                <img src=""images/map27_plasma_scaleDef_orientDef_270.png"" style= ""width:200px""alt=""img"">
                            </div>
                        </div>","8","","0","","","","images/map27_plasma_scaleDef_orientDef_270.png","happy","1","27","27","plasma","orientDef","scaleDef","270","",""
"","","","","","html-slider-response","24","235091","0.0-20.0","h29tezmn1n","73","NaN","<div style=""width:500px;"">
                            <p style=""font-size:50px; font-weight:bold;""
                            >happy</p>
                            <div style=""width:240px; margin: auto;"">
                                <img src=""images/map13_PRGn_scaleRev_orientDef_180.png"" style= ""width:200px""alt=""img"">
                            </div>
                        </div>","-81","","0","","","","images/map13_PRGn_scaleRev_orientDef_180.png","happy","1","13","13","PRGn","orientDef","scaleRev","180","",""
"","","","","","html-slider-response","25","236973","0.0-21.0","h29tezmn1n","73","NaN","<div style=""width:500px;"">
                            <p style=""font-size:50px; font-weight:bold;""
                            >happy</p>
                            <div style=""width:240px; margin: auto;"">
                                <img src=""images/map02_magma_scaleRev_orientDef_000.png"" style= ""width:200px""alt=""img"">
                            </div>
                        </div>","-89","","0","","","","images/map02_magma_scaleRev_orientDef_000.png","happy","1","02","02","magma","orientDef","scaleRev","000","",""
"","","","","","html-slider-response","26","239408","0.0-22.0","h29tezmn1n","73","NaN","<div style=""width:500px;"">
                            <p style=""font-size:50px; font-weight:bold;""
                            >happy</p>
                            <div style=""width:240px; margin: auto;"">
                                <img src=""images/map27_viridis_scaleDef_orientDef_090.png"" style= ""width:200px""alt=""img"">
                            </div>
                        </div>","66","","0","","","","images/map27_viridis_scaleDef_orientDef_090.png","happy","1","27","27","viridis","orientDef","scaleDef","090","",""
"","","","","","html-slider-response","27","241524","0.0-23.0","h29tezmn1n","73","NaN","<div style=""width:500px;"">
                            <p style=""font-size:50px; font-weight:bold;""
                            >happy</p>
                            <div style=""width:240px; margin: auto;"">
                                <img src=""images/map10_GnBu_scaleRev_orientMir_000.png"" style= ""width:200px""alt=""img"">
                            </div>
                        </div>","-87","","0","","","","images/map10_GnBu_scaleRev_orientMir_000.png","happy","1","10","10","GnBu","orientMir","scaleRev","000","",""
"","","","","","html-slider-response","28","243324","0.0-24.0","h29tezmn1n","73","NaN","<div style=""width:500px;"">
                            <p style=""font-size:50px; font-weight:bold;""
                            >happy</p>
                            <div style=""width:240px; margin: auto;"">
                                <img src=""images/map13_BrBG_scaleDef_orientDef_270.png"" style= ""width:200px""alt=""img"">
                            </div>
                        </div>","-34","","0","","","","images/map13_BrBG_scaleDef_orientDef_270.png","happy","1","13","13","BrBG","orientDef","scaleDef","270","",""
"","","","","","html-slider-response","29","245257","0.0-25.0","h29tezmn1n","73","NaN","<div style=""width:500px;"">
                            <p style=""font-size:50px; font-weight:bold;""
                            >happy</p>
                            <div style=""width:240px; margin: auto;"">
                                <img src=""images/map05_Oranges_scaleDef_orientDef_270.png"" style= ""width:200px""alt=""img"">
                            </div>
                        </div>","101","","0","","","","images/map05_Oranges_scaleDef_orientDef_270.png","happy","1","05","05","Oranges","orientDef","scaleDef","270","",""
"","","","","","html-slider-response","30","246874","0.0-26.0","h29tezmn1n","73","NaN","<div style=""width:500px;"">
                            <p style=""font-size:50px; font-weight:bold;""
                            >happy</p>
                            <div style=""width:240px; margin: auto;"">
                                <img src=""images/map02_cividis_scaleRev_orientDef_180.png"" style= ""width:200px""alt=""img"">
                            </div>
                        </div>","-39","","0","","","","images/map02_cividis_scaleRev_orientDef_180.png","happy","1","02","02","cividis","orientDef","scaleRev","180","",""
"","","","","","html-slider-response","31","248543","0.0-27.0","h29tezmn1n","73","NaN","<div style=""width:500px;"">
                            <p style=""font-size:50px; font-weight:bold;""
                            >happy</p>
                            <div style=""width:240px; margin: auto;"">
                                <img src=""images/map05_Oranges_scaleRev_orientMir_000.png"" style= ""width:200px""alt=""img"">
                            </div>
                        </div>","68","","0","","","","images/map05_Oranges_scaleRev_orientMir_000.png","happy","1","05","05","Oranges","orientMir","scaleRev","000","",""
"","","","","","html-slider-response","32","250225","0.0-28.0","h29tezmn1n","73","NaN","<div style=""width:500px;"">
                            <p style=""font-size:50px; font-weight:bold;""
                            >happy</p>
                            <div style=""width:240px; margin: auto;"">
                                <img src=""images/map15_RdYlGn_scaleDef_orientMir_090.png"" style= ""width:200px""alt=""img"">
                            </div>
                        </div>","105","","0","","","","images/map15_RdYlGn_scaleDef_orientMir_090.png","happy","1","15","15","RdYlGn","orientMir","scaleDef","090","",""
"","","","","","html-slider-response","33","252442","0.0-29.0","h29tezmn1n","73","NaN","<div style=""width:500px;"">
                            <p style=""font-size:50px; font-weight:bold;""
                            >happy</p>
                            <div style=""width:240px; margin: auto;"">
                                <img src=""images/map13_PuOr_scaleRev_orientMir_180.png"" style= ""width:200px""alt=""img"">
                            </div>
                        </div>","-71","","0","","","","images/map13_PuOr_scaleRev_orientMir_180.png","happy","1","13","13","PuOr","orientMir","scaleRev","180","",""
"","","","","","html-slider-response","34","253991","0.0-30.0","h29tezmn1n","73","NaN","<div style=""width:500px;"">
                            <p style=""font-size:50px; font-weight:bold;""
                            >happy</p>
                            <div style=""width:240px; margin: auto;"">
                                <img src=""images/map07_YlOrRd_scaleDef_orientDef_090.png"" style= ""width:200px""alt=""img"">
                            </div>
                        </div>","166","","0","","","","images/map07_YlOrRd_scaleDef_orientDef_090.png","happy","1","07","07","YlOrRd","orientDef","scaleDef","090","",""
"","","","","","html-slider-response","35","257440","0.0-31.0","h29tezmn1n","73","NaN","<div style=""width:500px;"">
                            <p style=""font-size:50px; font-weight:bold;""
                            >happy</p>
                            <div style=""width:240px; margin: auto;"">
                                <img src=""images/map27_inferno_scaleRev_orientMir_180.png"" style= ""width:200px""alt=""img"">
                            </div>
                        </div>","5","","0","","","","images/map27_inferno_scaleRev_orientMir_180.png","happy","1","27","27","inferno","orientMir","scaleRev","180","",""
"","","","","","html-slider-response","36","259442","0.0-32.0","h29tezmn1n","73","NaN","<div style=""width:500px;"">
                            <p style=""font-size:50px; font-weight:bold;""
                            >happy</p>
                            <div style=""width:240px; margin: auto;"">
                                <img src=""images/map10_GnBu_scaleDef_orientDef_270.png"" style= ""width:200px""alt=""img"">
                            </div>
                        </div>","-70","","0","","","","images/map10_GnBu_scaleDef_orientDef_270.png","happy","1","10","10","GnBu","orientDef","scaleDef","270","",""
"","","","","","html-slider-response","37","261191","0.0-33.0","h29tezmn1n","73","NaN","<div style=""width:500px;"">
                            <p style=""font-size:50px; font-weight:bold;""
                            >happy</p>
                            <div style=""width:240px; margin: auto;"">
                                <img src=""images/map23_coolwarm_scaleDef_orientDef_090.png"" style= ""width:200px""alt=""img"">
                            </div>
                        </div>","26","","0","","","","images/map23_coolwarm_scaleDef_orientDef_090.png","happy","1","23","23","coolwarm","orientDef","scaleDef","090","",""
"","","","","","html-slider-response","38","262841","0.0-34.0","h29tezmn1n","73","NaN","<div style=""width:500px;"">
                            <p style=""font-size:50px; font-weight:bold;""
                            >happy</p>
                            <div style=""width:240px; margin: auto;"">
                                <img src=""images/map23_berlin_scaleDef_orientMir_270.png"" style= ""width:200px""alt=""img"">
                            </div>
                        </div>","-109","","0","","","","images/map23_berlin_scaleDef_orientMir_270.png","happy","1","23","23","berlin","orientMir","scaleDef","270","",""
"","","","","","html-slider-response","39","264574","0.0-35.0","h29tezmn1n","73","NaN","<div style=""width:500px;"">
                            <p style=""font-size:50px; font-weight:bold;""
                            >happy</p>
                            <div style=""width:240px; margin: auto;"">
                                <img src=""images/map15_RdBu_scaleDef_orientDef_090.png"" style= ""width:200px""alt=""img"">
                            </div>
                        </div>","-62","","0","","","","images/map15_RdBu_scaleDef_orientDef_090.png","happy","1","15","15","RdBu","orientDef","scaleDef","090","",""
"","","","","","html-slider-response","40","266889","0.0-36.0","h29tezmn1n","73","NaN","<div style=""width:500px;"">
                            <p style=""font-size:50px; font-weight:bold;""
                            >happy</p>
                            <div style=""width:240px; margin: auto;"">
                                <img src=""images/map12_YlGn_scaleDef_orientMir_090.png"" style= ""width:200px""alt=""img"">
                            </div>
                        </div>","104","","0","","","","images/map12_YlGn_scaleDef_orientMir_090.png","happy","1","12","12","YlGn","orientMir","scaleDef","090","",""
"","","","","","html-slider-response","41","269825","0.0-37.0","h29tezmn1n","73","NaN","<div style=""width:500px;"">
                            <p style=""font-size:50px; font-weight:bold;""
                            >happy</p>
                            <div style=""width:240px; margin: auto;"">
                                <img src=""images/map13_BrBG_scaleRev_orientMir_000.png"" style= ""width:200px""alt=""img"">
                            </div>
                        </div>","-59","","0","","","","images/map13_BrBG_scaleRev_orientMir_000.png","happy","1","13","13","BrBG","orientMir","scaleRev","000","",""
"","","","","","html-slider-response","42","271575","0.0-38.0","h29tezmn1n","73","NaN","<div style=""width:500px;"">
                            <p style=""font-size:50px; font-weight:bold;""
                            >happy</p>
                            <div style=""width:240px; margin: auto;"">
                                <img src=""images/map07_YlOrBr_scaleRev_orientDef_000.png"" style= ""width:200px""alt=""img"">
                            </div>
                        </div>","146","","0","","","","images/map07_YlOrBr_scaleRev_orientDef_000.png","happy","1","07","07","YlOrBr","orientDef","scaleRev","000","",""
"","","","","","html-slider-response","43","273274","0.0-39.0","h29tezmn1n","73","NaN","<div style=""width:500px;"">
                            <p style=""font-size:50px; font-weight:bold;""
                            >happy</p>
                            <div style=""width:240px; margin: auto;"">
                                <img src=""images/map10_BuPu_scaleRev_orientDef_180.png"" style= ""width:200px""alt=""img"">
                            </div>
                        </div>","-41","","0","","","","images/map10_BuPu_scaleRev_orientDef_180.png","happy","1","10","10","BuPu","orientDef","scaleRev","180","",""
"","","","","","html-slider-response","44","274791","0.0-40.0","h29tezmn1n","73","NaN","<div style=""width:500px;"">
                            <p style=""font-size:50px; font-weight:bold;""
                            >happy</p>
                            <div style=""width:240px; margin: auto;"">
                                <img src=""images/map13_PRGn_scaleDef_orientDef_090.png"" style= ""width:200px""alt=""img"">
                            </div>
                        </div>","-114","","0","","","","images/map13_PRGn_scaleDef_orientDef_090.png","happy","1","13","13","PRGn","orientDef","scaleDef","090","",""
"","","","","","html-slider-response","45","276957","0.0-41.0","h29tezmn1n","73","NaN","<div style=""width:500px;"">
                            <p style=""font-size:50px; font-weight:bold;""
                            >happy</p>
                            <div style=""width:240px; margin: auto;"">
                                <img src=""images/map10_RdPu_scaleRev_orientDef_000.png"" style= ""width:200px""alt=""img"">
                            </div>
                        </div>","22","","0","","","","images/map10_RdPu_scaleRev_orientDef_000.png","happy","1","10","10","RdPu","orientDef","scaleRev","000","",""
"","","","","","html-slider-response","46","278824","0.0-42.0","h29tezmn1n","73","NaN","<div style=""width:500px;"">
                            <p style=""font-size:50px; font-weight:bold;""
                            >happy</p>
                            <div style=""width:240px; margin: auto;"">
                                <img src=""images/map12_PiYG_scaleDef_orientMir_270.png"" style= ""width:200px""alt=""img"">
                            </div>
                        </div>","-102","","0","","","","images/map12_PiYG_scaleDef_orientMir_270.png","happy","1","12","12","PiYG","orientMir","scaleDef","270","",""
"","","","","","html-slider-response","47","280657","0.0-43.0","h29tezmn1n","73","NaN","<div style=""width:500px;"">
                            <p style=""font-size:50px; font-weight:bold;""
                            >happy</p>
                            <div style=""width:240px; margin: auto;"">
                                <img src=""images/map27_viridis_scaleRev_orientDef_180.png"" style= ""width:200px""alt=""img"">
                            </div>
                        </div>","-71","","0","","","","images/map27_viridis_scaleRev_orientDef_180.png","happy","1","27","27","viridis","orientDef","scaleRev","180","",""
"","","","","","html-slider-response","48","282907","0.0-44.0","h29tezmn1n","73","NaN","<div style=""width:500px;"">
                            <p style=""font-size:50px; font-weight:bold;""
                            >happy</p>
                            <div style=""width:240px; margin: auto;"">
                                <img src=""images/map02_Greys_scaleRev_orientMir_000.png"" style= ""width:200px""alt=""img"">
                            </div>
                        </div>","-189","","0","","","","images/map02_Greys_scaleRev_orientMir_000.png","happy","1","02","02","Greys","orientMir","scaleRev","000","",""
"","","","","","html-slider-response","49","284858","0.0-45.0","h29tezmn1n","73","NaN","<div style=""width:500px;"">
                            <p style=""font-size:50px; font-weight:bold;""
                            >happy</p>
                            <div style=""width:240px; margin: auto;"">
                                <img src=""images/map15_RdBu_scaleRev_orientDef_180.png"" style= ""width:200px""alt=""img"">
                            </div>
                        </div>","76","","0","","","","images/map15_RdBu_scaleRev_orientDef_180.png","happy","1","15","15","RdBu","orientDef","scaleRev","180","",""
"","","","","","html-slider-response","50","286324","0.0-46.0","h29tezmn1n","73","NaN","<div style=""width:500px;"">
                            <p style=""font-size:50px; font-weight:bold;""
                            >happy</p>
                            <div style=""width:240px; margin: auto;"">
                                <img src=""images/map12_BuGn_scaleDef_orientDef_270.png"" style= ""width:200px""alt=""img"">
                            </div>
                        </div>","74","","0","","","","images/map12_BuGn_scaleDef_orientDef_270.png","happy","1","12","12","BuGn","orientDef","scaleDef","270","",""
"","","","","","html-slider-response","51","288424","0.0-47.0","h29tezmn1n","73","NaN","<div style=""width:500px;"">
                            <p style=""font-size:50px; font-weight:bold;""
                            >happy</p>
                            <div style=""width:240px; margin: auto;"">
                                <img src=""images/map15_RdGy_scaleRev_orientDef_000.png"" style= ""width:200px""alt=""img"">
                            </div>
                        </div>","10","","0","","","","images/map15_RdGy_scaleRev_orientDef_000.png","happy","1","15","15","RdGy","orientDef","scaleRev","000","",""
"","","","","","html-slider-response","52","290157","0.0-48.0","h29tezmn1n","73","NaN","<div style=""width:500px;"">
                            <p style=""font-size:50px; font-weight:bold;""
                            >happy</p>
                            <div style=""width:240px; margin: auto;"">
                                <img src=""images/map05_YlOrBr_scaleDef_orientMir_270.png"" style= ""width:200px""alt=""img"">
                            </div>
                        </div>","187","","0","","","","images/map05_YlOrBr_scaleDef_orientMir_270.png","happy","1","05","05","YlOrBr","orientMir","scaleDef","270","",""
"","","","","","html-slider-response","53","292707","0.0-49.0","h29tezmn1n","73","NaN","<div style=""width:500px;"">
                            <p style=""font-size:50px; font-weight:bold;""
                            >happy</p>
                            <div style=""width:240px; margin: auto;"">
                                <img src=""images/map23_seismic_scaleRev_orientMir_180.png"" style= ""width:200px""alt=""img"">
                            </div>
                        </div>","-79","","0","","","","images/map23_seismic_scaleRev_orientMir_180.png","happy","1","23","23","seismic","orientMir","scaleRev","180","",""
"","","","","","html-slider-response","54","295658","0.0-50.0","h29tezmn1n","73","NaN","<div style=""width:500px;"">
                            <p style=""font-size:50px; font-weight:bold;""
                            >happy</p>
                            <div style=""width:240px; margin: auto;"">
                                <img src=""images/map26_gist_earth_scaleDef_orientMir_090.png"" style= ""width:200px""alt=""img"">
                            </div>
                        </div>","-42","","0","","","","images/map26_gist_earth_scaleDef_orientMir_090.png","happy","1","26","26","gist","scaleDef","earth","orientMir","",""
"","","","","","html-slider-response","55","299224","0.0-51.0","h29tezmn1n","73","NaN","<div style=""width:500px;"">
                            <p style=""font-size:50px; font-weight:bold;""
                            >happy</p>
                            <div style=""width:240px; margin: auto;"">
                                <img src=""images/map05_Blues_scaleRev_orientDef_000.png"" style= ""width:200px""alt=""img"">
                            </div>
                        </div>","-88","","0","","","","images/map05_Blues_scaleRev_orientDef_000.png","happy","1","05","05","Blues","orientDef","scaleRev","000","",""
"","","","","","html-slider-response","56","301675","0.0-52.0","h29tezmn1n","73","NaN","<div style=""width:500px;"">
                            <p style=""font-size:50px; font-weight:bold;""
                            >happy</p>
                            <div style=""width:240px; margin: auto;"">
                                <img src=""images/map10_YlGnBu_scaleDef_orientMir_270.png"" style= ""width:200px""alt=""img"">
                            </div>
                        </div>","-88","","0","","","","images/map10_YlGnBu_scaleDef_orientMir_270.png","happy","1","10","10","YlGnBu","orientMir","scaleDef","270","",""
"","","","","","html-slider-response","57","303573","0.0-53.0","h29tezmn1n","73","NaN","<div style=""width:500px;"">
                            <p style=""font-size:50px; font-weight:bold;""
                            >happy</p>
                            <div style=""width:240px; margin: auto;"">
                                <img src=""images/map23_bwr_scaleRev_orientMir_000.png"" style= ""width:200px""alt=""img"">
                            </div>
                        </div>","38","","0","","","","images/map23_bwr_scaleRev_orientMir_000.png","happy","1","23","23","bwr","orientMir","scaleRev","000","",""
"","","","","","html-button-response","58","324929","0.0-54.0","h29tezmn1n","73","20853","<p>You are doing great!<br></br> You are halway done with the current block. When you are ready to continue, click the 'Continue' button.</p>","0","","","","","","","","","","","","","","","",""
"","","","","","html-slider-response","59","327425","0.0-55.0","h29tezmn1n","73","NaN","<div style=""width:500px;"">
                            <p style=""font-size:50px; font-weight:bold;""
                            >happy</p>
                            <div style=""width:240px; margin: auto;"">
                                <img src=""images/map27_plasma_scaleRev_orientMir_000.png"" style= ""width:200px""alt=""img"">
                            </div>
                        </div>","44","","0","","","","images/map27_plasma_scaleRev_orientMir_000.png","happy","1","27","27","plasma","orientMir","scaleRev","000","",""
"","","","","","html-slider-response","60","329007","0.0-56.0","h29tezmn1n","73","NaN","<div style=""width:500px;"">
                            <p style=""font-size:50px; font-weight:bold;""
                            >happy</p>
                            <div style=""width:240px; margin: auto;"">
                                <img src=""images/map13_RdGy_scaleDef_orientMir_270.png"" style= ""width:200px""alt=""img"">
                            </div>
                        </div>","17","","0","","","","images/map13_RdGy_scaleDef_orientMir_270.png","happy","1","13","13","RdGy","orientMir","scaleDef","270","",""
"","","","","","html-slider-response","61","330374","0.0-57.0","h29tezmn1n","73","NaN","<div style=""width:500px;"">
                            <p style=""font-size:50px; font-weight:bold;""
                            >happy</p>
                            <div style=""width:240px; margin: auto;"">
                                <img src=""images/map02_Blues_scaleDef_orientMir_270.png"" style= ""width:200px""alt=""img"">
                            </div>
                        </div>","-114","","0","","","","images/map02_Blues_scaleDef_orientMir_270.png","happy","1","02","02","Blues","orientMir","scaleDef","270","",""
"","","","","","html-slider-response","62","332008","0.0-58.0","h29tezmn1n","73","NaN","<div style=""width:500px;"">
                            <p style=""font-size:50px; font-weight:bold;""
                            >happy</p>
                            <div style=""width:240px; margin: auto;"">
                                <img src=""images/map23_coolwarm_scaleRev_orientDef_180.png"" style= ""width:200px""alt=""img"">
                            </div>
                        </div>","-54","","0","","","","images/map23_coolwarm_scaleRev_orientDef_180.png","happy","1","23","23","coolwarm","orientDef","scaleRev","180","",""
"","","","","","html-slider-response","63","333240","0.0-59.0","h29tezmn1n","73","NaN","<div style=""width:500px;"">
                            <p style=""font-size:50px; font-weight:bold;""
                            >happy</p>
                            <div style=""width:240px; margin: auto;"">
                                <img src=""images/map23_bwr_scaleDef_orientDef_270.png"" style= ""width:200px""alt=""img"">
                            </div>
                        </div>","-40","","0","","","","images/map23_bwr_scaleDef_orientDef_270.png","happy","1","23","23","bwr","orientDef","scaleDef","270","",""
"","","","","","html-slider-response","64","334607","0.0-60.0","h29tezmn1n","73","NaN","<div style=""width:500px;"">
                            <p style=""font-size:50px; font-weight:bold;""
                            >happy</p>
                            <div style=""width:240px; margin: auto;"">
                                <img src=""images/map13_PuOr_scaleDef_orientMir_090.png"" style= ""width:200px""alt=""img"">
                            </div>
                        </div>","-71","","0","","","","images/map13_PuOr_scaleDef_orientMir_090.png","happy","1","13","13","PuOr","orientMir","scaleDef","090","",""
"","","","","","html-slider-response","65","335857","0.0-61.0","h29tezmn1n","73","NaN","<div style=""width:500px;"">
                            <p style=""font-size:50px; font-weight:bold;""
                            >happy</p>
                            <div style=""width:240px; margin: auto;"">
                                <img src=""images/map05_Reds_scaleRev_orientMir_180.png"" style= ""width:200px""alt=""img"">
                            </div>
                        </div>","102","","0","","","","images/map05_Reds_scaleRev_orientMir_180.png","happy","1","05","05","Reds","orientMir","scaleRev","180","",""
"","","","","","html-slider-response","66","337691","0.0-62.0","h29tezmn1n","73","NaN","<div style=""width:500px;"">
                            <p style=""font-size:50px; font-weight:bold;""
                            >happy</p>
                            <div style=""width:240px; margin: auto;"">
                                <img src=""images/map13_PiYG_scaleRev_orientDef_000.png"" style= ""width:200px""alt=""img"">
                            </div>
                        </div>","-22","","0","","","","images/map13_PiYG_scaleRev_orientDef_000.png","happy","1","13","13","PiYG","orientDef","scaleRev","000","",""
"","","","","","html-slider-response","67","339207","0.0-63.0","h29tezmn1n","73","NaN","<div style=""width:500px;"">
                            <p style=""font-size:50px; font-weight:bold;""
                            >happy</p>
                            <div style=""width:240px; margin: auto;"">
                                <img src=""images/map26_vanimo_scaleDef_orientDef_270.png"" style= ""width:200px""alt=""img"">
                            </div>
                        </div>","-70","","0","","","","images/map26_vanimo_scaleDef_orientDef_270.png","happy","1","26","26","vanimo","orientDef","scaleDef","270","",""
"","","","","","html-slider-response","68","340940","0.0-64.0","h29tezmn1n","73","NaN","<div style=""width:500px;"">
                            <p style=""font-size:50px; font-weight:bold;""
                            >happy</p>
                            <div style=""width:240px; margin: auto;"">
                                <img src=""images/map10_PuBu_scaleDef_orientMir_090.png"" style= ""width:200px""alt=""img"">
                            </div>
                        </div>","-142","","0","","","","images/map10_PuBu_scaleDef_orientMir_090.png","happy","1","10","10","PuBu","orientMir","scaleDef","090","",""
"","","","","","html-slider-response","69","342307","0.0-65.0","h29tezmn1n","73","NaN","<div style=""width:500px;"">
                            <p style=""font-size:50px; font-weight:bold;""
                            >happy</p>
                            <div style=""width:240px; margin: auto;"">
                                <img src=""images/map12_YlGnBu_scaleRev_orientDef_000.png"" style= ""width:200px""alt=""img"">
                            </div>
                        </div>","-82","","0","","","","images/map12_YlGnBu_scaleRev_orientDef_000.png","happy","1","12","12","YlGnBu","orientDef","scaleRev","000","",""
"","","","","","html-slider-response","70","343690","0.0-66.0","h29tezmn1n","73","NaN","<div style=""width:500px;"">
                            <p style=""font-size:50px; font-weight:bold;""
                            >happy</p>
                            <div style=""width:240px; margin: auto;"">
                                <img src=""images/map27_inferno_scaleDef_orientMir_090.png"" style= ""width:200px""alt=""img"">
                            </div>
                        </div>","54","","0","","","","images/map27_inferno_scaleDef_orientMir_090.png","happy","1","27","27","inferno","orientMir","scaleDef","090","",""
"","","","","","html-slider-response","71","345123","0.0-67.0","h29tezmn1n","73","NaN","<div style=""width:500px;"">
                            <p style=""font-size:50px; font-weight:bold;""
                            >happy</p>
                            <div style=""width:240px; margin: auto;"">
                                <img src=""images/map12_YlGn_scaleRev_orientMir_180.png"" style= ""width:200px""alt=""img"">
                            </div>
                        </div>","117","","0","","","","images/map12_YlGn_scaleRev_orientMir_180.png","happy","1","12","12","YlGn","orientMir","scaleRev","180","",""
"","","","","","html-slider-response","72","346640","0.0-68.0","h29tezmn1n","73","NaN","<div style=""width:500px;"">
                            <p style=""font-size:50px; font-weight:bold;""
                            >happy</p>
                            <div style=""width:240px; margin: auto;"">
                                <img src=""images/map10_PuBu_scaleRev_orientMir_180.png"" style= ""width:200px""alt=""img"">
                            </div>
                        </div>","-111","","0","","","","images/map10_PuBu_scaleRev_orientMir_180.png","happy","1","10","10","PuBu","orientMir","scaleRev","180","",""
"","","","","","html-slider-response","73","348324","0.0-69.0","h29tezmn1n","73","NaN","<div style=""width:500px;"">
                            <p style=""font-size:50px; font-weight:bold;""
                            >happy</p>
                            <div style=""width:240px; margin: auto;"">
                                <img src=""images/map26_managua_scaleRev_orientDef_180.png"" style= ""width:200px""alt=""img"">
                            </div>
                        </div>","-60","","0","","","","images/map26_managua_scaleRev_orientDef_180.png","happy","1","26","26","managua","orientDef","scaleRev","180","",""
"","","","","","html-slider-response","74","350090","0.0-70.0","h29tezmn1n","73","NaN","<div style=""width:500px;"">
                            <p style=""font-size:50px; font-weight:bold;""
                            >happy</p>
                            <div style=""width:240px; margin: auto;"">
                                <img src=""images/map27_magma_scaleDef_orientMir_270.png"" style= ""width:200px""alt=""img"">
                            </div>
                        </div>","60","","0","","","","images/map27_magma_scaleDef_orientMir_270.png","happy","1","27","27","magma","orientMir","scaleDef","270","",""
"","","","","","html-slider-response","75","351824","0.0-71.0","h29tezmn1n","73","NaN","<div style=""width:500px;"">
                            <p style=""font-size:50px; font-weight:bold;""
                            >happy</p>
                            <div style=""width:240px; margin: auto;"">
                                <img src=""images/map26_berlin_scaleRev_orientDef_000.png"" style= ""width:200px""alt=""img"">
                            </div>
                        </div>","-81","","0","","","","images/map26_berlin_scaleRev_orientDef_000.png","happy","1","26","26","berlin","orientDef","scaleRev","000","",""
"","","","","","html-slider-response","76","353457","0.0-72.0","h29tezmn1n","73","NaN","<div style=""width:500px;"">
                            <p style=""font-size:50px; font-weight:bold;""
                            >happy</p>
                            <div style=""width:240px; margin: auto;"">
                                <img src=""images/map07_OrRd_scaleDef_orientDef_270.png"" style= ""width:200px""alt=""img"">
                            </div>
                        </div>","153","","0","","","","images/map07_OrRd_scaleDef_orientDef_270.png","happy","1","07","07","OrRd","orientDef","scaleDef","270","",""
"","","","","","html-slider-response","77","355907","0.0-73.0","h29tezmn1n","73","NaN","<div style=""width:500px;"">
                            <p style=""font-size:50px; font-weight:bold;""
                            >happy</p>
                            <div style=""width:240px; margin: auto;"">
                                <img src=""images/map15_RdYlBu_scaleDef_orientDef_270.png"" style= ""width:200px""alt=""img"">
                            </div>
                        </div>","35","","0","","","","images/map15_RdYlBu_scaleDef_orientDef_270.png","happy","1","15","15","RdYlBu","orientDef","scaleDef","270","",""
"","","","","","html-slider-response","78","357808","0.0-74.0","h29tezmn1n","73","NaN","<div style=""width:500px;"">
                            <p style=""font-size:50px; font-weight:bold;""
                            >happy</p>
                            <div style=""width:240px; margin: auto;"">
                                <img src=""images/map05_Greens_scaleRev_orientDef_180.png"" style= ""width:200px""alt=""img"">
                            </div>
                        </div>","116","","0","","","","images/map05_Greens_scaleRev_orientDef_180.png","happy","1","05","05","Greens","orientDef","scaleRev","180","",""
"","","","","","html-slider-response","79","359741","0.0-75.0","h29tezmn1n","73","NaN","<div style=""width:500px;"">
                            <p style=""font-size:50px; font-weight:bold;""
                            >happy</p>
                            <div style=""width:240px; margin: auto;"">
                                <img src=""images/map26_turbo_scaleDef_orientMir_270.png"" style= ""width:200px""alt=""img"">
                            </div>
                        </div>","93","","0","","","","images/map26_turbo_scaleDef_orientMir_270.png","happy","1","26","26","turbo","orientMir","scaleDef","270","",""
"","","","","","html-slider-response","80","361789","0.0-76.0","h29tezmn1n","73","NaN","<div style=""width:500px;"">
                            <p style=""font-size:50px; font-weight:bold;""
                            >happy</p>
                            <div style=""width:240px; margin: auto;"">
                                <img src=""images/map27_turbo_scaleRev_orientDef_000.png"" style= ""width:200px""alt=""img"">
                            </div>
                        </div>","67","","0","","","","images/map27_turbo_scaleRev_orientDef_000.png","happy","1","27","27","turbo","orientDef","scaleRev","000","",""
"","","","","","html-slider-response","81","363874","0.0-77.0","h29tezmn1n","73","NaN","<div style=""width:500px;"">
                            <p style=""font-size:50px; font-weight:bold;""
                            >happy</p>
                            <div style=""width:240px; margin: auto;"">
                                <img src=""images/map07_PuRd_scaleDef_orientMir_090.png"" style= ""width:200px""alt=""img"">
                            </div>
                        </div>","106","","0","","","","images/map07_PuRd_scaleDef_orientMir_090.png","happy","1","07","07","PuRd","orientMir","scaleDef","090","",""
"","","","","","html-slider-response","82","365857","0.0-78.0","h29tezmn1n","73","NaN","<div style=""width:500px;"">
                            <p style=""font-size:50px; font-weight:bold;""
                            >happy</p>
                            <div style=""width:240px; margin: auto;"">
                                <img src=""images/map10_BuPu_scaleDef_orientDef_090.png"" style= ""width:200px""alt=""img"">
                            </div>
                        </div>","-47","","0","","","","images/map10_BuPu_scaleDef_orientDef_090.png","happy","1","10","10","BuPu","orientDef","scaleDef","090","",""
"","","","","","html-slider-response","83","367490","0.0-79.0","h29tezmn1n","73","NaN","<div style=""width:500px;"">
                            <p style=""font-size:50px; font-weight:bold;""
                            >happy</p>
                            <div style=""width:240px; margin: auto;"">
                                <img src=""images/map07_YlOrRd_scaleRev_orientDef_180.png"" style= ""width:200px""alt=""img"">
                            </div>
                        </div>","185","","0","","","","images/map07_YlOrRd_scaleRev_orientDef_180.png","happy","1","07","07","YlOrRd","orientDef","scaleRev","180","",""
"","","","","","html-slider-response","84","369773","0.0-80.0","h29tezmn1n","73","NaN","<div style=""width:500px;"">
                            <p style=""font-size:50px; font-weight:bold;""
                            >happy</p>
                            <div style=""width:240px; margin: auto;"">
                                <img src=""images/map12_PuBuGn_scaleRev_orientDef_180.png"" style= ""width:200px""alt=""img"">
                            </div>
                        </div>","-173","","0","","","","images/map12_PuBuGn_scaleRev_orientDef_180.png","happy","1","12","12","PuBuGn","orientDef","scaleRev","180","",""
"","","","","","html-slider-response","85","371273","0.0-81.0","h29tezmn1n","73","NaN","<div style=""width:500px;"">
                            <p style=""font-size:50px; font-weight:bold;""
                            >happy</p>
                            <div style=""width:240px; margin: auto;"">
                                <img src=""images/map12_PuBuGn_scaleDef_orientDef_090.png"" style= ""width:200px""alt=""img"">
                            </div>
                        </div>","-150","","0","","","","images/map12_PuBuGn_scaleDef_orientDef_090.png","happy","1","12","12","PuBuGn","orientDef","scaleDef","090","",""
"","","","","","html-slider-response","86","373656","0.0-82.0","h29tezmn1n","73","NaN","<div style=""width:500px;"">
                            <p style=""font-size:50px; font-weight:bold;""
                            >happy</p>
                            <div style=""width:240px; margin: auto;"">
                                <img src=""images/map02_cividis_scaleDef_orientDef_090.png"" style= ""width:200px""alt=""img"">
                            </div>
                        </div>","-146","","0","","","","images/map02_cividis_scaleDef_orientDef_090.png","happy","1","02","02","cividis","orientDef","scaleDef","090","",""
"","","","","","html-slider-response","87","375757","0.0-83.0","h29tezmn1n","73","NaN","<div style=""width:500px;"">
                            <p style=""font-size:50px; font-weight:bold;""
                            >happy</p>
                            <div style=""width:240px; margin: auto;"">
                                <img src=""images/map02_Greys_scaleDef_orientDef_270.png"" style= ""width:200px""alt=""img"">
                            </div>
                        </div>","-193","","0","","","","images/map02_Greys_scaleDef_orientDef_270.png","happy","1","02","02","Greys","orientDef","scaleDef","270","",""
"","","","","","html-slider-response","88","377507","0.0-84.0","h29tezmn1n","73","NaN","<div style=""width:500px;"">
                            <p style=""font-size:50px; font-weight:bold;""
                            >happy</p>
                            <div style=""width:240px; margin: auto;"">
                                <img src=""images/map23_seismic_scaleDef_orientMir_090.png"" style= ""width:200px""alt=""img"">
                            </div>
                        </div>","34","","0","","","","images/map23_seismic_scaleDef_orientMir_090.png","happy","1","23","23","seismic","orientMir","scaleDef","090","",""
"","","","","","html-slider-response","89","379407","0.0-85.0","h29tezmn1n","73","NaN","<div style=""width:500px;"">
                            <p style=""font-size:50px; font-weight:bold;""
                            >happy</p>
                            <div style=""width:240px; margin: auto;"">
                                <img src=""images/map26_gist_earth_scaleRev_orientMir_180.png"" style= ""width:200px""alt=""img"">
                            </div>
                        </div>","52","","0","","","","images/map26_gist_earth_scaleRev_orientMir_180.png","happy","1","26","26","gist","scaleRev","earth","orientMir","",""
"","","","","","html-slider-response","90","381106","0.0-86.0","h29tezmn1n","73","NaN","<div style=""width:500px;"">
                            <p style=""font-size:50px; font-weight:bold;""
                            >happy</p>
                            <div style=""width:240px; margin: auto;"">
                                <img src=""images/map07_OrRd_scaleRev_orientMir_000.png"" style= ""width:200px""alt=""img"">
                            </div>
                        </div>","192","","0","","","","images/map07_OrRd_scaleRev_orientMir_000.png","happy","1","07","07","OrRd","orientMir","scaleRev","000","",""
"","","","","","html-slider-response","91","382608","0.0-87.0","h29tezmn1n","73","NaN","<div style=""width:500px;"">
                            <p style=""font-size:50px; font-weight:bold;""
                            >happy</p>
                            <div style=""width:240px; margin: auto;"">
                                <img src=""images/map02_Purples_scaleRev_orientMir_180.png"" style= ""width:200px""alt=""img"">
                            </div>
                        </div>","-74","","0","","","","images/map02_Purples_scaleRev_orientMir_180.png","happy","1","02","02","Purples","orientMir","scaleRev","180","",""
"","","","","","html-slider-response","92","384108","0.0-88.0","h29tezmn1n","73","NaN","<div style=""width:500px;"">
                            <p style=""font-size:50px; font-weight:bold;""
                            >happy</p>
                            <div style=""width:240px; margin: auto;"">
                                <img src=""images/map07_RdPu_scaleDef_orientMir_270.png"" style= ""width:200px""alt=""img"">
                            </div>
                        </div>","40","","0","","","","images/map07_RdPu_scaleDef_orientMir_270.png","happy","1","07","07","RdPu","orientMir","scaleDef","270","",""
"","","","","","html-slider-response","93","385524","0.0-89.0","h29tezmn1n","73","NaN","<div style=""width:500px;"">
                            <p style=""font-size:50px; font-weight:bold;""
                            >happy</p>
                            <div style=""width:240px; margin: auto;"">
                                <img src=""images/map15_RdYlBu_scaleRev_orientMir_000.png"" style= ""width:200px""alt=""img"">
                            </div>
                        </div>","69","","0","","","","images/map15_RdYlBu_scaleRev_orientMir_000.png","happy","1","15","15","RdYlBu","orientMir","scaleRev","000","",""
"","","","","","html-slider-response","94","387023","0.0-90.0","h29tezmn1n","73","NaN","<div style=""width:500px;"">
                            <p style=""font-size:50px; font-weight:bold;""
                            >happy</p>
                            <div style=""width:240px; margin: auto;"">
                                <img src=""images/map26_managua_scaleDef_orientDef_090.png"" style= ""width:200px""alt=""img"">
                            </div>
                        </div>","-60","","0","","","","images/map26_managua_scaleDef_orientDef_090.png","happy","1","26","26","managua","orientDef","scaleDef","090","",""
"","","","","","html-slider-response","95","388556","0.0-91.0","h29tezmn1n","73","NaN","<div style=""width:500px;"">
                            <p style=""font-size:50px; font-weight:bold;""
                            >happy</p>
                            <div style=""width:240px; margin: auto;"">
                                <img src=""images/map26_vanimo_scaleRev_orientMir_000.png"" style= ""width:200px""alt=""img"">
                            </div>
                        </div>","-46","","0","","","","images/map26_vanimo_scaleRev_orientMir_000.png","happy","1","26","26","vanimo","orientMir","scaleRev","000","",""
"","","","","","html-slider-response","96","390140","0.0-92.0","h29tezmn1n","73","NaN","<div style=""width:500px;"">
                            <p style=""font-size:50px; font-weight:bold;""
                            >happy</p>
                            <div style=""width:240px; margin: auto;"">
                                <img src=""images/map15_Spectral_scaleDef_orientMir_270.png"" style= ""width:200px""alt=""img"">
                            </div>
                        </div>","71","","0","","","","images/map15_Spectral_scaleDef_orientMir_270.png","happy","1","15","15","Spectral","orientMir","scaleDef","270","",""
"","","","","","html-slider-response","97","391690","0.0-93.0","h29tezmn1n","73","NaN","<div style=""width:500px;"">
                            <p style=""font-size:50px; font-weight:bold;""
                            >happy</p>
                            <div style=""width:240px; margin: auto;"">
                                <img src=""images/map07_PuRd_scaleRev_orientMir_180.png"" style= ""width:200px""alt=""img"">
                            </div>
                        </div>","119","","0","","","","images/map07_PuRd_scaleRev_orientMir_180.png","happy","1","07","07","PuRd","orientMir","scaleRev","180","",""
"","","","","","html-slider-response","98","393240","0.0-94.0","h29tezmn1n","73","NaN","<div style=""width:500px;"">
                            <p style=""font-size:50px; font-weight:bold;""
                            >happy</p>
                            <div style=""width:240px; margin: auto;"">
                                <img src=""images/map15_RdYlGn_scaleRev_orientMir_180.png"" style= ""width:200px""alt=""img"">
                            </div>
                        </div>","54","","0","","","","images/map15_RdYlGn_scaleRev_orientMir_180.png","happy","1","15","15","RdYlGn","orientMir","scaleRev","180","",""
"","","","","","html-button-response","99","399546","0.0-95.0","h29tezmn1n","73","5803","<p>Great Job! You've finished block 1.<br></br> You have 4 block(s) left to go.<br></br></p>","0","","","","","","","","","","","","","","","",""
"","","","","","html-button-response","100","410245","0.0-96.0","h29tezmn1n","73","10698","<p>In this block of trials, you will be asked to rate how much you associate each map with:</p > <p style = 'font-size:150%; font-weight: bold'>disgust</p><br></br>","0","","","","","","","","","","","","","","","",""
"","","","","","html-slider-response","101","413557","0.0-97.0","h29tezmn1n","73","NaN","<div style=""width:500px;"">
                            <p style=""font-size:50px; font-weight:bold;""
                            >disgust</p>
                            <div style=""width:240px; margin: auto;"">
                                <img src=""images/map15_RdYlBu_scaleDef_orientDef_270.png"" style= ""width:200px""alt=""img"">
                            </div>
                        </div>","35","","0","","","","images/map15_RdYlBu_scaleDef_orientDef_270.png","disgust","1","15","15","RdYlBu","orientDef","scaleDef","270","",""
"","","","","","html-slider-response","102","415607","0.0-98.0","h29tezmn1n","73","NaN","<div style=""width:500px;"">
                            <p style=""font-size:50px; font-weight:bold;""
                            >disgust</p>
                            <div style=""width:240px; margin: auto;"">
                                <img src=""images/map10_PuBu_scaleDef_orientMir_090.png"" style= ""width:200px""alt=""img"">
                            </div>
                        </div>","126","","0","","","","images/map10_PuBu_scaleDef_orientMir_090.png","disgust","1","10","10","PuBu","orientMir","scaleDef","090","",""
"","","","","","html-slider-response","103","417306","0.0-99.0","h29tezmn1n","73","NaN","<div style=""width:500px;"">
                            <p style=""font-size:50px; font-weight:bold;""
                            >disgust</p>
                            <div style=""width:240px; margin: auto;"">
                                <img src=""images/map23_Spectral_scaleRev_orientDef_000.png"" style= ""width:200px""alt=""img"">
                            </div>
                        </div>","38","","0","","","","images/map23_Spectral_scaleRev_orientDef_000.png","disgust","1","23","23","Spectral","orientDef","scaleRev","000","",""
"","","","","","html-slider-response","104","418990","0.0-100.0","h29tezmn1n","73","NaN","<div style=""width:500px;"">
                            <p style=""font-size:50px; font-weight:bold;""
                            >disgust</p>
                            <div style=""width:240px; margin: auto;"">
                                <img src=""images/map05_Greens_scaleRev_orientDef_180.png"" style= ""width:200px""alt=""img"">
                            </div>
                        </div>","-126","","0","","","","images/map05_Greens_scaleRev_orientDef_180.png","disgust","1","05","05","Greens","orientDef","scaleRev","180","",""
"","","","","","html-slider-response","105","420790","0.0-101.0","h29tezmn1n","73","NaN","<div style=""width:500px;"">
                            <p style=""font-size:50px; font-weight:bold;""
                            >disgust</p>
                            <div style=""width:240px; margin: auto;"">
                                <img src=""images/map26_vanimo_scaleRev_orientMir_000.png"" style= ""width:200px""alt=""img"">
                            </div>
                        </div>","-154","","0","","","","images/map26_vanimo_scaleRev_orientMir_000.png","disgust","1","26","26","vanimo","orientMir","scaleRev","000","",""
"","","","","","html-slider-response","106","422907","0.0-102.0","h29tezmn1n","73","NaN","<div style=""width:500px;"">
                            <p style=""font-size:50px; font-weight:bold;""
                            >disgust</p>
                            <div style=""width:240px; margin: auto;"">
                                <img src=""images/map02_cividis_scaleRev_orientDef_180.png"" style= ""width:200px""alt=""img"">
                            </div>
                        </div>","76","","0","","","","images/map02_cividis_scaleRev_orientDef_180.png","disgust","1","02","02","cividis","orientDef","scaleRev","180","",""
"","","","","","html-slider-response","107","428423","0.0-103.0","h29tezmn1n","73","NaN","<div style=""width:500px;"">
                            <p style=""font-size:50px; font-weight:bold;""
                            >disgust</p>
                            <div style=""width:240px; margin: auto;"">
                                <img src=""images/map13_RdGy_scaleDef_orientMir_270.png"" style= ""width:200px""alt=""img"">
                            </div>
                        </div>","-49","","0","","","","images/map13_RdGy_scaleDef_orientMir_270.png","disgust","1","13","13","RdGy","orientMir","scaleDef","270","",""
"","","","","","html-slider-response","108","430606","0.0-104.0","h29tezmn1n","73","NaN","<div style=""width:500px;"">
                            <p style=""font-size:50px; font-weight:bold;""
                            >disgust</p>
                            <div style=""width:240px; margin: auto;"">
                                <img src=""images/map07_OrRd_scaleRev_orientMir_000.png"" style= ""width:200px""alt=""img"">
                            </div>
                        </div>","-154","","0","","","","images/map07_OrRd_scaleRev_orientMir_000.png","disgust","1","07","07","OrRd","orientMir","scaleRev","000","",""
"","","","","","html-slider-response","109","432539","0.0-105.0","h29tezmn1n","73","NaN","<div style=""width:500px;"">
                            <p style=""font-size:50px; font-weight:bold;""
                            >disgust</p>
                            <div style=""width:240px; margin: auto;"">
                                <img src=""images/map02_Greys_scaleDef_orientDef_270.png"" style= ""width:200px""alt=""img"">
                            </div>
                        </div>","-142","","0","","","","images/map02_Greys_scaleDef_orientDef_270.png","disgust","1","02","02","Greys","orientDef","scaleDef","270","",""
"","","","","","html-slider-response","110","434273","0.0-106.0","h29tezmn1n","73","NaN","<div style=""width:500px;"">
                            <p style=""font-size:50px; font-weight:bold;""
                            >disgust</p>
                            <div style=""width:240px; margin: auto;"">
                                <img src=""images/map02_Greys_scaleRev_orientMir_000.png"" style= ""width:200px""alt=""img"">
                            </div>
                        </div>","-158","","0","","","","images/map02_Greys_scaleRev_orientMir_000.png","disgust","1","02","02","Greys","orientMir","scaleRev","000","",""
"","","","","","html-slider-response","111","435823","0.0-107.0","h29tezmn1n","73","NaN","<div style=""width:500px;"">
                            <p style=""font-size:50px; font-weight:bold;""
                            >disgust</p>
                            <div style=""width:240px; margin: auto;"">
                                <img src=""images/map26_managua_scaleDef_orientDef_090.png"" style= ""width:200px""alt=""img"">
                            </div>
                        </div>","-56","","0","","","","images/map26_managua_scaleDef_orientDef_090.png","disgust","1","26","26","managua","orientDef","scaleDef","090","",""
"","","","","","html-slider-response","112","437472","0.0-108.0","h29tezmn1n","73","NaN","<div style=""width:500px;"">
                            <p style=""font-size:50px; font-weight:bold;""
                            >disgust</p>
                            <div style=""width:240px; margin: auto;"">
                                <img src=""images/map12_YlGn_scaleRev_orientMir_180.png"" style= ""width:200px""alt=""img"">
                            </div>
                        </div>","190","","0","","","","images/map12_YlGn_scaleRev_orientMir_180.png","disgust","1","12","12","YlGn","orientMir","scaleRev","180","",""
"","","","","","html-slider-response","113","439107","0.0-109.0","h29tezmn1n","73","NaN","<div style=""width:500px;"">
                            <p style=""font-size:50px; font-weight:bold;""
                            >disgust</p>
                            <div style=""width:240px; margin: auto;"">
                                <img src=""images/map12_PiYG_scaleDef_orientMir_270.png"" style= ""width:200px""alt=""img"">
                            </div>
                        </div>","44","","0","","","","images/map12_PiYG_scaleDef_orientMir_270.png","disgust","1","12","12","PiYG","orientMir","scaleDef","270","",""
"","","","","","html-slider-response","114","440590","0.0-110.0","h29tezmn1n","73","NaN","<div style=""width:500px;"">
                            <p style=""font-size:50px; font-weight:bold;""
                            >disgust</p>
                            <div style=""width:240px; margin: auto;"">
                                <img src=""images/map27_inferno_scaleRev_orientMir_180.png"" style= ""width:200px""alt=""img"">
                            </div>
                        </div>","-131","","0","","","","images/map27_inferno_scaleRev_orientMir_180.png","disgust","1","27","27","inferno","orientMir","scaleRev","180","",""
"","","","","","html-slider-response","115","442473","0.0-111.0","h29tezmn1n","73","NaN","<div style=""width:500px;"">
                            <p style=""font-size:50px; font-weight:bold;""
                            >disgust</p>
                            <div style=""width:240px; margin: auto;"">
                                <img src=""images/map07_OrRd_scaleDef_orientDef_270.png"" style= ""width:200px""alt=""img"">
                            </div>
                        </div>","-182","","0","","","","images/map07_OrRd_scaleDef_orientDef_270.png","disgust","1","07","07","OrRd","orientDef","scaleDef","270","",""
"","","","","","html-slider-response","116","444006","0.0-112.0","h29tezmn1n","73","NaN","<div style=""width:500px;"">
                            <p style=""font-size:50px; font-weight:bold;""
                            >disgust</p>
                            <div style=""width:240px; margin: auto;"">
                                <img src=""images/map23_seismic_scaleDef_orientMir_090.png"" style= ""width:200px""alt=""img"">
                            </div>
                        </div>","-84","","0","","","","images/map23_seismic_scaleDef_orientMir_090.png","disgust","1","23","23","seismic","orientMir","scaleDef","090","",""
"","","","","","html-slider-response","117","446039","0.0-113.0","h29tezmn1n","73","NaN","<div style=""width:500px;"">
                            <p style=""font-size:50px; font-weight:bold;""
                            >disgust</p>
                            <div style=""width:240px; margin: auto;"">
                                <img src=""images/map07_YlOrRd_scaleDef_orientDef_090.png"" style= ""width:200px""alt=""img"">
                            </div>
                        </div>","-164","","0","","","","images/map07_YlOrRd_scaleDef_orientDef_090.png","disgust","1","07","07","YlOrRd","orientDef","scaleDef","090","",""
"","","","","","html-slider-response","118","447890","0.0-114.0","h29tezmn1n","73","NaN","<div style=""width:500px;"">
                            <p style=""font-size:50px; font-weight:bold;""
                            >disgust</p>
                            <div style=""width:240px; margin: auto;"">
                                <img src=""images/map02_Blues_scaleDef_orientMir_270.png"" style= ""width:200px""alt=""img"">
                            </div>
                        </div>","-152","","0","","","","images/map02_Blues_scaleDef_orientMir_270.png","disgust","1","02","02","Blues","orientMir","scaleDef","270","",""
"","","","","","html-slider-response","119","449157","0.0-115.0","h29tezmn1n","73","NaN","<div style=""width:500px;"">
                            <p style=""font-size:50px; font-weight:bold;""
                            >disgust</p>
                            <div style=""width:240px; margin: auto;"">
                                <img src=""images/map12_YlGnBu_scaleRev_orientDef_000.png"" style= ""width:200px""alt=""img"">
                            </div>
                        </div>","-170","","0","","","","images/map12_YlGnBu_scaleRev_orientDef_000.png","disgust","1","12","12","YlGnBu","orientDef","scaleRev","000","",""
"","","","","","html-slider-response","120","450340","0.0-116.0","h29tezmn1n","73","NaN","<div style=""width:500px;"">
                            <p style=""font-size:50px; font-weight:bold;""
                            >disgust</p>
                            <div style=""width:240px; margin: auto;"">
                                <img src=""images/map15_RdYlBu_scaleRev_orientMir_000.png"" style= ""width:200px""alt=""img"">
                            </div>
                        </div>","-122","","0","","","","images/map15_RdYlBu_scaleRev_orientMir_000.png","disgust","1","15","15","RdYlBu","orientMir","scaleRev","000","",""
"","","","","","html-slider-response","121","451524","0.0-117.0","h29tezmn1n","73","NaN","<div style=""width:500px;"">
                            <p style=""font-size:50px; font-weight:bold;""
                            >disgust</p>
                            <div style=""width:240px; margin: auto;"">
                                <img src=""images/map15_RdBu_scaleDef_orientDef_090.png"" style= ""width:200px""alt=""img"">
                            </div>
                        </div>","-149","","0","","","","images/map15_RdBu_scaleDef_orientDef_090.png","disgust","1","15","15","RdBu","orientDef","scaleDef","090","",""
"","","","","","html-slider-response","122","452907","0.0-118.0","h29tezmn1n","73","NaN","<div style=""width:500px;"">
                            <p style=""font-size:50px; font-weight:bold;""
                            >disgust</p>
                            <div style=""width:240px; margin: auto;"">
                                <img src=""images/map10_BuPu_scaleRev_orientDef_180.png"" style= ""width:200px""alt=""img"">
                            </div>
                        </div>","-129","","0","","","","images/map10_BuPu_scaleRev_orientDef_180.png","disgust","1","10","10","BuPu","orientDef","scaleRev","180","",""
"","","","","","html-slider-response","123","454923","0.0-119.0","h29tezmn1n","73","NaN","<div style=""width:500px;"">
                            <p style=""font-size:50px; font-weight:bold;""
                            >disgust</p>
                            <div style=""width:240px; margin: auto;"">
                                <img src=""images/map26_gist_earth_scaleDef_orientMir_090.png"" style= ""width:200px""alt=""img"">
                            </div>
                        </div>","194","","0","","","","images/map26_gist_earth_scaleDef_orientMir_090.png","disgust","1","26","26","gist","scaleDef","earth","orientMir","",""
"","","","","","html-slider-response","124","456772","0.0-120.0","h29tezmn1n","73","NaN","<div style=""width:500px;"">
                            <p style=""font-size:50px; font-weight:bold;""
                            >disgust</p>
                            <div style=""width:240px; margin: auto;"">
                                <img src=""images/map05_YlOrBr_scaleDef_orientMir_270.png"" style= ""width:200px""alt=""img"">
                            </div>
                        </div>","-172","","0","","","","images/map05_YlOrBr_scaleDef_orientMir_270.png","disgust","1","05","05","YlOrBr","orientMir","scaleDef","270","",""
"","","","","","html-slider-response","125","458340","0.0-121.0","h29tezmn1n","73","NaN","<div style=""width:500px;"">
                            <p style=""font-size:50px; font-weight:bold;""
                            >disgust</p>
                            <div style=""width:240px; margin: auto;"">
                                <img src=""images/map12_BuGn_scaleDef_orientDef_270.png"" style= ""width:200px""alt=""img"">
                            </div>
                        </div>","147","","0","","","","images/map12_BuGn_scaleDef_orientDef_270.png","disgust","1","12","12","BuGn","orientDef","scaleDef","270","",""
"","","","","","html-slider-response","126","460090","0.0-122.0","h29tezmn1n","73","NaN","<div style=""width:500px;"">
                            <p style=""font-size:50px; font-weight:bold;""
                            >disgust</p>
                            <div style=""width:240px; margin: auto;"">
                                <img src=""images/map27_plasma_scaleRev_orientMir_000.png"" style= ""width:200px""alt=""img"">
                            </div>
                        </div>","-114","","0","","","","images/map27_plasma_scaleRev_orientMir_000.png","disgust","1","27","27","plasma","orientMir","scaleRev","000","",""
"","","","","","html-slider-response","127","462040","0.0-123.0","h29tezmn1n","73","NaN","<div style=""width:500px;"">
                            <p style=""font-size:50px; font-weight:bold;""
                            >disgust</p>
                            <div style=""width:240px; margin: auto;"">
                                <img src=""images/map15_RdGy_scaleRev_orientDef_000.png"" style= ""width:200px""alt=""img"">
                            </div>
                        </div>","-114","","0","","","","images/map15_RdGy_scaleRev_orientDef_000.png","disgust","1","15","15","RdGy","orientDef","scaleRev","000","",""
"","","","","","html-slider-response","128","463640","0.0-124.0","h29tezmn1n","73","NaN","<div style=""width:500px;"">
                            <p style=""font-size:50px; font-weight:bold;""
                            >disgust</p>
                            <div style=""width:240px; margin: auto;"">
                                <img src=""images/map26_berlin_scaleRev_orientDef_000.png"" style= ""width:200px""alt=""img"">
                            </div>
                        </div>","-86","","0","","","","images/map26_berlin_scaleRev_orientDef_000.png","disgust","1","26","26","berlin","orientDef","scaleRev","000","",""
"","","","","","html-slider-response","129","465673","0.0-125.0","h29tezmn1n","73","NaN","<div style=""width:500px;"">
                            <p style=""font-size:50px; font-weight:bold;""
                            >disgust</p>
                            <div style=""width:240px; margin: auto;"">
                                <img src=""images/map05_Blues_scaleRev_orientDef_000.png"" style= ""width:200px""alt=""img"">
                            </div>
                        </div>","-140","","0","","","","images/map05_Blues_scaleRev_orientDef_000.png","disgust","1","05","05","Blues","orientDef","scaleRev","000","",""
"","","","","","html-slider-response","130","466974","0.0-126.0","h29tezmn1n","73","NaN","<div style=""width:500px;"">
                            <p style=""font-size:50px; font-weight:bold;""
                            >disgust</p>
                            <div style=""width:240px; margin: auto;"">
                                <img src=""images/map10_GnBu_scaleDef_orientDef_270.png"" style= ""width:200px""alt=""img"">
                            </div>
                        </div>","-110","","0","","","","images/map10_GnBu_scaleDef_orientDef_270.png","disgust","1","10","10","GnBu","orientDef","scaleDef","270","",""
"","","","","","html-slider-response","131","468257","0.0-127.0","h29tezmn1n","73","NaN","<div style=""width:500px;"">
                            <p style=""font-size:50px; font-weight:bold;""
                            >disgust</p>
                            <div style=""width:240px; margin: auto;"">
                                <img src=""images/map12_PuBuGn_scaleDef_orientDef_090.png"" style= ""width:200px""alt=""img"">
                            </div>
                        </div>","-110","","0","","","","images/map12_PuBuGn_scaleDef_orientDef_090.png","disgust","1","12","12","PuBuGn","orientDef","scaleDef","090","",""
"","","","","","html-slider-response","132","469856","0.0-128.0","h29tezmn1n","73","NaN","<div style=""width:500px;"">
                            <p style=""font-size:50px; font-weight:bold;""
                            >disgust</p>
                            <div style=""width:240px; margin: auto;"">
                                <img src=""images/map05_Reds_scaleRev_orientMir_180.png"" style= ""width:200px""alt=""img"">
                            </div>
                        </div>","-164","","0","","","","images/map05_Reds_scaleRev_orientMir_180.png","disgust","1","05","05","Reds","orientMir","scaleRev","180","",""
"","","","","","html-slider-response","133","471490","0.0-129.0","h29tezmn1n","73","NaN","<div style=""width:500px;"">
                            <p style=""font-size:50px; font-weight:bold;""
                            >disgust</p>
                            <div style=""width:240px; margin: auto;"">
                                <img src=""images/map12_YlGn_scaleDef_orientMir_090.png"" style= ""width:200px""alt=""img"">
                            </div>
                        </div>","178","","0","","","","images/map12_YlGn_scaleDef_orientMir_090.png","disgust","1","12","12","YlGn","orientMir","scaleDef","090","",""
"","","","","","html-slider-response","134","473240","0.0-130.0","h29tezmn1n","73","NaN","<div style=""width:500px;"">
                            <p style=""font-size:50px; font-weight:bold;""
                            >disgust</p>
                            <div style=""width:240px; margin: auto;"">
                                <img src=""images/map13_PRGn_scaleDef_orientDef_090.png"" style= ""width:200px""alt=""img"">
                            </div>
                        </div>","-114","","0","","","","images/map13_PRGn_scaleDef_orientDef_090.png","disgust","1","13","13","PRGn","orientDef","scaleDef","090","",""
"","","","","","html-slider-response","135","477240","0.0-131.0","h29tezmn1n","73","NaN","<div style=""width:500px;"">
                            <p style=""font-size:50px; font-weight:bold;""
                            >disgust</p>
                            <div style=""width:240px; margin: auto;"">
                                <img src=""images/map15_RdYlGn_scaleRev_orientMir_180.png"" style= ""width:200px""alt=""img"">
                            </div>
                        </div>","70","","0","","","","images/map15_RdYlGn_scaleRev_orientMir_180.png","disgust","1","15","15","RdYlGn","orientMir","scaleRev","180","",""
"","","","","","html-slider-response","136","479090","0.0-132.0","h29tezmn1n","73","NaN","<div style=""width:500px;"">
                            <p style=""font-size:50px; font-weight:bold;""
                            >disgust</p>
                            <div style=""width:240px; margin: auto;"">
                                <img src=""images/map05_Oranges_scaleRev_orientMir_000.png"" style= ""width:200px""alt=""img"">
                            </div>
                        </div>","-173","","0","","","","images/map05_Oranges_scaleRev_orientMir_000.png","disgust","1","05","05","Oranges","orientMir","scaleRev","000","",""
"","","","","","html-slider-response","137","484906","0.0-133.0","h29tezmn1n","73","NaN","<div style=""width:500px;"">
                            <p style=""font-size:50px; font-weight:bold;""
                            >disgust</p>
                            <div style=""width:240px; margin: auto;"">
                                <img src=""images/map13_BrBG_scaleRev_orientMir_000.png"" style= ""width:200px""alt=""img"">
                            </div>
                        </div>","3","","0","","","","images/map13_BrBG_scaleRev_orientMir_000.png","disgust","1","13","13","BrBG","orientMir","scaleRev","000","",""
"","","","","","html-slider-response","138","486707","0.0-134.0","h29tezmn1n","73","NaN","<div style=""width:500px;"">
                            <p style=""font-size:50px; font-weight:bold;""
                            >disgust</p>
                            <div style=""width:240px; margin: auto;"">
                                <img src=""images/map07_PuRd_scaleDef_orientMir_090.png"" style= ""width:200px""alt=""img"">
                            </div>
                        </div>","-121","","0","","","","images/map07_PuRd_scaleDef_orientMir_090.png","disgust","1","07","07","PuRd","orientMir","scaleDef","090","",""
"","","","","","html-slider-response","139","489206","0.0-135.0","h29tezmn1n","73","NaN","<div style=""width:500px;"">
                            <p style=""font-size:50px; font-weight:bold;""
                            >disgust</p>
                            <div style=""width:240px; margin: auto;"">
                                <img src=""images/map02_cividis_scaleDef_orientDef_090.png"" style= ""width:200px""alt=""img"">
                            </div>
                        </div>","26","","0","","","","images/map02_cividis_scaleDef_orientDef_090.png","disgust","1","02","02","cividis","orientDef","scaleDef","090","",""
"","","","","","html-slider-response","140","491939","0.0-136.0","h29tezmn1n","73","NaN","<div style=""width:500px;"">
                            <p style=""font-size:50px; font-weight:bold;""
                            >disgust</p>
                            <div style=""width:240px; margin: auto;"">
                                <img src=""images/map26_vanimo_scaleDef_orientDef_270.png"" style= ""width:200px""alt=""img"">
                            </div>
                        </div>","182","","0","","","","images/map26_vanimo_scaleDef_orientDef_270.png","disgust","1","26","26","vanimo","orientDef","scaleDef","270","",""
"","","","","","html-button-response","141","493527","0.0-137.0","h29tezmn1n","73","1086","<p>You are doing great!<br></br> You are halway done with the current block. When you are ready to continue, click the 'Continue' button.</p>","0","","","","","","","","","","","","","","","",""
"","","","","","html-slider-response","142","495757","0.0-138.0","h29tezmn1n","73","NaN","<div style=""width:500px;"">
                            <p style=""font-size:50px; font-weight:bold;""
                            >disgust</p>
                            <div style=""width:240px; margin: auto;"">
                                <img src=""images/map23_bwr_scaleDef_orientDef_270.png"" style= ""width:200px""alt=""img"">
                            </div>
                        </div>","-138","","0","","","","images/map23_bwr_scaleDef_orientDef_270.png","disgust","1","23","23","bwr","orientDef","scaleDef","270","",""
"","","","","","html-slider-response","143","497772","0.0-139.0","h29tezmn1n","73","NaN","<div style=""width:500px;"">
                            <p style=""font-size:50px; font-weight:bold;""
                            >disgust</p>
                            <div style=""width:240px; margin: auto;"">
                                <img src=""images/map07_YlOrRd_scaleRev_orientDef_180.png"" style= ""width:200px""alt=""img"">
                            </div>
                        </div>","-174","","0","","","","images/map07_YlOrRd_scaleRev_orientDef_180.png","disgust","1","07","07","YlOrRd","orientDef","scaleRev","180","",""
"","","","","","html-slider-response","144","499289","0.0-140.0","h29tezmn1n","73","NaN","<div style=""width:500px;"">
                            <p style=""font-size:50px; font-weight:bold;""
                            >disgust</p>
                            <div style=""width:240px; margin: auto;"">
                                <img src=""images/map02_magma_scaleRev_orientDef_000.png"" style= ""width:200px""alt=""img"">
                            </div>
                        </div>","-128","","0","","","","images/map02_magma_scaleRev_orientDef_000.png","disgust","1","02","02","magma","orientDef","scaleRev","000","",""
"","","","","","html-slider-response","145","500706","0.0-141.0","h29tezmn1n","73","NaN","<div style=""width:500px;"">
                            <p style=""font-size:50px; font-weight:bold;""
                            >disgust</p>
                            <div style=""width:240px; margin: auto;"">
                                <img src=""images/map27_inferno_scaleDef_orientMir_090.png"" style= ""width:200px""alt=""img"">
                            </div>
                        </div>","-164","","0","","","","images/map27_inferno_scaleDef_orientMir_090.png","disgust","1","27","27","inferno","orientMir","scaleDef","090","",""
"","","","","","html-slider-response","146","502923","0.0-142.0","h29tezmn1n","73","NaN","<div style=""width:500px;"">
                            <p style=""font-size:50px; font-weight:bold;""
                            >disgust</p>
                            <div style=""width:240px; margin: auto;"">
                                <img src=""images/map10_GnBu_scaleRev_orientMir_000.png"" style= ""width:200px""alt=""img"">
                            </div>
                        </div>","41","","0","","","","images/map10_GnBu_scaleRev_orientMir_000.png","disgust","1","10","10","GnBu","orientMir","scaleRev","000","",""
"","","","","","html-slider-response","147","504340","0.0-143.0","h29tezmn1n","73","NaN","<div style=""width:500px;"">
                            <p style=""font-size:50px; font-weight:bold;""
                            >disgust</p>
                            <div style=""width:240px; margin: auto;"">
                                <img src=""images/map05_Greens_scaleDef_orientDef_090.png"" style= ""width:200px""alt=""img"">
                            </div>
                        </div>","197","","0","","","","images/map05_Greens_scaleDef_orientDef_090.png","disgust","1","05","05","Greens","orientDef","scaleDef","090","",""
"","","","","","html-slider-response","148","505823","0.0-144.0","h29tezmn1n","73","NaN","<div style=""width:500px;"">
                            <p style=""font-size:50px; font-weight:bold;""
                            >disgust</p>
                            <div style=""width:240px; margin: auto;"">
                                <img src=""images/map27_viridis_scaleRev_orientDef_180.png"" style= ""width:200px""alt=""img"">
                            </div>
                        </div>","110","","0","","","","images/map27_viridis_scaleRev_orientDef_180.png","disgust","1","27","27","viridis","orientDef","scaleRev","180","",""
"","","","","","html-slider-response","149","507323","0.0-145.0","h29tezmn1n","73","NaN","<div style=""width:500px;"">
                            <p style=""font-size:50px; font-weight:bold;""
                            >disgust</p>
                            <div style=""width:240px; margin: auto;"">
                                <img src=""images/map26_turbo_scaleDef_orientMir_270.png"" style= ""width:200px""alt=""img"">
                            </div>
                        </div>","-36","","0","","","","images/map26_turbo_scaleDef_orientMir_270.png","disgust","1","26","26","turbo","orientMir","scaleDef","270","",""
"","","","","","html-slider-response","150","508806","0.0-146.0","h29tezmn1n","73","NaN","<div style=""width:500px;"">
                            <p style=""font-size:50px; font-weight:bold;""
                            >disgust</p>
                            <div style=""width:240px; margin: auto;"">
                                <img src=""images/map07_RdPu_scaleDef_orientMir_270.png"" style= ""width:200px""alt=""img"">
                            </div>
                        </div>","-118","","0","","","","images/map07_RdPu_scaleDef_orientMir_270.png","disgust","1","07","07","RdPu","orientMir","scaleDef","270","",""
"","","","","","html-slider-response","151","510006","0.0-147.0","h29tezmn1n","73","NaN","<div style=""width:500px;"">
                            <p style=""font-size:50px; font-weight:bold;""
                            >disgust</p>
                            <div style=""width:240px; margin: auto;"">
                                <img src=""images/map23_seismic_scaleRev_orientMir_180.png"" style= ""width:200px""alt=""img"">
                            </div>
                        </div>","-154","","0","","","","images/map23_seismic_scaleRev_orientMir_180.png","disgust","1","23","23","seismic","orientMir","scaleRev","180","",""
"","","","","","html-slider-response","152","511406","0.0-148.0","h29tezmn1n","73","NaN","<div style=""width:500px;"">
                            <p style=""font-size:50px; font-weight:bold;""
                            >disgust</p>
                            <div style=""width:240px; margin: auto;"">
                                <img src=""images/map10_YlGnBu_scaleDef_orientMir_270.png"" style= ""width:200px""alt=""img"">
                            </div>
                        </div>","-127","","0","","","","images/map10_YlGnBu_scaleDef_orientMir_270.png","disgust","1","10","10","YlGnBu","orientMir","scaleDef","270","",""
"","","","","","html-slider-response","153","512556","0.0-149.0","h29tezmn1n","73","NaN","<div style=""width:500px;"">
                            <p style=""font-size:50px; font-weight:bold;""
                            >disgust</p>
                            <div style=""width:240px; margin: auto;"">
                                <img src=""images/map13_PuOr_scaleRev_orientMir_180.png"" style= ""width:200px""alt=""img"">
                            </div>
                        </div>","-107","","0","","","","images/map13_PuOr_scaleRev_orientMir_180.png","disgust","1","13","13","PuOr","orientMir","scaleRev","180","",""
"","","","","","html-slider-response","154","513739","0.0-150.0","h29tezmn1n","73","NaN","<div style=""width:500px;"">
                            <p style=""font-size:50px; font-weight:bold;""
                            >disgust</p>
                            <div style=""width:240px; margin: auto;"">
                                <img src=""images/map23_berlin_scaleDef_orientMir_270.png"" style= ""width:200px""alt=""img"">
                            </div>
                        </div>","-122","","0","","","","images/map23_berlin_scaleDef_orientMir_270.png","disgust","1","23","23","berlin","orientMir","scaleDef","270","",""
"","","","","","html-slider-response","155","514989","0.0-151.0","h29tezmn1n","73","NaN","<div style=""width:500px;"">
                            <p style=""font-size:50px; font-weight:bold;""
                            >disgust</p>
                            <div style=""width:240px; margin: auto;"">
                                <img src=""images/map02_Purples_scaleRev_orientMir_180.png"" style= ""width:200px""alt=""img"">
                            </div>
                        </div>","-59","","0","","","","images/map02_Purples_scaleRev_orientMir_180.png","disgust","1","02","02","Purples","orientMir","scaleRev","180","",""
"","","","","","html-slider-response","156","516439","0.0-152.0","h29tezmn1n","73","NaN","<div style=""width:500px;"">
                            <p style=""font-size:50px; font-weight:bold;""
                            >disgust</p>
                            <div style=""width:240px; margin: auto;"">
                                <img src=""images/map02_Purples_scaleDef_orientMir_090.png"" style= ""width:200px""alt=""img"">
                            </div>
                        </div>","-146","","0","","","","images/map02_Purples_scaleDef_orientMir_090.png","disgust","1","02","02","Purples","orientMir","scaleDef","090","",""
"","","","","","html-slider-response","157","518222","0.0-153.0","h29tezmn1n","73","NaN","<div style=""width:500px;"">
                            <p style=""font-size:50px; font-weight:bold;""
                            >disgust</p>
                            <div style=""width:240px; margin: auto;"">
                                <img src=""images/map12_BuGn_scaleRev_orientMir_000.png"" style= ""width:200px""alt=""img"">
                            </div>
