"success","timeout","failed_images","failed_audio","failed_video","trial_type","trial_index","time_elapsed","internal_node_id","subject_id","condition_num","rt","stimulus","response","question_order","slider_start","practiceTrial","practiceTrialNum","correct","image_path","concept","repetition","map_id","map_num","scale_name","orientation_code","mapping_code","rotation_code","ishihara_plate","correct_response"
"true","false","[]","[]","[]","preload","0","1062","0.0-0.0","j2aacve0oe","77","","","","","","","","","","","","","","","","","","",""
"","","","","","html-button-response","1","7221760","0.0-1.0","j2aacve0oe","77","5655730","Welcome to our experiment!<p>At the bottom of this screen, you will see a button that says ""Begin Experiment"".<br>Please only click that button when you are ready to complete the 30 minute experiment in one sitting.</p><p> Once you click that button, it will not be possible to restart the experiment.","0","","","","","","","","","","","","","","","",""
"true","","","","","fullscreen","2","7224659","0.0-2.0","j2aacve0oe","77","1893","","","","","","","","","","","","","","","","","",""
"","","","","","survey-multi-select","3","7237459","0.0-3.0","j2aacve0oe","77","12793","","{""Consent"":[""<strong>I consent</strong>""]}","[0]","","","","","","","","","","","","","","",""
"","","","","","html-button-response","4","7240823","0.0-4.0","j2aacve0oe","77","3362","Welcome! <p> This experiment involves two parts: demographic information, followed by the experimental task.<p> It will take about 30 minutes to complete both parts.","0","","","","","","","","","","","","","","","",""
"","","","","","survey-text","5","7250206","0.0-5.0","j2aacve0oe","77","9370","","{""Age"":""19"",""Gender"":""female"",""Race/ethnicity"":""white"",""Languages"":""english""}","","","","","","","","","","","","","","","",""
"","","","","","html-slider-response","6","7298055","0.0-6.0","j2aacve0oe","77","47847","<div style='text-align:left; font-size:20px; line-height:25px; width: 1000px;'>
                                During this experiment you will be asked to rate how much you associate maps with                    different concepts.<br> Below, you can see some examples of the maps you will be asked to rate. Above the maps
                    is the list of concepts.<br>You will be asked                    to rate how much you associate each map with each concept on a scale from 'not at all' to 'very much' like the
                    one below. <br><br>
                    Now, please look at the list of concepts and maps. For each concept, think about the map you associate 'very
                    much' with the concept.<br>                     When you see that map during the experiment, please rate it near the 'very much' endpoint of the
                    scale.<br>Now, please think about which map you associate 'not at all'                     with each concept. When you see that map during the experiment, please rate it near the 'not at all' endpoint
                    of the scale.<br>
                    Please use the full range of the scale. That is, if a map is somewhat associated with the concept, you would
                    click partway between the middle point and right side of the scale.                    You will be asked to rate each map for a given concept before moving on to the next concept.<br>Press the
                    'Continue' button for instructions on how to use the slider.                    <br>
                </div>

                <div style=""width: 500px; margin: 0 auto;"">
                    <!-- Centered text paragraphs -->
                    <div style=""text-align: center; width: 500px;"">
                        <p style=""font-size:25px; line-height:15px;"">
                            sad&nbsp;&nbsp;&nbsp;&nbsp;
                            fearful&nbsp;&nbsp;&nbsp;&nbsp;
                            disgust&nbsp;&nbsp;&nbsp;&nbsp;
                            happy&nbsp;&nbsp;&nbsp;&nbsp;
                            angry
                        </p>
                        <!-- <p style=""font-size:20px; line-height:15px;"">fearful</p>
                        <p style=""font-size:20px;line-height:15px;"">disgust</p>
                        <p style=""font-size:20px;line-height:15px;"">happy</p>
                        <p style=""font-size:20px;line-height:15px;"">angry</p> -->
                    </div>
            

                    <!-- Grid section -->
                   <div style=""display: flex; justify-content: center; padding-top: 15px;"">
                    <div style=""display: grid; grid-template-columns: repeat(10, 55px); grid-gap: 5px; width: auto;"">
                        <img src=""images/map27_gist_earth_scaleDef_orientDef_090.png"" alt=""map"" style=""width: 100%;""><img src=""images/map15_PuOr_scaleDef_orientDef_090.png"" alt=""map"" style=""width: 100%;""><img src=""images/map23_Spectral_scaleDef_orientDef_270.png"" alt=""map"" style=""width: 100%;""><img src=""images/map15_BrBG_scaleRev_orientDef_000.png"" alt=""map"" style=""width: 100%;""><img src=""images/map27_turbo_scaleRev_orientMir_000.png"" alt=""map"" style=""width: 100%;""><img src=""images/map07_YlOrRd_scaleRev_orientMir_180.png"" alt=""map"" style=""width: 100%;""><img src=""images/map26_managua_scaleRev_orientMir_180.png"" alt=""map"" style=""width: 100%;""><img src=""images/map05_Purples_scaleDef_orientDef_090.png"" alt=""map"" style=""width: 100%;""><img src=""images/map07_Reds_scaleDef_orientDef_090.png"" alt=""map"" style=""width: 100%;""><img src=""images/map23_coolwarm_scaleRev_orientMir_180.png"" alt=""map"" style=""width: 100%;""><img src=""images/map12_PuBu_scaleRev_orientDef_180.png"" alt=""map"" style=""width: 100%;""><img src=""images/map07_OrRd_scaleDef_orientMir_270.png"" alt=""map"" style=""width: 100%;""><img src=""images/map23_RdYlGn_scaleDef_orientDef_090.png"" alt=""map"" style=""width: 100%;""><img src=""images/map26_seismic_scaleRev_orientDef_180.png"" alt=""map"" style=""width: 100%;""><img src=""images/map05_Greens_scaleDef_orientMir_090.png"" alt=""map"" style=""width: 100%;""><img src=""images/map26_berlin_scaleDef_orientDef_270.png"" alt=""map"" style=""width: 100%;""><img src=""images/map02_Greys_scaleDef_orientMir_270.png"" alt=""map"" style=""width: 100%;""><img src=""images/map15_RdBu_scaleRev_orientMir_180.png"" alt=""map"" style=""width: 100%;""><img src=""images/map26_vanimo_scaleDef_orientMir_270.png"" alt=""map"" style=""width: 100%;""><img src=""images/map15_RdYlBu_scaleDef_orientMir_270.png"" alt=""map"" style=""width: 100%;""><img src=""images/map07_Oranges_scaleRev_orientDef_000.png"" alt=""map"" style=""width: 100%;""><img src=""images/map13_PRGn_scaleDef_orientMir_090.png"" alt=""map"" style=""width: 100%;""><img src=""images/map10_BuPu_scaleDef_orientMir_090.png"" alt=""map"" style=""width: 100%;""><img src=""images/map02_cividis_scaleRev_orientMir_180.png"" alt=""map"" style=""width: 100%;""><img src=""images/map10_RdPu_scaleDef_orientDef_270.png"" alt=""map"" style=""width: 100%;""><img src=""images/map05_Blues_scaleRev_orientMir_000.png"" alt=""map"" style=""width: 100%;""><img src=""images/map15_RdGy_scaleDef_orientDef_270.png"" alt=""map"" style=""width: 100%;""><img src=""images/map27_viridis_scaleRev_orientMir_180.png"" alt=""map"" style=""width: 100%;""><img src=""images/map12_YlGnBu_scaleRev_orientMir_000.png"" alt=""map"" style=""width: 100%;""><img src=""images/map02_plasma_scaleRev_orientDef_000.png"" alt=""map"" style=""width: 100%;""><img src=""images/map02_inferno_scaleRev_orientDef_180.png"" alt=""map"" style=""width: 100%;""><img src=""images/map13_PiYG_scaleRev_orientMir_000.png"" alt=""map"" style=""width: 100%;""><img src=""images/map12_PuBuGn_scaleDef_orientMir_090.png"" alt=""map"" style=""width: 100%;""><img src=""images/map02_magma_scaleRev_orientMir_000.png"" alt=""map"" style=""width: 100%;""><img src=""images/map26_bwr_scaleRev_orientDef_000.png"" alt=""map"" style=""width: 100%;""><img src=""images/map13_YlGn_scaleRev_orientDef_180.png"" alt=""map"" style=""width: 100%;""><img src=""images/map12_GnBu_scaleRev_orientDef_000.png"" alt=""map"" style=""width: 100%;""><img src=""images/map12_BuGn_scaleDef_orientMir_270.png"" alt=""map"" style=""width: 100%;""><img src=""images/map07_YlOrBr_scaleRev_orientMir_000.png"" alt=""map"" style=""width: 100%;""><img src=""images/map10_PuRd_scaleRev_orientDef_180.png"" alt=""map"" style=""width: 100%;"">
                    </div>
                </div>

                    <!-- Clear floats -->
                    <div style=""clear: both;""></div>
                </div>
                            ","2","","0","true","","","","","","","","","","","","",""
"","","","","","html-button-response","7","7307305","0.0-7.0","j2aacve0oe","77","9249","<div style=""width:800px;""><p style=""text-align:left"">To move the slider, click and drag your cursor to the location of the scale where you would like to make your rating and then let go. When you let go of the slider, your response will be recorded and the next trial will begin. <br>
                    We are interested in your initial impressions of each map for the given concept, so please go with your first intuition. <br>
                    Before you begin the experiment, there will be four training trials for you to practice using the scale. <br>
                     When you are ready to start the training trials, please click ""Continue"".</p><br></div>","0","","","","","","","","","","","","","","","",""
"","","","","","html-slider-response","8","7310867","0.0-8.0-0.0","j2aacve0oe","77","NaN","<div style=""width:500px;"">
                                    <p style=""font-size:25px;"">Please move the slider all the way to the <br> right endpoint of the scale</p>

                                    </div>
                                </div>","200","","0","true","0","true","","","","","","","","","","",""
"","","","","","html-button-response","9","7312538","0.0-8.0-1.0","j2aacve0oe","77","1167","<p align='center'><b>Good job!</b> Click on 'Continue' to proceed.</p>","0","","","","","","","","","","","","","","","",""
"","","","","","html-slider-response","10","7314335","0.0-9.0-0.0","j2aacve0oe","77","NaN","<div style=""width:500px;"">
                                    <p style=""font-size:25px;"">Please move the slider all the way to the <br> left endpoint of the scale</p>

                                    </div>
                                </div>","-200","","0","true","1","true","","","","","","","","","","",""
"","","","","","html-button-response","11","7315522","0.0-9.0-1.0","j2aacve0oe","77","686","<p align='center'><b>Good job!</b> Click on 'Continue' to proceed.</p>","0","","","","","","","","","","","","","","","",""
"","","","","","html-slider-response","12","7319650","0.0-10.0-0.0","j2aacve0oe","77","NaN","<div style=""width:500px;"">
                                    <p style=""font-size:25px;"">Please move the slider halfway between the center and right endpoint of the scale</p>

                                    </div>
                                </div>","0","","0","true","2","false","","","","","","","","","","",""
"","","","","","html-button-response","13","7322388","0.0-10.0-1.0","j2aacve0oe","77","2236","<p align='center'><b>Not quite!</b> The slider was not placed near the instructed located. Click on 'Continue' to try again. </p>","0","","","","","","","","","","","","","","","",""
"","","","","","html-slider-response","14","7326883","0.0-10.1-0.1","j2aacve0oe","77","NaN","<div style=""width:500px;"">
                                    <p style=""font-size:25px;"">Please move the slider halfway between the center and right endpoint of the scale</p>

                                    </div>
                                </div>","110","","0","true","2","true","","","","","","","","","","",""
"","","","","","html-button-response","15","7328138","0.0-10.1-1.1","j2aacve0oe","77","752","<p align='center'><b>Good job!</b> Click on 'Continue' to proceed.</p>","0","","","","","","","","","","","","","","","",""
"","","","","","html-slider-response","16","7330867","0.0-11.0-0.0","j2aacve0oe","77","NaN","<div style=""width:500px;"">
                                    <p style=""font-size:25px;"">Please move the slider halfway between the center and left endpoint of the scale</p>

                                    </div>
                                </div>","-112","","0","true","3","false","","","","","","","","","","",""
"","","","","","html-button-response","17","7336421","0.0-11.0-1.0","j2aacve0oe","77","5052","<p align='center'><b>Not quite!</b> The slider was not placed near the instructed located. Click on 'Continue' to try again. </p>","0","","","","","","","","","","","","","","","",""
"","","","","","html-slider-response","18","7341217","0.0-11.1-0.1","j2aacve0oe","77","NaN","<div style=""width:500px;"">
                                    <p style=""font-size:25px;"">Please move the slider halfway between the center and left endpoint of the scale</p>

                                    </div>
                                </div>","-109","","0","true","3","true","","","","","","","","","","",""
"","","","","","html-button-response","19","7342704","0.0-11.1-1.1","j2aacve0oe","77","985","<p align='center'><b>Good job!</b> Click on 'Continue' to proceed.</p>","0","","","","","","","","","","","","","","","",""
"","","","","","html-button-response","20","7343771","0.0-12.0","j2aacve0oe","77","1067","<p>Great job! You've completed the practice trials. Now you will begin the main task.</p>","0","","","","","","","","","","","","","","","",""
"","","","","","html-button-response","21","7346523","0.0-13.0","j2aacve0oe","77","2751","<p>In this block of trials, you will be asked to rate how much you associate each map with:</p > <p style = 'font-size:150%; font-weight: bold'>sad</p><br></br>","0","","","","","","","","","","","","","","","",""
"","","","","","html-slider-response","22","7350433","0.0-14.0","j2aacve0oe","77","NaN","<div style=""width:500px;"">
                            <p style=""font-size:50px; font-weight:bold;""
                            >sad</p>
                            <div style=""width:240px; margin: auto;"">
                                <img src=""images/map13_PiYG_scaleRev_orientMir_000.png"" style= ""width:200px""alt=""img"">
                            </div>
                        </div>","-120","","0","","","","images/map13_PiYG_scaleRev_orientMir_000.png","sad","1","13","13","PiYG","orientMir","scaleRev","000","",""
"","","","","","html-slider-response","23","7353501","0.0-15.0","j2aacve0oe","77","NaN","<div style=""width:500px;"">
                            <p style=""font-size:50px; font-weight:bold;""
                            >sad</p>
                            <div style=""width:240px; margin: auto;"">
                                <img src=""images/map07_YlOrRd_scaleRev_orientMir_180.png"" style= ""width:200px""alt=""img"">
                            </div>
                        </div>","-92","","0","","","","images/map07_YlOrRd_scaleRev_orientMir_180.png","sad","1","07","07","YlOrRd","orientMir","scaleRev","180","",""
"","","","","","html-slider-response","24","7356466","0.0-16.0","j2aacve0oe","77","NaN","<div style=""width:500px;"">
                            <p style=""font-size:50px; font-weight:bold;""
                            >sad</p>
                            <div style=""width:240px; margin: auto;"">
                                <img src=""images/map07_Oranges_scaleRev_orientDef_000.png"" style= ""width:200px""alt=""img"">
                            </div>
                        </div>","-110","","0","","","","images/map07_Oranges_scaleRev_orientDef_000.png","sad","1","07","07","Oranges","orientDef","scaleRev","000","",""
"","","","","","html-slider-response","25","7359250","0.0-17.0","j2aacve0oe","77","NaN","<div style=""width:500px;"">
                            <p style=""font-size:50px; font-weight:bold;""
                            >sad</p>
                            <div style=""width:240px; margin: auto;"">
                                <img src=""images/map05_Purples_scaleRev_orientDef_180.png"" style= ""width:200px""alt=""img"">
                            </div>
                        </div>","110","","0","","","","images/map05_Purples_scaleRev_orientDef_180.png","sad","1","05","05","Purples","orientDef","scaleRev","180","",""
"","","","","","html-slider-response","26","7362667","0.0-18.0","j2aacve0oe","77","NaN","<div style=""width:500px;"">
                            <p style=""font-size:50px; font-weight:bold;""
                            >sad</p>
                            <div style=""width:240px; margin: auto;"">
                                <img src=""images/map02_Greys_scaleDef_orientMir_270.png"" style= ""width:200px""alt=""img"">
                            </div>
                        </div>","86","","0","","","","images/map02_Greys_scaleDef_orientMir_270.png","sad","1","02","02","Greys","orientMir","scaleDef","270","",""
"","","","","","html-slider-response","27","7366400","0.0-19.0","j2aacve0oe","77","NaN","<div style=""width:500px;"">
                            <p style=""font-size:50px; font-weight:bold;""
                            >sad</p>
                            <div style=""width:240px; margin: auto;"">
                                <img src=""images/map26_managua_scaleDef_orientMir_090.png"" style= ""width:200px""alt=""img"">
                            </div>
                        </div>","14","","0","","","","images/map26_managua_scaleDef_orientMir_090.png","sad","1","26","26","managua","orientMir","scaleDef","090","",""
"","","","","","html-slider-response","28","7369782","0.0-20.0","j2aacve0oe","77","NaN","<div style=""width:500px;"">
                            <p style=""font-size:50px; font-weight:bold;""
                            >sad</p>
                            <div style=""width:240px; margin: auto;"">
                                <img src=""images/map12_PuBu_scaleDef_orientDef_090.png"" style= ""width:200px""alt=""img"">
                            </div>
                        </div>","173","","0","","","","images/map12_PuBu_scaleDef_orientDef_090.png","sad","1","12","12","PuBu","orientDef","scaleDef","090","",""
"","","","","","html-slider-response","29","7373132","0.0-21.0","j2aacve0oe","77","NaN","<div style=""width:500px;"">
                            <p style=""font-size:50px; font-weight:bold;""
                            >sad</p>
                            <div style=""width:240px; margin: auto;"">
                                <img src=""images/map12_PuBuGn_scaleDef_orientMir_090.png"" style= ""width:200px""alt=""img"">
                            </div>
                        </div>","114","","0","","","","images/map12_PuBuGn_scaleDef_orientMir_090.png","sad","1","12","12","PuBuGn","orientMir","scaleDef","090","",""
"","","","","","html-slider-response","30","7375683","0.0-22.0","j2aacve0oe","77","NaN","<div style=""width:500px;"">
                            <p style=""font-size:50px; font-weight:bold;""
                            >sad</p>
                            <div style=""width:240px; margin: auto;"">
                                <img src=""images/map13_YlGn_scaleDef_orientDef_090.png"" style= ""width:200px""alt=""img"">
                            </div>
                        </div>","-62","","0","","","","images/map13_YlGn_scaleDef_orientDef_090.png","sad","1","13","13","YlGn","orientDef","scaleDef","090","",""
"","","","","","html-slider-response","31","7379017","0.0-23.0","j2aacve0oe","77","NaN","<div style=""width:500px;"">
                            <p style=""font-size:50px; font-weight:bold;""
                            >sad</p>
                            <div style=""width:240px; margin: auto;"">
                                <img src=""images/map10_BuPu_scaleRev_orientMir_180.png"" style= ""width:200px""alt=""img"">
                            </div>
                        </div>","20","","0","","","","images/map10_BuPu_scaleRev_orientMir_180.png","sad","1","10","10","BuPu","orientMir","scaleRev","180","",""
"","","","","","html-slider-response","32","7382966","0.0-24.0","j2aacve0oe","77","NaN","<div style=""width:500px;"">
                            <p style=""font-size:50px; font-weight:bold;""
                            >sad</p>
                            <div style=""width:240px; margin: auto;"">
                                <img src=""images/map15_RdGy_scaleDef_orientDef_270.png"" style= ""width:200px""alt=""img"">
                            </div>
                        </div>","10","","0","","","","images/map15_RdGy_scaleDef_orientDef_270.png","sad","1","15","15","RdGy","orientDef","scaleDef","270","",""
"","","","","","html-slider-response","33","7385781","0.0-25.0","j2aacve0oe","77","NaN","<div style=""width:500px;"">
                            <p style=""font-size:50px; font-weight:bold;""
                            >sad</p>
                            <div style=""width:240px; margin: auto;"">
                                <img src=""images/map05_Blues_scaleRev_orientMir_000.png"" style= ""width:200px""alt=""img"">
                            </div>
                        </div>","200","","0","","","","images/map05_Blues_scaleRev_orientMir_000.png","sad","1","05","05","Blues","orientMir","scaleRev","000","",""
"","","","","","html-slider-response","34","7392667","0.0-26.0","j2aacve0oe","77","NaN","<div style=""width:500px;"">
                            <p style=""font-size:50px; font-weight:bold;""
                            >sad</p>
                            <div style=""width:240px; margin: auto;"">
                                <img src=""images/map12_YlGnBu_scaleRev_orientMir_000.png"" style= ""width:200px""alt=""img"">
                            </div>
                        </div>","83","","0","","","","images/map12_YlGnBu_scaleRev_orientMir_000.png","sad","1","12","12","YlGnBu","orientMir","scaleRev","000","",""
"","","","","","html-slider-response","35","7396632","0.0-27.0","j2aacve0oe","77","NaN","<div style=""width:500px;"">
                            <p style=""font-size:50px; font-weight:bold;""
                            >sad</p>
                            <div style=""width:240px; margin: auto;"">
                                <img src=""images/map12_GnBu_scaleRev_orientDef_000.png"" style= ""width:200px""alt=""img"">
                            </div>
                        </div>","81","","0","","","","images/map12_GnBu_scaleRev_orientDef_000.png","sad","1","12","12","GnBu","orientDef","scaleRev","000","",""
"","","","","","html-slider-response","36","7398932","0.0-28.0","j2aacve0oe","77","NaN","<div style=""width:500px;"">
                            <p style=""font-size:50px; font-weight:bold;""
                            >sad</p>
                            <div style=""width:240px; margin: auto;"">
                                <img src=""images/map15_RdGy_scaleRev_orientMir_000.png"" style= ""width:200px""alt=""img"">
                            </div>
                        </div>","14","","0","","","","images/map15_RdGy_scaleRev_orientMir_000.png","sad","1","15","15","RdGy","orientMir","scaleRev","000","",""
"","","","","","html-slider-response","37","7401232","0.0-29.0","j2aacve0oe","77","NaN","<div style=""width:500px;"">
                            <p style=""font-size:50px; font-weight:bold;""
                            >sad</p>
                            <div style=""width:240px; margin: auto;"">
                                <img src=""images/map07_OrRd_scaleDef_orientMir_270.png"" style= ""width:200px""alt=""img"">
                            </div>
                        </div>","-76","","0","","","","images/map07_OrRd_scaleDef_orientMir_270.png","sad","1","07","07","OrRd","orientMir","scaleDef","270","",""
"","","","","","html-slider-response","38","7404000","0.0-30.0","j2aacve0oe","77","NaN","<div style=""width:500px;"">
                            <p style=""font-size:50px; font-weight:bold;""
                            >sad</p>
                            <div style=""width:240px; margin: auto;"">
                                <img src=""images/map26_bwr_scaleRev_orientDef_000.png"" style= ""width:200px""alt=""img"">
                            </div>
                        </div>","38","","0","","","","images/map26_bwr_scaleRev_orientDef_000.png","sad","1","26","26","bwr","orientDef","scaleRev","000","",""
"","","","","","html-slider-response","39","7407184","0.0-31.0","j2aacve0oe","77","NaN","<div style=""width:500px;"">
                            <p style=""font-size:50px; font-weight:bold;""
                            >sad</p>
                            <div style=""width:240px; margin: auto;"">
                                <img src=""images/map26_berlin_scaleRev_orientMir_000.png"" style= ""width:200px""alt=""img"">
                            </div>
                        </div>","31","","0","","","","images/map26_berlin_scaleRev_orientMir_000.png","sad","1","26","26","berlin","orientMir","scaleRev","000","",""
"","","","","","html-slider-response","40","7410064","0.0-32.0","j2aacve0oe","77","NaN","<div style=""width:500px;"">
                            <p style=""font-size:50px; font-weight:bold;""
                            >sad</p>
                            <div style=""width:240px; margin: auto;"">
                                <img src=""images/map02_magma_scaleDef_orientDef_270.png"" style= ""width:200px""alt=""img"">
                            </div>
                        </div>","-72","","0","","","","images/map02_magma_scaleDef_orientDef_270.png","sad","1","02","02","magma","orientDef","scaleDef","270","",""
"","","","","","html-slider-response","41","7411965","0.0-33.0","j2aacve0oe","77","NaN","<div style=""width:500px;"">
                            <p style=""font-size:50px; font-weight:bold;""
                            >sad</p>
                            <div style=""width:240px; margin: auto;"">
                                <img src=""images/map02_cividis_scaleRev_orientMir_180.png"" style= ""width:200px""alt=""img"">
                            </div>
                        </div>","22","","0","","","","images/map02_cividis_scaleRev_orientMir_180.png","sad","1","02","02","cividis","orientMir","scaleRev","180","",""
"","","","","","html-slider-response","42","7414482","0.0-34.0","j2aacve0oe","77","NaN","<div style=""width:500px;"">
                            <p style=""font-size:50px; font-weight:bold;""
                            >sad</p>
                            <div style=""width:240px; margin: auto;"">
                                <img src=""images/map23_coolwarm_scaleRev_orientMir_180.png"" style= ""width:200px""alt=""img"">
                            </div>
                        </div>","39","","0","","","","images/map23_coolwarm_scaleRev_orientMir_180.png","sad","1","23","23","coolwarm","orientMir","scaleRev","180","",""
"","","","","","html-slider-response","43","7416497","0.0-35.0","j2aacve0oe","77","NaN","<div style=""width:500px;"">
                            <p style=""font-size:50px; font-weight:bold;""
                            >sad</p>
                            <div style=""width:240px; margin: auto;"">
                                <img src=""images/map15_PuOr_scaleDef_orientDef_090.png"" style= ""width:200px""alt=""img"">
                            </div>
                        </div>","-76","","0","","","","images/map15_PuOr_scaleDef_orientDef_090.png","sad","1","15","15","PuOr","orientDef","scaleDef","090","",""
"","","","","","html-slider-response","44","7418633","0.0-36.0","j2aacve0oe","77","NaN","<div style=""width:500px;"">
                            <p style=""font-size:50px; font-weight:bold;""
                            >sad</p>
                            <div style=""width:240px; margin: auto;"">
                                <img src=""images/map07_YlOrRd_scaleDef_orientMir_090.png"" style= ""width:200px""alt=""img"">
                            </div>
                        </div>","-98","","0","","","","images/map07_YlOrRd_scaleDef_orientMir_090.png","sad","1","07","07","YlOrRd","orientMir","scaleDef","090","",""
"","","","","","html-slider-response","45","7420732","0.0-37.0","j2aacve0oe","77","NaN","<div style=""width:500px;"">
                            <p style=""font-size:50px; font-weight:bold;""
                            >sad</p>
                            <div style=""width:240px; margin: auto;"">
                                <img src=""images/map15_RdBu_scaleRev_orientMir_180.png"" style= ""width:200px""alt=""img"">
                            </div>
                        </div>","24","","0","","","","images/map15_RdBu_scaleRev_orientMir_180.png","sad","1","15","15","RdBu","orientMir","scaleRev","180","",""
"","","","","","html-slider-response","46","7424501","0.0-38.0","j2aacve0oe","77","NaN","<div style=""width:500px;"">
                            <p style=""font-size:50px; font-weight:bold;""
                            >sad</p>
                            <div style=""width:240px; margin: auto;"">
                                <img src=""images/map27_gist_earth_scaleRev_orientDef_180.png"" style= ""width:200px""alt=""img"">
                            </div>
                        </div>","10","","0","","","","images/map27_gist_earth_scaleRev_orientDef_180.png","sad","1","27","27","gist","scaleRev","earth","orientDef","",""
"","","","","","html-slider-response","47","7426933","0.0-39.0","j2aacve0oe","77","NaN","<div style=""width:500px;"">
                            <p style=""font-size:50px; font-weight:bold;""
                            >sad</p>
                            <div style=""width:240px; margin: auto;"">
                                <img src=""images/map23_RdYlGn_scaleDef_orientDef_090.png"" style= ""width:200px""alt=""img"">
                            </div>
                        </div>","-96","","0","","","","images/map23_RdYlGn_scaleDef_orientDef_090.png","sad","1","23","23","RdYlGn","orientDef","scaleDef","090","",""
"","","","","","html-slider-response","48","7432884","0.0-40.0","j2aacve0oe","77","NaN","<div style=""width:500px;"">
                            <p style=""font-size:50px; font-weight:bold;""
                            >sad</p>
                            <div style=""width:240px; margin: auto;"">
                                <img src=""images/map07_YlOrBr_scaleRev_orientMir_000.png"" style= ""width:200px""alt=""img"">
                            </div>
                        </div>","-174","","0","","","","images/map07_YlOrBr_scaleRev_orientMir_000.png","sad","1","07","07","YlOrBr","orientMir","scaleRev","000","",""
"","","","","","html-slider-response","49","7435748","0.0-41.0","j2aacve0oe","77","NaN","<div style=""width:500px;"">
                            <p style=""font-size:50px; font-weight:bold;""
                            >sad</p>
                            <div style=""width:240px; margin: auto;"">
                                <img src=""images/map27_vanimo_scaleRev_orientDef_000.png"" style= ""width:200px""alt=""img"">
                            </div>
                        </div>","-146","","0","","","","images/map27_vanimo_scaleRev_orientDef_000.png","sad","1","27","27","vanimo","orientDef","scaleRev","000","",""
"","","","","","html-slider-response","50","7438064","0.0-42.0","j2aacve0oe","77","NaN","<div style=""width:500px;"">
                            <p style=""font-size:50px; font-weight:bold;""
                            >sad</p>
                            <div style=""width:240px; margin: auto;"">
                                <img src=""images/map05_Blues_scaleDef_orientDef_270.png"" style= ""width:200px""alt=""img"">
                            </div>
                        </div>","94","","0","","","","images/map05_Blues_scaleDef_orientDef_270.png","sad","1","05","05","Blues","orientDef","scaleDef","270","",""
"","","","","","html-slider-response","51","7445981","0.0-43.0","j2aacve0oe","77","NaN","<div style=""width:500px;"">
                            <p style=""font-size:50px; font-weight:bold;""
                            >sad</p>
                            <div style=""width:240px; margin: auto;"">
                                <img src=""images/map02_inferno_scaleRev_orientDef_180.png"" style= ""width:200px""alt=""img"">
                            </div>
                        </div>","-195","","0","","","","images/map02_inferno_scaleRev_orientDef_180.png","sad","1","02","02","inferno","orientDef","scaleRev","180","",""
"","","","","","html-slider-response","52","7448733","0.0-44.0","j2aacve0oe","77","NaN","<div style=""width:500px;"">
                            <p style=""font-size:50px; font-weight:bold;""
                            >sad</p>
                            <div style=""width:240px; margin: auto;"">
                                <img src=""images/map12_BuGn_scaleDef_orientMir_270.png"" style= ""width:200px""alt=""img"">
                            </div>
                        </div>","-89","","0","","","","images/map12_BuGn_scaleDef_orientMir_270.png","sad","1","12","12","BuGn","orientMir","scaleDef","270","",""
"","","","","","html-slider-response","53","7451349","0.0-45.0","j2aacve0oe","77","NaN","<div style=""width:500px;"">
                            <p style=""font-size:50px; font-weight:bold;""
                            >sad</p>
                            <div style=""width:240px; margin: auto;"">
                                <img src=""images/map26_vanimo_scaleDef_orientMir_270.png"" style= ""width:200px""alt=""img"">
                            </div>
                        </div>","-141","","0","","","","images/map26_vanimo_scaleDef_orientMir_270.png","sad","1","26","26","vanimo","orientMir","scaleDef","270","",""
"","","","","","html-slider-response","54","7454083","0.0-46.0","j2aacve0oe","77","NaN","<div style=""width:500px;"">
                            <p style=""font-size:50px; font-weight:bold;""
                            >sad</p>
                            <div style=""width:240px; margin: auto;"">
                                <img src=""images/map10_PuRd_scaleDef_orientDef_090.png"" style= ""width:200px""alt=""img"">
                            </div>
                        </div>","-63","","0","","","","images/map10_PuRd_scaleDef_orientDef_090.png","sad","1","10","10","PuRd","orientDef","scaleDef","090","",""
"","","","","","html-slider-response","55","7457597","0.0-47.0","j2aacve0oe","77","NaN","<div style=""width:500px;"">
                            <p style=""font-size:50px; font-weight:bold;""
                            >sad</p>
                            <div style=""width:240px; margin: auto;"">
                                <img src=""images/map26_seismic_scaleDef_orientDef_090.png"" style= ""width:200px""alt=""img"">
                            </div>
                        </div>","18","","0","","","","images/map26_seismic_scaleDef_orientDef_090.png","sad","1","26","26","seismic","orientDef","scaleDef","090","",""
"","","","","","html-slider-response","56","7460113","0.0-48.0","j2aacve0oe","77","NaN","<div style=""width:500px;"">
                            <p style=""font-size:50px; font-weight:bold;""
                            >sad</p>
                            <div style=""width:240px; margin: auto;"">
                                <img src=""images/map27_viridis_scaleDef_orientMir_090.png"" style= ""width:200px""alt=""img"">
                            </div>
                        </div>","6","","0","","","","images/map27_viridis_scaleDef_orientMir_090.png","sad","1","27","27","viridis","orientMir","scaleDef","090","",""
"","","","","","html-slider-response","57","7462113","0.0-49.0","j2aacve0oe","77","NaN","<div style=""width:500px;"">
                            <p style=""font-size:50px; font-weight:bold;""
                            >sad</p>
                            <div style=""width:240px; margin: auto;"">
                                <img src=""images/map10_OrRd_scaleRev_orientDef_000.png"" style= ""width:200px""alt=""img"">
                            </div>
                        </div>","-55","","0","","","","images/map10_OrRd_scaleRev_orientDef_000.png","sad","1","10","10","OrRd","orientDef","scaleRev","000","",""
"","","","","","html-slider-response","58","7464200","0.0-50.0","j2aacve0oe","77","NaN","<div style=""width:500px;"">
                            <p style=""font-size:50px; font-weight:bold;""
                            >sad</p>
                            <div style=""width:240px; margin: auto;"">
                                <img src=""images/map27_viridis_scaleRev_orientMir_180.png"" style= ""width:200px""alt=""img"">
                            </div>
                        </div>","13","","0","","","","images/map27_viridis_scaleRev_orientMir_180.png","sad","1","27","27","viridis","orientMir","scaleRev","180","",""
"","","","","","html-slider-response","59","7466114","0.0-51.0","j2aacve0oe","77","NaN","<div style=""width:500px;"">
                            <p style=""font-size:50px; font-weight:bold;""
                            >sad</p>
                            <div style=""width:240px; margin: auto;"">
                                <img src=""images/map05_Greens_scaleRev_orientMir_180.png"" style= ""width:200px""alt=""img"">
                            </div>
                        </div>","-61","","0","","","","images/map05_Greens_scaleRev_orientMir_180.png","sad","1","05","05","Greens","orientMir","scaleRev","180","",""
"","","","","","html-slider-response","60","7469233","0.0-52.0","j2aacve0oe","77","NaN","<div style=""width:500px;"">
                            <p style=""font-size:50px; font-weight:bold;""
                            >sad</p>
                            <div style=""width:240px; margin: auto;"">
                                <img src=""images/map02_plasma_scaleRev_orientDef_000.png"" style= ""width:200px""alt=""img"">
                            </div>
                        </div>","-60","","0","","","","images/map02_plasma_scaleRev_orientDef_000.png","sad","1","02","02","plasma","orientDef","scaleRev","000","",""
"","","","","","html-slider-response","61","7476281","0.0-53.0","j2aacve0oe","77","NaN","<div style=""width:500px;"">
                            <p style=""font-size:50px; font-weight:bold;""
                            >sad</p>
                            <div style=""width:240px; margin: auto;"">
                                <img src=""images/map13_BrBG_scaleDef_orientMir_270.png"" style= ""width:200px""alt=""img"">
                            </div>
                        </div>","32","","0","","","","images/map13_BrBG_scaleDef_orientMir_270.png","sad","1","13","13","BrBG","orientMir","scaleDef","270","",""
"","","","","","html-button-response","62","7479536","0.0-54.0","j2aacve0oe","77","2753","<p>You are doing great!<br></br> You are halway done with the current block. When you are ready to continue, click the 'Continue' button.</p>","0","","","","","","","","","","","","","","","",""
"","","","","","html-slider-response","63","7481597","0.0-55.0","j2aacve0oe","77","NaN","<div style=""width:500px;"">
                            <p style=""font-size:50px; font-weight:bold;""
                            >sad</p>
                            <div style=""width:240px; margin: auto;"">
                                <img src=""images/map23_Spectral_scaleDef_orientDef_270.png"" style= ""width:200px""alt=""img"">
                            </div>
                        </div>","26","","0","","","","images/map23_Spectral_scaleDef_orientDef_270.png","sad","1","23","23","Spectral","orientDef","scaleDef","270","",""
"","","","","","html-slider-response","64","7483949","0.0-56.0","j2aacve0oe","77","NaN","<div style=""width:500px;"">
                            <p style=""font-size:50px; font-weight:bold;""
                            >sad</p>
                            <div style=""width:240px; margin: auto;"">
                                <img src=""images/map23_Spectral_scaleRev_orientMir_000.png"" style= ""width:200px""alt=""img"">
                            </div>
                        </div>","-32","","0","","","","images/map23_Spectral_scaleRev_orientMir_000.png","sad","1","23","23","Spectral","orientMir","scaleRev","000","",""
"","","","","","html-slider-response","65","7485946","0.0-57.0","j2aacve0oe","77","NaN","<div style=""width:500px;"">
                            <p style=""font-size:50px; font-weight:bold;""
                            >sad</p>
                            <div style=""width:240px; margin: auto;"">
                                <img src=""images/map26_seismic_scaleRev_orientDef_180.png"" style= ""width:200px""alt=""img"">
                            </div>
                        </div>","23","","0","","","","images/map26_seismic_scaleRev_orientDef_180.png","sad","1","26","26","seismic","orientDef","scaleRev","180","",""
"","","","","","html-slider-response","66","7488047","0.0-58.0","j2aacve0oe","77","NaN","<div style=""width:500px;"">
                            <p style=""font-size:50px; font-weight:bold;""
                            >sad</p>
                            <div style=""width:240px; margin: auto;"">
                                <img src=""images/map13_PRGn_scaleRev_orientMir_180.png"" style= ""width:200px""alt=""img"">
                            </div>
                        </div>","-126","","0","","","","images/map13_PRGn_scaleRev_orientMir_180.png","sad","1","13","13","PRGn","orientMir","scaleRev","180","",""
"","","","","","html-slider-response","67","7491531","0.0-59.0","j2aacve0oe","77","NaN","<div style=""width:500px;"">
                            <p style=""font-size:50px; font-weight:bold;""
                            >sad</p>
                            <div style=""width:240px; margin: auto;"">
                                <img src=""images/map02_magma_scaleRev_orientMir_000.png"" style= ""width:200px""alt=""img"">
                            </div>
                        </div>","-167","","0","","","","images/map02_magma_scaleRev_orientMir_000.png","sad","1","02","02","magma","orientMir","scaleRev","000","",""
"","","","","","html-slider-response","68","7493696","0.0-60.0","j2aacve0oe","77","NaN","<div style=""width:500px;"">
                            <p style=""font-size:50px; font-weight:bold;""
                            >sad</p>
                            <div style=""width:240px; margin: auto;"">
                                <img src=""images/map10_RdPu_scaleDef_orientDef_270.png"" style= ""width:200px""alt=""img"">
                            </div>
                        </div>","-94","","0","","","","images/map10_RdPu_scaleDef_orientDef_270.png","sad","1","10","10","RdPu","orientDef","scaleDef","270","",""
"","","","","","html-slider-response","69","7496630","0.0-61.0","j2aacve0oe","77","NaN","<div style=""width:500px;"">
                            <p style=""font-size:50px; font-weight:bold;""
                            >sad</p>
                            <div style=""width:240px; margin: auto;"">
                                <img src=""images/map10_BuPu_scaleDef_orientMir_090.png"" style= ""width:200px""alt=""img"">
                            </div>
                        </div>","54","","0","","","","images/map10_BuPu_scaleDef_orientMir_090.png","sad","1","10","10","BuPu","orientMir","scaleDef","090","",""
"","","","","","html-slider-response","70","7499014","0.0-62.0","j2aacve0oe","77","NaN","<div style=""width:500px;"">
                            <p style=""font-size:50px; font-weight:bold;""
                            >sad</p>
                            <div style=""width:240px; margin: auto;"">
                                <img src=""images/map13_BuGn_scaleRev_orientDef_000.png"" style= ""width:200px""alt=""img"">
                            </div>
                        </div>","-98","","0","","","","images/map13_BuGn_scaleRev_orientDef_000.png","sad","1","13","13","BuGn","orientDef","scaleRev","000","",""
"","","","","","html-slider-response","71","7502414","0.0-63.0","j2aacve0oe","77","NaN","<div style=""width:500px;"">
                            <p style=""font-size:50px; font-weight:bold;""
                            >sad</p>
                            <div style=""width:240px; margin: auto;"">
                                <img src=""images/map02_inferno_scaleDef_orientDef_090.png"" style= ""width:200px""alt=""img"">
                            </div>
                        </div>","-163","","0","","","","images/map02_inferno_scaleDef_orientDef_090.png","sad","1","02","02","inferno","orientDef","scaleDef","090","",""
"","","","","","html-slider-response","72","7505815","0.0-64.0","j2aacve0oe","77","NaN","<div style=""width:500px;"">
                            <p style=""font-size:50px; font-weight:bold;""
                            >sad</p>
                            <div style=""width:240px; margin: auto;"">
                                <img src=""images/map07_YlOrBr_scaleDef_orientDef_270.png"" style= ""width:200px""alt=""img"">
                            </div>
                        </div>","-185","","0","","","","images/map07_YlOrBr_scaleDef_orientDef_270.png","sad","1","07","07","YlOrBr","orientDef","scaleDef","270","",""
"","","","","","html-slider-response","73","7508729","0.0-65.0","j2aacve0oe","77","NaN","<div style=""width:500px;"">
                            <p style=""font-size:50px; font-weight:bold;""
                            >sad</p>
                            <div style=""width:240px; margin: auto;"">
                                <img src=""images/map23_RdYlBu_scaleRev_orientDef_000.png"" style= ""width:200px""alt=""img"">
                            </div>
                        </div>","-19","","0","","","","images/map23_RdYlBu_scaleRev_orientDef_000.png","sad","1","23","23","RdYlBu","orientDef","scaleRev","000","",""
"","","","","","html-slider-response","74","7511429","0.0-66.0","j2aacve0oe","77","NaN","<div style=""width:500px;"">
                            <p style=""font-size:50px; font-weight:bold;""
                            >sad</p>
                            <div style=""width:240px; margin: auto;"">
                                <img src=""images/map13_PiYG_scaleDef_orientDef_270.png"" style= ""width:200px""alt=""img"">
                            </div>
                        </div>","-177","","0","","","","images/map13_PiYG_scaleDef_orientDef_270.png","sad","1","13","13","PiYG","orientDef","scaleDef","270","",""
"","","","","","html-slider-response","75","7514449","0.0-67.0","j2aacve0oe","77","NaN","<div style=""width:500px;"">
                            <p style=""font-size:50px; font-weight:bold;""
                            >sad</p>
                            <div style=""width:240px; margin: auto;"">
                                <img src=""images/map05_Greys_scaleRev_orientDef_000.png"" style= ""width:200px""alt=""img"">
                            </div>
                        </div>","103","","0","","","","images/map05_Greys_scaleRev_orientDef_000.png","sad","1","05","05","Greys","orientDef","scaleRev","000","",""
"","","","","","html-slider-response","76","7516533","0.0-68.0","j2aacve0oe","77","NaN","<div style=""width:500px;"">
                            <p style=""font-size:50px; font-weight:bold;""
                            >sad</p>
                            <div style=""width:240px; margin: auto;"">
                                <img src=""images/map23_bwr_scaleDef_orientMir_270.png"" style= ""width:200px""alt=""img"">
                            </div>
                        </div>","26","","0","","","","images/map23_bwr_scaleDef_orientMir_270.png","sad","1","23","23","bwr","orientMir","scaleDef","270","",""
"","","","","","html-slider-response","77","7518697","0.0-69.0","j2aacve0oe","77","NaN","<div style=""width:500px;"">
                            <p style=""font-size:50px; font-weight:bold;""
                            >sad</p>
                            <div style=""width:240px; margin: auto;"">
                                <img src=""images/map26_berlin_scaleDef_orientDef_270.png"" style= ""width:200px""alt=""img"">
                            </div>
                        </div>","18","","0","","","","images/map26_berlin_scaleDef_orientDef_270.png","sad","1","26","26","berlin","orientDef","scaleDef","270","",""
"","","","","","html-slider-response","78","7521549","0.0-70.0","j2aacve0oe","77","NaN","<div style=""width:500px;"">
                            <p style=""font-size:50px; font-weight:bold;""
                            >sad</p>
                            <div style=""width:240px; margin: auto;"">
                                <img src=""images/map10_PuRd_scaleRev_orientDef_180.png"" style= ""width:200px""alt=""img"">
                            </div>
                        </div>","-186","","0","","","","images/map10_PuRd_scaleRev_orientDef_180.png","sad","1","10","10","PuRd","orientDef","scaleRev","180","",""
"","","","","","html-slider-response","79","7524048","0.0-71.0","j2aacve0oe","77","NaN","<div style=""width:500px;"">
                            <p style=""font-size:50px; font-weight:bold;""
                            >sad</p>
                            <div style=""width:240px; margin: auto;"">
                                <img src=""images/map12_PuBuGn_scaleRev_orientMir_180.png"" style= ""width:200px""alt=""img"">
                            </div>
                        </div>","85","","0","","","","images/map12_PuBuGn_scaleRev_orientMir_180.png","sad","1","12","12","PuBuGn","orientMir","scaleRev","180","",""
"","","","","","html-slider-response","80","7527197","0.0-72.0","j2aacve0oe","77","NaN","<div style=""width:500px;"">
                            <p style=""font-size:50px; font-weight:bold;""
                            >sad</p>
                            <div style=""width:240px; margin: auto;"">
                                <img src=""images/map07_Reds_scaleDef_orientDef_090.png"" style= ""width:200px""alt=""img"">
                            </div>
                        </div>","-181","","0","","","","images/map07_Reds_scaleDef_orientDef_090.png","sad","1","07","07","Reds","orientDef","scaleDef","090","",""
"","","","","","html-slider-response","81","7530249","0.0-73.0","j2aacve0oe","77","NaN","<div style=""width:500px;"">
                            <p style=""font-size:50px; font-weight:bold;""
                            >sad</p>
                            <div style=""width:240px; margin: auto;"">
                                <img src=""images/map12_PuBu_scaleRev_orientDef_180.png"" style= ""width:200px""alt=""img"">
                            </div>
                        </div>","138","","0","","","","images/map12_PuBu_scaleRev_orientDef_180.png","sad","1","12","12","PuBu","orientDef","scaleRev","180","",""
"","","","","","html-slider-response","82","7532697","0.0-74.0","j2aacve0oe","77","NaN","<div style=""width:500px;"">
                            <p style=""font-size:50px; font-weight:bold;""
                            >sad</p>
                            <div style=""width:240px; margin: auto;"">
                                <img src=""images/map12_YlGnBu_scaleDef_orientDef_270.png"" style= ""width:200px""alt=""img"">
                            </div>
                        </div>","78","","0","","","","images/map12_YlGnBu_scaleDef_orientDef_270.png","sad","1","12","12","YlGnBu","orientDef","scaleDef","270","",""
"","","","","","html-slider-response","83","7534912","0.0-75.0","j2aacve0oe","77","NaN","<div style=""width:500px;"">
                            <p style=""font-size:50px; font-weight:bold;""
                            >sad</p>
                            <div style=""width:240px; margin: auto;"">
                                <img src=""images/map02_cividis_scaleDef_orientMir_090.png"" style= ""width:200px""alt=""img"">
                            </div>
                        </div>","29","","0","","","","images/map02_cividis_scaleDef_orientMir_090.png","sad","1","02","02","cividis","orientMir","scaleDef","090","",""
"","","","","","html-slider-response","84","7537099","0.0-76.0","j2aacve0oe","77","NaN","<div style=""width:500px;"">
                            <p style=""font-size:50px; font-weight:bold;""
                            >sad</p>
                            <div style=""width:240px; margin: auto;"">
                                <img src=""images/map27_plasma_scaleDef_orientMir_270.png"" style= ""width:200px""alt=""img"">
                            </div>
                        </div>","-200","","0","","","","images/map27_plasma_scaleDef_orientMir_270.png","sad","1","27","27","plasma","orientMir","scaleDef","270","",""
"","","","","","html-slider-response","85","7539666","0.0-77.0","j2aacve0oe","77","NaN","<div style=""width:500px;"">
                            <p style=""font-size:50px; font-weight:bold;""
                            >sad</p>
                            <div style=""width:240px; margin: auto;"">
                                <img src=""images/map05_Greens_scaleDef_orientMir_090.png"" style= ""width:200px""alt=""img"">
                            </div>
                        </div>","-170","","0","","","","images/map05_Greens_scaleDef_orientMir_090.png","sad","1","05","05","Greens","orientMir","scaleDef","090","",""
"","","","","","html-slider-response","86","7542414","0.0-78.0","j2aacve0oe","77","NaN","<div style=""width:500px;"">
                            <p style=""font-size:50px; font-weight:bold;""
                            >sad</p>
                            <div style=""width:240px; margin: auto;"">
                                <img src=""images/map13_PRGn_scaleDef_orientMir_090.png"" style= ""width:200px""alt=""img"">
                            </div>
                        </div>","-77","","0","","","","images/map13_PRGn_scaleDef_orientMir_090.png","sad","1","13","13","PRGn","orientMir","scaleDef","090","",""
"","","","","","html-slider-response","87","7545765","0.0-79.0","j2aacve0oe","77","NaN","<div style=""width:500px;"">
                            <p style=""font-size:50px; font-weight:bold;""
                            >sad</p>
                            <div style=""width:240px; margin: auto;"">
                                <img src=""images/map27_turbo_scaleDef_orientDef_270.png"" style= ""width:200px""alt=""img"">
                            </div>
                        </div>","-14","","0","","","","images/map27_turbo_scaleDef_orientDef_270.png","sad","1","27","27","turbo","orientDef","scaleDef","270","",""
"","","","","","html-slider-response","88","7548963","0.0-80.0","j2aacve0oe","77","NaN","<div style=""width:500px;"">
                            <p style=""font-size:50px; font-weight:bold;""
                            >sad</p>
                            <div style=""width:240px; margin: auto;"">
                                <img src=""images/map05_Purples_scaleDef_orientDef_090.png"" style= ""width:200px""alt=""img"">
                            </div>
                        </div>","-12","","0","","","","images/map05_Purples_scaleDef_orientDef_090.png","sad","1","05","05","Purples","orientDef","scaleDef","090","",""
"","","","","","html-slider-response","89","7551663","0.0-81.0","j2aacve0oe","77","NaN","<div style=""width:500px;"">
                            <p style=""font-size:50px; font-weight:bold;""
                            >sad</p>
                            <div style=""width:240px; margin: auto;"">
                                <img src=""images/map10_RdPu_scaleRev_orientMir_000.png"" style= ""width:200px""alt=""img"">
                            </div>
                        </div>","-158","","0","","","","images/map10_RdPu_scaleRev_orientMir_000.png","sad","1","10","10","RdPu","orientMir","scaleRev","000","",""
"","","","","","html-slider-response","90","7554680","0.0-82.0","j2aacve0oe","77","NaN","<div style=""width:500px;"">
                            <p style=""font-size:50px; font-weight:bold;""
                            >sad</p>
                            <div style=""width:240px; margin: auto;"">
                                <img src=""images/map15_RdBu_scaleDef_orientMir_090.png"" style= ""width:200px""alt=""img"">
                            </div>
                        </div>","16","","0","","","","images/map15_RdBu_scaleDef_orientMir_090.png","sad","1","15","15","RdBu","orientMir","scaleDef","090","",""
"","","","","","html-slider-response","91","7557614","0.0-83.0","j2aacve0oe","77","NaN","<div style=""width:500px;"">
                            <p style=""font-size:50px; font-weight:bold;""
                            >sad</p>
                            <div style=""width:240px; margin: auto;"">
                                <img src=""images/map15_PuOr_scaleRev_orientDef_180.png"" style= ""width:200px""alt=""img"">
                            </div>
                        </div>","-193","","0","","","","images/map15_PuOr_scaleRev_orientDef_180.png","sad","1","15","15","PuOr","orientDef","scaleRev","180","",""
"","","","","","html-slider-response","92","7559863","0.0-84.0","j2aacve0oe","77","NaN","<div style=""width:500px;"">
                            <p style=""font-size:50px; font-weight:bold;""
                            >sad</p>
                            <div style=""width:240px; margin: auto;"">
                                <img src=""images/map05_Oranges_scaleDef_orientMir_270.png"" style= ""width:200px""alt=""img"">
                            </div>
                        </div>","-200","","0","","","","images/map05_Oranges_scaleDef_orientMir_270.png","sad","1","05","05","Oranges","orientMir","scaleDef","270","",""
"","","","","","html-slider-response","93","7562813","0.0-85.0","j2aacve0oe","77","NaN","<div style=""width:500px;"">
                            <p style=""font-size:50px; font-weight:bold;""
                            >sad</p>
                            <div style=""width:240px; margin: auto;"">
                                <img src=""images/map15_RdYlBu_scaleDef_orientMir_270.png"" style= ""width:200px""alt=""img"">
                            </div>
                        </div>","18","","0","","","","images/map15_RdYlBu_scaleDef_orientMir_270.png","sad","1","15","15","RdYlBu","orientMir","scaleDef","270","",""
"","","","","","html-slider-response","94","7565997","0.0-86.0","j2aacve0oe","77","NaN","<div style=""width:500px;"">
                            <p style=""font-size:50px; font-weight:bold;""
                            >sad</p>
                            <div style=""width:240px; margin: auto;"">
                                <img src=""images/map23_RdYlGn_scaleRev_orientDef_180.png"" style= ""width:200px""alt=""img"">
                            </div>
                        </div>","-178","","0","","","","images/map23_RdYlGn_scaleRev_orientDef_180.png","sad","1","23","23","RdYlGn","orientDef","scaleRev","180","",""
"","","","","","html-slider-response","95","7573162","0.0-87.0","j2aacve0oe","77","NaN","<div style=""width:500px;"">
                            <p style=""font-size:50px; font-weight:bold;""
                            >sad</p>
                            <div style=""width:240px; margin: auto;"">
                                <img src=""images/map07_Reds_scaleRev_orientDef_180.png"" style= ""width:200px""alt=""img"">
                            </div>
                        </div>","-199","","0","","","","images/map07_Reds_scaleRev_orientDef_180.png","sad","1","07","07","Reds","orientDef","scaleRev","180","",""
"","","","","","html-slider-response","96","7576029","0.0-88.0","j2aacve0oe","77","NaN","<div style=""width:500px;"">
                            <p style=""font-size:50px; font-weight:bold;""
                            >sad</p>
                            <div style=""width:240px; margin: auto;"">
                                <img src=""images/map10_GnBu_scaleDef_orientMir_270.png"" style= ""width:200px""alt=""img"">
                            </div>
                        </div>","115","","0","","","","images/map10_GnBu_scaleDef_orientMir_270.png","sad","1","10","10","GnBu","orientMir","scaleDef","270","",""
"","","","","","html-slider-response","97","7578813","0.0-89.0","j2aacve0oe","77","NaN","<div style=""width:500px;"">
                            <p style=""font-size:50px; font-weight:bold;""
                            >sad</p>
                            <div style=""width:240px; margin: auto;"">
                                <img src=""images/map23_coolwarm_scaleDef_orientMir_090.png"" style= ""width:200px""alt=""img"">
                            </div>
                        </div>","39","","0","","","","images/map23_coolwarm_scaleDef_orientMir_090.png","sad","1","23","23","coolwarm","orientMir","scaleDef","090","",""
"","","","","","html-slider-response","98","7587929","0.0-90.0","j2aacve0oe","77","NaN","<div style=""width:500px;"">
                            <p style=""font-size:50px; font-weight:bold;""
                            >sad</p>
                            <div style=""width:240px; margin: auto;"">
                                <img src=""images/map15_BrBG_scaleRev_orientDef_000.png"" style= ""width:200px""alt=""img"">
                            </div>
                        </div>","25","","0","","","","images/map15_BrBG_scaleRev_orientDef_000.png","sad","1","15","15","BrBG","orientDef","scaleRev","000","",""
"","","","","","html-slider-response","99","7590863","0.0-91.0","j2aacve0oe","77","NaN","<div style=""width:500px;"">
                            <p style=""font-size:50px; font-weight:bold;""
                            >sad</p>
                            <div style=""width:240px; margin: auto;"">
                                <img src=""images/map27_gist_earth_scaleDef_orientDef_090.png"" style= ""width:200px""alt=""img"">
                            </div>
                        </div>","10","","0","","","","images/map27_gist_earth_scaleDef_orientDef_090.png","sad","1","27","27","gist","scaleDef","earth","orientDef","",""
"","","","","","html-slider-response","100","7593961","0.0-92.0","j2aacve0oe","77","NaN","<div style=""width:500px;"">
                            <p style=""font-size:50px; font-weight:bold;""
                            >sad</p>
                            <div style=""width:240px; margin: auto;"">
                                <img src=""images/map13_YlGn_scaleRev_orientDef_180.png"" style= ""width:200px""alt=""img"">
                            </div>
                        </div>","-162","","0","","","","images/map13_YlGn_scaleRev_orientDef_180.png","sad","1","13","13","YlGn","orientDef","scaleRev","180","",""
"","","","","","html-slider-response","101","7596716","0.0-93.0","j2aacve0oe","77","NaN","<div style=""width:500px;"">
                            <p style=""font-size:50px; font-weight:bold;""
                            >sad</p>
                            <div style=""width:240px; margin: auto;"">
                                <img src=""images/map27_turbo_scaleRev_orientMir_000.png"" style= ""width:200px""alt=""img"">
                            </div>
                        </div>","13","","0","","","","images/map27_turbo_scaleRev_orientMir_000.png","sad","1","27","27","turbo","orientMir","scaleRev","000","",""
"","","","","","html-slider-response","102","7599046","0.0-94.0","j2aacve0oe","77","NaN","<div style=""width:500px;"">
                            <p style=""font-size:50px; font-weight:bold;""
                            >sad</p>
                            <div style=""width:240px; margin: auto;"">
                                <img src=""images/map26_managua_scaleRev_orientMir_180.png"" style= ""width:200px""alt=""img"">
                            </div>
                        </div>","16","","0","","","","images/map26_managua_scaleRev_orientMir_180.png","sad","1","26","26","managua","orientMir","scaleRev","180","",""
"","","","","","html-button-response","103","7601617","0.0-95.0","j2aacve0oe","77","2069","<p>Great Job! You've finished block 1.<br></br> You have 4 block(s) left to go.<br></br></p>","0","","","","","","","","","","","","","","","",""
"","","","","","html-button-response","104","7634652","0.0-96.0","j2aacve0oe","77","33034","<p>In this block of trials, you will be asked to rate how much you associate each map with:</p > <p style = 'font-size:150%; font-weight: bold'>fearful</p><br></br>","0","","","","","","","","","","","","","","","",""
"","","","","","html-slider-response","105","7638179","0.0-97.0","j2aacve0oe","77","NaN","<div style=""width:500px;"">
                            <p style=""font-size:50px; font-weight:bold;""
                            >fearful</p>
                            <div style=""width:240px; margin: auto;"">
                                <img src=""images/map10_GnBu_scaleDef_orientMir_270.png"" style= ""width:200px""alt=""img"">
                            </div>
                        </div>","15","","0","","","","images/map10_GnBu_scaleDef_orientMir_270.png","fearful","1","10","10","GnBu","orientMir","scaleDef","270","",""
"","","","","","html-slider-response","106","7640548","0.0-98.0","j2aacve0oe","77","NaN","<div style=""width:500px;"">
                            <p style=""font-size:50px; font-weight:bold;""
                            >fearful</p>
                            <div style=""width:240px; margin: auto;"">
                                <img src=""images/map23_bwr_scaleDef_orientMir_270.png"" style= ""width:200px""alt=""img"">
                            </div>
                        </div>","31","","0","","","","images/map23_bwr_scaleDef_orientMir_270.png","fearful","1","23","23","bwr","orientMir","scaleDef","270","",""
"","","","","","html-slider-response","107","7644477","0.0-99.0","j2aacve0oe","77","NaN","<div style=""width:500px;"">
                            <p style=""font-size:50px; font-weight:bold;""
                            >fearful</p>
                            <div style=""width:240px; margin: auto;"">
                                <img src=""images/map02_magma_scaleRev_orientMir_000.png"" style= ""width:200px""alt=""img"">
                            </div>
                        </div>","157","","0","","","","images/map02_magma_scaleRev_orientMir_000.png","fearful","1","02","02","magma","orientMir","scaleRev","000","",""
"","","","","","html-slider-response","108","7648078","0.0-100.0","j2aacve0oe","77","NaN","<div style=""width:500px;"">
                            <p style=""font-size:50px; font-weight:bold;""
                            >fearful</p>
                            <div style=""width:240px; margin: auto;"">
                                <img src=""images/map26_seismic_scaleRev_orientDef_180.png"" style= ""width:200px""alt=""img"">
                            </div>
                        </div>","50","","0","","","","images/map26_seismic_scaleRev_orientDef_180.png","fearful","1","26","26","seismic","orientDef","scaleRev","180","",""
"","","","","","html-slider-response","109","7653396","0.0-101.0","j2aacve0oe","77","NaN","<div style=""width:500px;"">
                            <p style=""font-size:50px; font-weight:bold;""
                            >fearful</p>
                            <div style=""width:240px; margin: auto;"">
                                <img src=""images/map13_BrBG_scaleDef_orientMir_270.png"" style= ""width:200px""alt=""img"">
                            </div>
                        </div>","196","","0","","","","images/map13_BrBG_scaleDef_orientMir_270.png","fearful","1","13","13","BrBG","orientMir","scaleDef","270","",""
"","","","","","html-slider-response","110","7655928","0.0-102.0","j2aacve0oe","77","NaN","<div style=""width:500px;"">
                            <p style=""font-size:50px; font-weight:bold;""
                            >fearful</p>
                            <div style=""width:240px; margin: auto;"">
                                <img src=""images/map15_RdBu_scaleRev_orientMir_180.png"" style= ""width:200px""alt=""img"">
                            </div>
                        </div>","-20","","0","","","","images/map15_RdBu_scaleRev_orientMir_180.png","fearful","1","15","15","RdBu","orientMir","scaleRev","180","",""
"","","","","","html-slider-response","111","7660795","0.0-103.0","j2aacve0oe","77","NaN","<div style=""width:500px;"">
                            <p style=""font-size:50px; font-weight:bold;""
                            >fearful</p>
                            <div style=""width:240px; margin: auto;"">
                                <img src=""images/map07_Oranges_scaleRev_orientDef_000.png"" style= ""width:200px""alt=""img"">
                            </div>
                        </div>","-200","","0","","","","images/map07_Oranges_scaleRev_orientDef_000.png","fearful","1","07","07","Oranges","orientDef","scaleRev","000","",""
"","","","","","html-slider-response","112","7664147","0.0-104.0","j2aacve0oe","77","NaN","<div style=""width:500px;"">
                            <p style=""font-size:50px; font-weight:bold;""
                            >fearful</p>
                            <div style=""width:240px; margin: auto;"">
                                <img src=""images/map05_Greens_scaleRev_orientMir_180.png"" style= ""width:200px""alt=""img"">
                            </div>
                        </div>","-200","","0","","","","images/map05_Greens_scaleRev_orientMir_180.png","fearful","1","05","05","Greens","orientMir","scaleRev","180","",""
"","","","","","html-slider-response","113","7669430","0.0-105.0","j2aacve0oe","77","NaN","<div style=""width:500px;"">
                            <p style=""font-size:50px; font-weight:bold;""
                            >fearful</p>
                            <div style=""width:240px; margin: auto;"">
                                <img src=""images/map27_turbo_scaleRev_orientMir_000.png"" style= ""width:200px""alt=""img"">
                            </div>
                        </div>","-62","","0","","","","images/map27_turbo_scaleRev_orientMir_000.png","fearful","1","27","27","turbo","orientMir","scaleRev","000","",""
"","","","","","html-slider-response","114","7672178","0.0-106.0","j2aacve0oe","77","NaN","<div style=""width:500px;"">
                            <p style=""font-size:50px; font-weight:bold;""
                            >fearful</p>
                            <div style=""width:240px; margin: auto;"">
                                <img src=""images/map05_Oranges_scaleDef_orientMir_270.png"" style= ""width:200px""alt=""img"">
                            </div>
                        </div>","-198","","0","","","","images/map05_Oranges_scaleDef_orientMir_270.png","fearful","1","05","05","Oranges","orientMir","scaleDef","270","",""
"","","","","","html-slider-response","115","7674961","0.0-107.0","j2aacve0oe","77","NaN","<div style=""width:500px;"">
                            <p style=""font-size:50px; font-weight:bold;""
                            >fearful</p>
                            <div style=""width:240px; margin: auto;"">
                                <img src=""images/map05_Blues_scaleDef_orientDef_270.png"" style= ""width:200px""alt=""img"">
                            </div>
                        </div>","82","","0","","","","images/map05_Blues_scaleDef_orientDef_270.png","fearful","1","05","05","Blues","orientDef","scaleDef","270","",""
"","","","","","html-slider-response","116","7677628","0.0-108.0","j2aacve0oe","77","NaN","<div style=""width:500px;"">
                            <p style=""font-size:50px; font-weight:bold;""
                            >fearful</p>
                            <div style=""width:240px; margin: auto;"">
                                <img src=""images/map12_YlGnBu_scaleRev_orientMir_000.png"" style= ""width:200px""alt=""img"">
                            </div>
                        </div>","114","","0","","","","images/map12_YlGnBu_scaleRev_orientMir_000.png","fearful","1","12","12","YlGnBu","orientMir","scaleRev","000","",""
"","","","","","html-slider-response","117","7681145","0.0-109.0","j2aacve0oe","77","NaN","<div style=""width:500px;"">
                            <p style=""font-size:50px; font-weight:bold;""
                            >fearful</p>
                            <div style=""width:240px; margin: auto;"">
                                <img src=""images/map10_RdPu_scaleDef_orientDef_270.png"" style= ""width:200px""alt=""img"">
                            </div>
                        </div>","160","","0","","","","images/map10_RdPu_scaleDef_orientDef_270.png","fearful","1","10","10","RdPu","orientDef","scaleDef","270","",""
"","","","","","html-slider-response","118","7683578","0.0-110.0","j2aacve0oe","77","NaN","<div style=""width:500px;"">
                            <p style=""font-size:50px; font-weight:bold;""
                            >fearful</p>
                            <div style=""width:240px; margin: auto;"">
                                <img src=""images/map26_bwr_scaleRev_orientDef_000.png"" style= ""width:200px""alt=""img"">
                            </div>
                        </div>","37","","0","","","","images/map26_bwr_scaleRev_orientDef_000.png","fearful","1","26","26","bwr","orientDef","scaleRev","000","",""
"","","","","","html-slider-response","119","7686829","0.0-111.0","j2aacve0oe","77","NaN","<div style=""width:500px;"">
                            <p style=""font-size:50px; font-weight:bold;""
                            >fearful</p>
                            <div style=""width:240px; margin: auto;"">
                                <img src=""images/map02_magma_scaleDef_orientDef_270.png"" style= ""width:200px""alt=""img"">
                            </div>
                        </div>","198","","0","","","","images/map02_magma_scaleDef_orientDef_270.png","fearful","1","02","02","magma","orientDef","scaleDef","270","",""
"","","","","","html-slider-response","120","7689096","0.0-112.0","j2aacve0oe","77","NaN","<div style=""width:500px;"">
                            <p style=""font-size:50px; font-weight:bold;""
                            >fearful</p>
                            <div style=""width:240px; margin: auto;"">
                                <img src=""images/map12_GnBu_scaleRev_orientDef_000.png"" style= ""width:200px""alt=""img"">
                            </div>
                        </div>","72","","0","","","","images/map12_GnBu_scaleRev_orientDef_000.png","fearful","1","12","12","GnBu","orientDef","scaleRev","000","",""
"","","","","","html-slider-response","121","7691910","0.0-113.0","j2aacve0oe","77","NaN","<div style=""width:500px;"">
                            <p style=""font-size:50px; font-weight:bold;""
                            >fearful</p>
                            <div style=""width:240px; margin: auto;"">
                                <img src=""images/map12_PuBuGn_scaleRev_orientMir_180.png"" style= ""width:200px""alt=""img"">
                            </div>
                        </div>","64","","0","","","","images/map12_PuBuGn_scaleRev_orientMir_180.png","fearful","1","12","12","PuBuGn","orientMir","scaleRev","180","",""
"","","","","","html-slider-response","122","7694078","0.0-114.0","j2aacve0oe","77","NaN","<div style=""width:500px;"">
                            <p style=""font-size:50px; font-weight:bold;""
                            >fearful</p>
                            <div style=""width:240px; margin: auto;"">
                                <img src=""images/map12_PuBuGn_scaleDef_orientMir_090.png"" style= ""width:200px""alt=""img"">
                            </div>
                        </div>","66","","0","","","","images/map12_PuBuGn_scaleDef_orientMir_090.png","fearful","1","12","12","PuBuGn","orientMir","scaleDef","090","",""
"","","","","","html-slider-response","123","7697243","0.0-115.0","j2aacve0oe","77","NaN","<div style=""width:500px;"">
                            <p style=""font-size:50px; font-weight:bold;""
                            >fearful</p>
                            <div style=""width:240px; margin: auto;"">
                                <img src=""images/map02_inferno_scaleRev_orientDef_180.png"" style= ""width:200px""alt=""img"">
                            </div>
                        </div>","188","","0","","","","images/map02_inferno_scaleRev_orientDef_180.png","fearful","1","02","02","inferno","orientDef","scaleRev","180","",""
"","","","","","html-slider-response","124","7700177","0.0-116.0","j2aacve0oe","77","NaN","<div style=""width:500px;"">
                            <p style=""font-size:50px; font-weight:bold;""
                            >fearful</p>
                            <div style=""width:240px; margin: auto;"">
                                <img src=""images/map02_plasma_scaleRev_orientDef_000.png"" style= ""width:200px""alt=""img"">
                            </div>
                        </div>","200","","0","","","","images/map02_plasma_scaleRev_orientDef_000.png","fearful","1","02","02","plasma","orientDef","scaleRev","000","",""
"","","","","","html-slider-response","125","7702430","0.0-117.0","j2aacve0oe","77","NaN","<div style=""width:500px;"">
                            <p style=""font-size:50px; font-weight:bold;""
                            >fearful</p>
                            <div style=""width:240px; margin: auto;"">
                                <img src=""images/map15_RdBu_scaleDef_orientMir_090.png"" style= ""width:200px""alt=""img"">
                            </div>
                        </div>","11","","0","","","","images/map15_RdBu_scaleDef_orientMir_090.png","fearful","1","15","15","RdBu","orientMir","scaleDef","090","",""
"","","","","","html-slider-response","126","7704926","0.0-118.0","j2aacve0oe","77","NaN","<div style=""width:500px;"">
                            <p style=""font-size:50px; font-weight:bold;""
                            >fearful</p>
                            <div style=""width:240px; margin: auto;"">
                                <img src=""images/map27_turbo_scaleDef_orientDef_270.png"" style= ""width:200px""alt=""img"">
                            </div>
                        </div>","-23","","0","","","","images/map27_turbo_scaleDef_orientDef_270.png","fearful","1","27","27","turbo","orientDef","scaleDef","270","",""
"","","","","","html-slider-response","127","7709693","0.0-119.0","j2aacve0oe","77","NaN","<div style=""width:500px;"">
                            <p style=""font-size:50px; font-weight:bold;""
                            >fearful</p>
                            <div style=""width:240px; margin: auto;"">
                                <img src=""images/map10_PuRd_scaleRev_orientDef_180.png"" style= ""width:200px""alt=""img"">
                            </div>
                        </div>","-30","","0","","","","images/map10_PuRd_scaleRev_orientDef_180.png","fearful","1","10","10","PuRd","orientDef","scaleRev","180","",""
"","","","","","html-slider-response","128","7712093","0.0-120.0","j2aacve0oe","77","NaN","<div style=""width:500px;"">
                            <p style=""font-size:50px; font-weight:bold;""
                            >fearful</p>
                            <div style=""width:240px; margin: auto;"">
                                <img src=""images/map12_YlGnBu_scaleDef_orientDef_270.png"" style= ""width:200px""alt=""img"">
                            </div>
                        </div>","24","","0","","","","images/map12_YlGnBu_scaleDef_orientDef_270.png","fearful","1","12","12","YlGnBu","orientDef","scaleDef","270","",""
"","","","","","html-slider-response","129","7715730","0.0-121.0","j2aacve0oe","77","NaN","<div style=""width:500px;"">
                            <p style=""font-size:50px; font-weight:bold;""
                            >fearful</p>
                            <div style=""width:240px; margin: auto;"">
                                <img src=""images/map02_cividis_scaleDef_orientMir_090.png"" style= ""width:200px""alt=""img"">
                            </div>
                        </div>","200","","0","","","","images/map02_cividis_scaleDef_orientMir_090.png","fearful","1","02","02","cividis","orientMir","scaleDef","090","",""
"","","","","","html-slider-response","130","7718261","0.0-122.0","j2aacve0oe","77","NaN","<div style=""width:500px;"">
                            <p style=""font-size:50px; font-weight:bold;""
                            >fearful</p>
                            <div style=""width:240px; margin: auto;"">
                                <img src=""images/map07_Reds_scaleRev_orientDef_180.png"" style= ""width:200px""alt=""img"">
                            </div>
                        </div>","-200","","0","","","","images/map07_Reds_scaleRev_orientDef_180.png","fearful","1","07","07","Reds","orientDef","scaleRev","180","",""
"","","","","","html-slider-response","131","7722811","0.0-123.0","j2aacve0oe","77","NaN","<div style=""width:500px;"">
                            <p style=""font-size:50px; font-weight:bold;""
                            >fearful</p>
                            <div style=""width:240px; margin: auto;"">
                                <img src=""images/map15_RdGy_scaleRev_orientMir_000.png"" style= ""width:200px""alt=""img"">
                            </div>
                        </div>","-72","","0","","","","images/map15_RdGy_scaleRev_orientMir_000.png","fearful","1","15","15","RdGy","orientMir","scaleRev","000","",""
"","","","","","html-slider-response","132","7726881","0.0-124.0","j2aacve0oe","77","NaN","<div style=""width:500px;"">
                            <p style=""font-size:50px; font-weight:bold;""
                            >fearful</p>
                            <div style=""width:240px; margin: auto;"">
                                <img src=""images/map13_PiYG_scaleDef_orientDef_270.png"" style= ""width:200px""alt=""img"">
                            </div>
                        </div>","168","","0","","","","images/map13_PiYG_scaleDef_orientDef_270.png","fearful","1","13","13","PiYG","orientDef","scaleDef","270","",""
"","","","","","html-slider-response","133","7730276","0.0-125.0","j2aacve0oe","77","NaN","<div style=""width:500px;"">
                            <p style=""font-size:50px; font-weight:bold;""
                            >fearful</p>
                            <div style=""width:240px; margin: auto;"">
                                <img src=""images/map23_RdYlGn_scaleDef_orientDef_090.png"" style= ""width:200px""alt=""img"">
                            </div>
                        </div>","-86","","0","","","","images/map23_RdYlGn_scaleDef_orientDef_090.png","fearful","1","23","23","RdYlGn","orientDef","scaleDef","090","",""
"","","","","","html-slider-response","134","7734248","0.0-126.0","j2aacve0oe","77","NaN","<div style=""width:500px;"">
                            <p style=""font-size:50px; font-weight:bold;""
                            >fearful</p>
                            <div style=""width:240px; margin: auto;"">
                                <img src=""images/map26_managua_scaleRev_orientMir_180.png"" style= ""width:200px""alt=""img"">
                            </div>
                        </div>","175","","0","","","","images/map26_managua_scaleRev_orientMir_180.png","fearful","1","26","26","managua","orientMir","scaleRev","180","",""
"","","","","","html-slider-response","135","7738178","0.0-127.0","j2aacve0oe","77","NaN","<div style=""width:500px;"">
                            <p style=""font-size:50px; font-weight:bold;""
                            >fearful</p>
                            <div style=""width:240px; margin: auto;"">
                                <img src=""images/map27_vanimo_scaleRev_orientDef_000.png"" style= ""width:200px""alt=""img"">
                            </div>
                        </div>","195","","0","","","","images/map27_vanimo_scaleRev_orientDef_000.png","fearful","1","27","27","vanimo","orientDef","scaleRev","000","",""
"","","","","","html-slider-response","136","7742394","0.0-128.0","j2aacve0oe","77","NaN","<div style=""width:500px;"">
                            <p style=""font-size:50px; font-weight:bold;""
                            >fearful</p>
                            <div style=""width:240px; margin: auto;"">
                                <img src=""images/map26_berlin_scaleDef_orientDef_270.png"" style= ""width:200px""alt=""img"">
                            </div>
                        </div>","70","","0","","","","images/map26_berlin_scaleDef_orientDef_270.png","fearful","1","26","26","berlin","orientDef","scaleDef","270","",""
"","","","","","html-slider-response","137","7745410","0.0-129.0","j2aacve0oe","77","NaN","<div style=""width:500px;"">
                            <p style=""font-size:50px; font-weight:bold;""
                            >fearful</p>
                            <div style=""width:240px; margin: auto;"">
                                <img src=""images/map07_YlOrRd_scaleRev_orientMir_180.png"" style= ""width:200px""alt=""img"">
                            </div>
                        </div>","-200","","0","","","","images/map07_YlOrRd_scaleRev_orientMir_180.png","fearful","1","07","07","YlOrRd","orientMir","scaleRev","180","",""
"","","","","","html-slider-response","138","7748559","0.0-130.0","j2aacve0oe","77","NaN","<div style=""width:500px;"">
                            <p style=""font-size:50px; font-weight:bold;""
                            >fearful</p>
                            <div style=""width:240px; margin: auto;"">
                                <img src=""images/map10_RdPu_scaleRev_orientMir_000.png"" style= ""width:200px""alt=""img"">
                            </div>
                        </div>","165","","0","","","","images/map10_RdPu_scaleRev_orientMir_000.png","fearful","1","10","10","RdPu","orientMir","scaleRev","000","",""
"","","","","","html-slider-response","139","7751076","0.0-131.0","j2aacve0oe","77","NaN","<div style=""width:500px;"">
                            <p style=""font-size:50px; font-weight:bold;""
                            >fearful</p>
                            <div style=""width:240px; margin: auto;"">
                                <img src=""images/map15_RdYlBu_scaleDef_orientMir_270.png"" style= ""width:200px""alt=""img"">
                            </div>
                        </div>","22","","0","","","","images/map15_RdYlBu_scaleDef_orientMir_270.png","fearful","1","15","15","RdYlBu","orientMir","scaleDef","270","",""
"","","","","","html-slider-response","140","7754260","0.0-132.0","j2aacve0oe","77","NaN","<div style=""width:500px;"">
                            <p style=""font-size:50px; font-weight:bold;""
                            >fearful</p>
                            <div style=""width:240px; margin: auto;"">
                                <img src=""images/map05_Blues_scaleRev_orientMir_000.png"" style= ""width:200px""alt=""img"">
                            </div>
                        </div>","23","","0","","","","images/map05_Blues_scaleRev_orientMir_000.png","fearful","1","05","05","Blues","orientMir","scaleRev","000","",""
"","","","","","html-slider-response","141","7756659","0.0-133.0","j2aacve0oe","77","NaN","<div style=""width:500px;"">
                            <p style=""font-size:50px; font-weight:bold;""
                            >fearful</p>
                            <div style=""width:240px; margin: auto;"">
                                <img src=""images/map23_Spectral_scaleRev_orientMir_000.png"" style= ""width:200px""alt=""img"">
                            </div>
                        </div>","-57","","0","","","","images/map23_Spectral_scaleRev_orientMir_000.png","fearful","1","23","23","Spectral","orientMir","scaleRev","000","",""
"","","","","","html-slider-response","142","7760810","0.0-134.0","j2aacve0oe","77","NaN","<div style=""width:500px;"">
                            <p style=""font-size:50px; font-weight:bold;""
                            >fearful</p>
                            <div style=""width:240px; margin: auto;"">
                                <img src=""images/map05_Purples_scaleDef_orientDef_090.png"" style= ""width:200px""alt=""img"">
                            </div>
                        </div>","191","","0","","","","images/map05_Purples_scaleDef_orientDef_090.png","fearful","1","05","05","Purples","orientDef","scaleDef","090","",""
"","","","","","html-slider-response","143","7764278","0.0-135.0","j2aacve0oe","77","NaN","<div style=""width:500px;"">
                            <p style=""font-size:50px; font-weight:bold;""
                            >fearful</p>
                            <div style=""width:240px; margin: auto;"">
                                <img src=""images/map02_inferno_scaleDef_orientDef_090.png"" style= ""width:200px""alt=""img"">
                            </div>
                        </div>","142","","0","","","","images/map02_inferno_scaleDef_orientDef_090.png","fearful","1","02","02","inferno","orientDef","scaleDef","090","",""
"","","","","","html-slider-response","144","7769142","0.0-136.0","j2aacve0oe","77","NaN","<div style=""width:500px;"">
                            <p style=""font-size:50px; font-weight:bold;""
                            >fearful</p>
                            <div style=""width:240px; margin: auto;"">
                                <img src=""images/map12_PuBu_scaleDef_orientDef_090.png"" style= ""width:200px""alt=""img"">
                            </div>
                        </div>","97","","0","","","","images/map12_PuBu_scaleDef_orientDef_090.png","fearful","1","12","12","PuBu","orientDef","scaleDef","090","",""
"","","","","","html-button-response","145","7771632","0.0-137.0","j2aacve0oe","77","1987","<p>You are doing great!<br></br> You are halway done with the current block. When you are ready to continue, click the 'Continue' button.</p>","0","","","","","","","","","","","","","","","",""
"","","","","","html-slider-response","146","7775011","0.0-138.0","j2aacve0oe","77","NaN","<div style=""width:500px;"">
                            <p style=""font-size:50px; font-weight:bold;""
                            >fearful</p>
                            <div style=""width:240px; margin: auto;"">
                                <img src=""images/map27_gist_earth_scaleRev_orientDef_180.png"" style= ""width:200px""alt=""img"">
                            </div>
                        </div>","-151","","0","","","","images/map27_gist_earth_scaleRev_orientDef_180.png","fearful","1","27","27","gist","scaleRev","earth","orientDef","",""
"","","","","","html-slider-response","147","7777276","0.0-139.0","j2aacve0oe","77","NaN","<div style=""width:500px;"">
                            <p style=""font-size:50px; font-weight:bold;""
                            >fearful</p>
                            <div style=""width:240px; margin: auto;"">
                                <img src=""images/map05_Purples_scaleRev_orientDef_180.png"" style= ""width:200px""alt=""img"">
                            </div>
                        </div>","122","","0","","","","images/map05_Purples_scaleRev_orientDef_180.png","fearful","1","05","05","Purples","orientDef","scaleRev","180","",""
"","","","","","html-slider-response","148","7780243","0.0-140.0","j2aacve0oe","77","NaN","<div style=""width:500px;"">
                            <p style=""font-size:50px; font-weight:bold;""
                            >fearful</p>
                            <div style=""width:240px; margin: auto;"">
                                <img src=""images/map13_PiYG_scaleRev_orientMir_000.png"" style= ""width:200px""alt=""img"">
                            </div>
                        </div>","176","","0","","","","images/map13_PiYG_scaleRev_orientMir_000.png","fearful","1","13","13","PiYG","orientMir","scaleRev","000","",""
"","","","","","html-slider-response","149","7782527","0.0-141.0","j2aacve0oe","77","NaN","<div style=""width:500px;"">
                            <p style=""font-size:50px; font-weight:bold;""
                            >fearful</p>
                            <div style=""width:240px; margin: auto;"">
                                <img src=""images/map23_Spectral_scaleDef_orientDef_270.png"" style= ""width:200px""alt=""img"">
                            </div>
                        </div>","-26","","0","","","","images/map23_Spectral_scaleDef_orientDef_270.png","fearful","1","23","23","Spectral","orientDef","scaleDef","270","",""
"","","","","","html-slider-response","150","7785243","0.0-142.0","j2aacve0oe","77","NaN","<div style=""width:500px;"">
                            <p style=""font-size:50px; font-weight:bold;""
                            >fearful</p>
                            <div style=""width:240px; margin: auto;"">
                                <img src=""images/map10_BuPu_scaleRev_orientMir_180.png"" style= ""width:200px""alt=""img"">
                            </div>
                        </div>","150","","0","","","","images/map10_BuPu_scaleRev_orientMir_180.png","fearful","1","10","10","BuPu","orientMir","scaleRev","180","",""
"","","","","","html-slider-response","151","7789910","0.0-143.0","j2aacve0oe","77","NaN","<div style=""width:500px;"">
                            <p style=""font-size:50px; font-weight:bold;""
                            >fearful</p>
                            <div style=""width:240px; margin: auto;"">
                                <img src=""images/map10_PuRd_scaleDef_orientDef_090.png"" style= ""width:200px""alt=""img"">
                            </div>
                        </div>","-176","","0","","","","images/map10_PuRd_scaleDef_orientDef_090.png","fearful","1","10","10","PuRd","orientDef","scaleDef","090","",""
"","","","","","html-slider-response","152","7792978","0.0-144.0","j2aacve0oe","77","NaN","<div style=""width:500px;"">
                            <p style=""font-size:50px; font-weight:bold;""
                            >fearful</p>
                            <div style=""width:240px; margin: auto;"">
                                <img src=""images/map13_PRGn_scaleDef_orientMir_090.png"" style= ""width:200px""alt=""img"">
                            </div>
                        </div>","150","","0","","","","images/map13_PRGn_scaleDef_orientMir_090.png","fearful","1","13","13","PRGn","orientMir","scaleDef","090","",""
"","","","","","html-slider-response","153","7795976","0.0-145.0","j2aacve0oe","77","NaN","<div style=""width:500px;"">
                            <p style=""font-size:50px; font-weight:bold;""
                            >fearful</p>
                            <div style=""width:240px; margin: auto;"">
                                <img src=""images/map23_RdYlGn_scaleRev_orientDef_180.png"" style= ""width:200px""alt=""img"">
                            </div>
                        </div>","-44","","0","","","","images/map23_RdYlGn_scaleRev_orientDef_180.png","fearful","1","23","23","RdYlGn","orientDef","scaleRev","180","",""
"","","","","","html-slider-response","154","7800208","0.0-146.0","j2aacve0oe","77","NaN","<div style=""width:500px;"">
                            <p style=""font-size:50px; font-weight:bold;""
                            >fearful</p>
                            <div style=""width:240px; margin: auto;"">
                                <img src=""images/map26_seismic_scaleDef_orientDef_090.png"" style= ""width:200px""alt=""img"">
                            </div>
                        </div>","-39","","0","","","","images/map26_seismic_scaleDef_orientDef_090.png","fearful","1","26","26","seismic","orientDef","scaleDef","090","",""
"","","","","","html-slider-response","155","7803025","0.0-147.0","j2aacve0oe","77","NaN","<div style=""width:500px;"">
                            <p style=""font-size:50px; font-weight:bold;""
                            >fearful</p>
                            <div style=""width:240px; margin: auto;"">
                                <img src=""images/map27_plasma_scaleDef_orientMir_270.png"" style= ""width:200px""alt=""img"">
                            </div>
                        </div>","185","","0","","","","images/map27_plasma_scaleDef_orientMir_270.png","fearful","1","27","27","plasma","orientMir","scaleDef","270","",""
"","","","","","html-slider-response","156","7807809","0.0-148.0","j2aacve0oe","77","NaN","<div style=""width:500px;"">
                            <p style=""font-size:50px; font-weight:bold;""
                            >fearful</p>
                            <div style=""width:240px; margin: auto;"">
                                <img src=""images/map15_BrBG_scaleRev_orientDef_000.png"" style= ""width:200px""alt=""img"">
                            </div>
                        </div>","-12","","0","","","","images/map15_BrBG_scaleRev_orientDef_000.png","fearful","1","15","15","BrBG","orientDef","scaleRev","000","",""
"","","","","","html-slider-response","157","7810695","0.0-149.0","j2aacve0oe","77","NaN","<div style=""width:500px;"">
                            <p style=""font-size:50px; font-weight:bold;""
                            >fearful</p>
                            <div style=""width:240px; margin: auto;"">
                                <img src=""images/map27_gist_earth_scaleDef_orientDef_090.png"" style= ""width:200px""alt=""img"">
                            </div>
                        </div>","-172","","0","","","","images/map27_gist_earth_scaleDef_orientDef_090.png","fearful","1","27","27","gist","scaleDef","earth","orientDef","",""
"","","","","","html-slider-response","158","7812893","0.0-150.0","j2aacve0oe","77","NaN","<div style=""width:500px;"">
                            <p style=""font-size:50px; font-weight:bold;""
                            >fearful</p>
                            <div style=""width:240px; margin: auto;"">
                                <img src=""images/map15_RdGy_scaleDef_orientDef_270.png"" style= ""width:200px""alt=""img"">
                            </div>
                        </div>","32","","0","","","","images/map15_RdGy_scaleDef_orientDef_270.png","fearful","1","15","15","RdGy","orientDef","scaleDef","270","",""
"","","","","","html-slider-response","159","7815860","0.0-151.0","j2aacve0oe","77","NaN","<div style=""width:500px;"">
                            <p style=""font-size:50px; font-weight:bold;""
                            >fearful</p>
                            <div style=""width:240px; margin: auto;"">
                                <img src=""images/map23_coolwarm_scaleRev_orientMir_180.png"" style= ""width:200px""alt=""img"">
                            </div>
