"success","timeout","failed_images","failed_audio","failed_video","trial_type","trial_index","time_elapsed","internal_node_id","subject_id","condition_num","rt","stimulus","response","question_order","slider_start","practiceTrial","practiceTrialNum","correct","image_path","concept","repetition","map_id","map_num","scale_name","orientation_code","mapping_code","rotation_code","ishihara_plate","correct_response"
"true","false","[]","[]","[]","preload","0","3179","0.0-0.0","ju9ery6x7k","41","","","","","","","","","","","","","","","","","","",""
"","","","","","html-button-response","1","5734","0.0-1.0","ju9ery6x7k","41","2553","Welcome to our experiment!<p>At the bottom of this screen, you will see a button that says ""Begin Experiment"".<br>Please only click that button when you are ready to complete the 30 minute experiment in one sitting.</p><p> Once you click that button, it will not be possible to restart the experiment.","0","","","","","","","","","","","","","","","",""
"true","","","","","fullscreen","2","7687","0.0-2.0","ju9ery6x7k","41","949","","","","","","","","","","","","","","","","","",""
"","","","","","survey-multi-select","3","22171","0.0-3.0","ju9ery6x7k","41","14479","","{""Consent"":[""<strong>I consent</strong>""]}","[0]","","","","","","","","","","","","","","",""
"","","","","","html-button-response","4","24068","0.0-4.0","ju9ery6x7k","41","1895","Welcome! <p> This experiment involves two parts: demographic information, followed by the experimental task.<p> It will take about 30 minutes to complete both parts.","0","","","","","","","","","","","","","","","",""
"","","","","","survey-text","5","37585","0.0-5.0","ju9ery6x7k","41","13501","","{""Age"":""20"",""Gender"":""Female"",""Race/ethnicity"":""Asian"",""Languages"":""Chinese, English""}","","","","","","","","","","","","","","","",""
"","","","","","html-slider-response","6","61191","0.0-6.0","ju9ery6x7k","41","23603","<div style='text-align:left; font-size:20px; line-height:25px; width: 1000px;'>
                                During this experiment you will be asked to rate how much you associate maps with                    different concepts.<br> Below, you can see some examples of the maps you will be asked to rate. Above the maps
                    is the list of concepts.<br>You will be asked                    to rate how much you associate each map with each concept on a scale from 'not at all' to 'very much' like the
                    one below. <br><br>
                    Now, please look at the list of concepts and maps. For each concept, think about the map you associate 'very
                    much' with the concept.<br>                     When you see that map during the experiment, please rate it near the 'very much' endpoint of the
                    scale.<br>Now, please think about which map you associate 'not at all'                     with each concept. When you see that map during the experiment, please rate it near the 'not at all' endpoint
                    of the scale.<br>
                    Please use the full range of the scale. That is, if a map is somewhat associated with the concept, you would
                    click partway between the middle point and right side of the scale.                    You will be asked to rate each map for a given concept before moving on to the next concept.<br>Press the
                    'Continue' button for instructions on how to use the slider.                    <br>
                </div>

                <div style=""width: 500px; margin: 0 auto;"">
                    <!-- Centered text paragraphs -->
                    <div style=""text-align: center; width: 500px;"">
                        <p style=""font-size:25px; line-height:15px;"">
                            fearful&nbsp;&nbsp;&nbsp;&nbsp;
                            sad&nbsp;&nbsp;&nbsp;&nbsp;
                            happy&nbsp;&nbsp;&nbsp;&nbsp;
                            disgust&nbsp;&nbsp;&nbsp;&nbsp;
                            angry
                        </p>
                        <!-- <p style=""font-size:20px; line-height:15px;"">sad</p>
                        <p style=""font-size:20px;line-height:15px;"">happy</p>
                        <p style=""font-size:20px;line-height:15px;"">disgust</p>
                        <p style=""font-size:20px;line-height:15px;"">angry</p> -->
                    </div>
            

                    <!-- Grid section -->
                   <div style=""display: flex; justify-content: center; padding-top: 15px;"">
                    <div style=""display: grid; grid-template-columns: repeat(10, 55px); grid-gap: 5px; width: auto;"">
                        <img src=""images/map05_PRGn_scaleDef_orientDef_090.png"" alt=""map"" style=""width: 100%;""><img src=""images/map10_coolwarm_scaleRev_orientDef_180.png"" alt=""map"" style=""width: 100%;""><img src=""images/map05_PuOr_scaleDef_orientMir_090.png"" alt=""map"" style=""width: 100%;""><img src=""images/map26_PuRd_scaleDef_orientMir_090.png"" alt=""map"" style=""width: 100%;""><img src=""images/map12_turbo_scaleDef_orientMir_270.png"" alt=""map"" style=""width: 100%;""><img src=""images/map07_Spectral_scaleDef_orientMir_270.png"" alt=""map"" style=""width: 100%;""><img src=""images/map13_viridis_scaleDef_orientDef_090.png"" alt=""map"" style=""width: 100%;""><img src=""images/map23_Greens_scaleRev_orientDef_180.png"" alt=""map"" style=""width: 100%;""><img src=""images/map07_RdGy_scaleRev_orientDef_000.png"" alt=""map"" style=""width: 100%;""><img src=""images/map12_gist_earth_scaleRev_orientMir_180.png"" alt=""map"" style=""width: 100%;""><img src=""images/map10_bwr_scaleRev_orientMir_000.png"" alt=""map"" style=""width: 100%;""><img src=""images/map15_cividis_scaleDef_orientDef_090.png"" alt=""map"" style=""width: 100%;""><img src=""images/map27_GnBu_scaleDef_orientDef_270.png"" alt=""map"" style=""width: 100%;""><img src=""images/map05_PiYG_scaleRev_orientDef_000.png"" alt=""map"" style=""width: 100%;""><img src=""images/map07_RdYlBu_scaleDef_orientDef_270.png"" alt=""map"" style=""width: 100%;""><img src=""images/map27_YlGnBu_scaleDef_orientMir_270.png"" alt=""map"" style=""width: 100%;""><img src=""images/map27_PuBu_scaleDef_orientMir_090.png"" alt=""map"" style=""width: 100%;""><img src=""images/map02_PuBuGn_scaleDef_orientDef_090.png"" alt=""map"" style=""width: 100%;""><img src=""images/map26_RdPu_scaleDef_orientMir_270.png"" alt=""map"" style=""width: 100%;""><img src=""images/map02_YlGn_scaleDef_orientMir_090.png"" alt=""map"" style=""width: 100%;""><img src=""images/map26_YlOrRd_scaleRev_orientDef_180.png"" alt=""map"" style=""width: 100%;""><img src=""images/map15_magma_scaleRev_orientDef_000.png"" alt=""map"" style=""width: 100%;""><img src=""images/map13_inferno_scaleDef_orientMir_090.png"" alt=""map"" style=""width: 100%;""><img src=""images/map12_managua_scaleDef_orientDef_090.png"" alt=""map"" style=""width: 100%;""><img src=""images/map10_seismic_scaleDef_orientMir_090.png"" alt=""map"" style=""width: 100%;""><img src=""images/map02_BuGn_scaleDef_orientDef_270.png"" alt=""map"" style=""width: 100%;""><img src=""images/map07_RdBu_scaleRev_orientDef_180.png"" alt=""map"" style=""width: 100%;""><img src=""images/map07_RdYlGn_scaleDef_orientMir_090.png"" alt=""map"" style=""width: 100%;""><img src=""images/map15_Purples_scaleRev_orientMir_180.png"" alt=""map"" style=""width: 100%;""><img src=""images/map05_BrBG_scaleDef_orientDef_270.png"" alt=""map"" style=""width: 100%;""><img src=""images/map12_vanimo_scaleDef_orientDef_270.png"" alt=""map"" style=""width: 100%;""><img src=""images/map15_Greys_scaleRev_orientMir_000.png"" alt=""map"" style=""width: 100%;""><img src=""images/map15_Blues_scaleDef_orientMir_270.png"" alt=""map"" style=""width: 100%;""><img src=""images/map13_plasma_scaleRev_orientMir_000.png"" alt=""map"" style=""width: 100%;""><img src=""images/map26_OrRd_scaleRev_orientMir_000.png"" alt=""map"" style=""width: 100%;""><img src=""images/map26_YlOrBr_scaleRev_orientDef_000.png"" alt=""map"" style=""width: 100%;""><img src=""images/map12_berlin_scaleRev_orientDef_000.png"" alt=""map"" style=""width: 100%;""><img src=""images/map27_BuPu_scaleRev_orientDef_180.png"" alt=""map"" style=""width: 100%;""><img src=""images/map23_Oranges_scaleRev_orientMir_000.png"" alt=""map"" style=""width: 100%;""><img src=""images/map23_Reds_scaleRev_orientMir_180.png"" alt=""map"" style=""width: 100%;"">
                    </div>
                </div>

                    <!-- Clear floats -->
                    <div style=""clear: both;""></div>
                </div>
                            ","null","","0","true","","","","","","","","","","","","",""
"","","","","","html-button-response","7","69134","0.0-7.0","ju9ery6x7k","41","7942","<div style=""width:800px;""><p style=""text-align:left"">To move the slider, click and drag your cursor to the location of the scale where you would like to make your rating and then let go. When you let go of the slider, your response will be recorded and the next trial will begin. <br>
                    We are interested in your initial impressions of each map for the given concept, so please go with your first intuition. <br>
                    Before you begin the experiment, there will be four training trials for you to practice using the scale. <br>
                     When you are ready to start the training trials, please click ""Continue"".</p><br></div>","0","","","","","","","","","","","","","","","",""
"","","","","","html-slider-response","8","71997","0.0-8.0-0.0","ju9ery6x7k","41","NaN","<div style=""width:500px;"">
                                    <p style=""font-size:25px;"">Please move the slider all the way to the <br> right endpoint of the scale</p>

                                    </div>
                                </div>","200","","0","true","0","true","","","","","","","","","","",""
"","","","","","html-button-response","9","73134","0.0-8.0-1.0","ju9ery6x7k","41","633","<p align='center'><b>Good job!</b> Click on 'Continue' to proceed.</p>","0","","","","","","","","","","","","","","","",""
"","","","","","html-slider-response","10","74929","0.0-9.0-0.0","ju9ery6x7k","41","NaN","<div style=""width:500px;"">
                                    <p style=""font-size:25px;"">Please move the slider all the way to the <br> left endpoint of the scale</p>

                                    </div>
                                </div>","-200","","0","true","1","true","","","","","","","","","","",""
"","","","","","html-button-response","11","76018","0.0-9.0-1.0","ju9ery6x7k","41","585","<p align='center'><b>Good job!</b> Click on 'Continue' to proceed.</p>","0","","","","","","","","","","","","","","","",""
"","","","","","html-slider-response","12","80411","0.0-10.0-0.0","ju9ery6x7k","41","NaN","<div style=""width:500px;"">
                                    <p style=""font-size:25px;"">Please move the slider halfway between the center and right endpoint of the scale</p>

                                    </div>
                                </div>","106","","0","true","2","true","","","","","","","","","","",""
"","","","","","html-button-response","13","81566","0.0-10.0-1.0","ju9ery6x7k","41","651","<p align='center'><b>Good job!</b> Click on 'Continue' to proceed.</p>","0","","","","","","","","","","","","","","","",""
"","","","","","html-slider-response","14","85195","0.0-11.0-0.0","ju9ery6x7k","41","NaN","<div style=""width:500px;"">
                                    <p style=""font-size:25px;"">Please move the slider halfway between the center and left endpoint of the scale</p>

                                    </div>
                                </div>","-101","","0","true","3","true","","","","","","","","","","",""
"","","","","","html-button-response","15","86249","0.0-11.0-1.0","ju9ery6x7k","41","552","<p align='center'><b>Good job!</b> Click on 'Continue' to proceed.</p>","0","","","","","","","","","","","","","","","",""
"","","","","","html-button-response","16","87250","0.0-12.0","ju9ery6x7k","41","1000","<p>Great job! You've completed the practice trials. Now you will begin the main task.</p>","0","","","","","","","","","","","","","","","",""
"","","","","","html-button-response","17","89366","0.0-13.0","ju9ery6x7k","41","2115","<p>In this block of trials, you will be asked to rate how much you associate each map with:</p > <p style = 'font-size:150%; font-weight: bold'>fearful</p><br></br>","0","","","","","","","","","","","","","","","",""
"","","","","","html-slider-response","18","92294","0.0-14.0","ju9ery6x7k","41","NaN","<div style=""width:500px;"">
                            <p style=""font-size:50px; font-weight:bold;""
                            >fearful</p>
                            <div style=""width:240px; margin: auto;"">
                                <img src=""images/map15_cividis_scaleDef_orientDef_090.png"" style= ""width:200px""alt=""img"">
                            </div>
                        </div>","77","","0","","","","images/map15_cividis_scaleDef_orientDef_090.png","fearful","1","15","15","cividis","orientDef","scaleDef","090","",""
"","","","","","html-slider-response","19","94328","0.0-15.0","ju9ery6x7k","41","NaN","<div style=""width:500px;"">
                            <p style=""font-size:50px; font-weight:bold;""
                            >fearful</p>
                            <div style=""width:240px; margin: auto;"">
                                <img src=""images/map13_magma_scaleDef_orientMir_270.png"" style= ""width:200px""alt=""img"">
                            </div>
                        </div>","113","","0","","","","images/map13_magma_scaleDef_orientMir_270.png","fearful","1","13","13","magma","orientMir","scaleDef","270","",""
"","","","","","html-slider-response","20","97260","0.0-16.0","ju9ery6x7k","41","NaN","<div style=""width:500px;"">
                            <p style=""font-size:50px; font-weight:bold;""
                            >fearful</p>
                            <div style=""width:240px; margin: auto;"">
                                <img src=""images/map02_YlGnBu_scaleRev_orientDef_000.png"" style= ""width:200px""alt=""img"">
                            </div>
                        </div>","-52","","0","","","","images/map02_YlGnBu_scaleRev_orientDef_000.png","fearful","1","02","02","YlGnBu","orientDef","scaleRev","000","",""
"","","","","","html-slider-response","21","99195","0.0-17.0","ju9ery6x7k","41","NaN","<div style=""width:500px;"">
                            <p style=""font-size:50px; font-weight:bold;""
                            >fearful</p>
                            <div style=""width:240px; margin: auto;"">
                                <img src=""images/map02_YlGn_scaleDef_orientMir_090.png"" style= ""width:200px""alt=""img"">
                            </div>
                        </div>","60","","0","","","","images/map02_YlGn_scaleDef_orientMir_090.png","fearful","1","02","02","YlGn","orientMir","scaleDef","090","",""
"","","","","","html-slider-response","22","101411","0.0-18.0","ju9ery6x7k","41","NaN","<div style=""width:500px;"">
                            <p style=""font-size:50px; font-weight:bold;""
                            >fearful</p>
                            <div style=""width:240px; margin: auto;"">
                                <img src=""images/map02_PuBuGn_scaleDef_orientDef_090.png"" style= ""width:200px""alt=""img"">
                            </div>
                        </div>","-120","","0","","","","images/map02_PuBuGn_scaleDef_orientDef_090.png","fearful","1","02","02","PuBuGn","orientDef","scaleDef","090","",""
"","","","","","html-slider-response","23","103294","0.0-19.0","ju9ery6x7k","41","NaN","<div style=""width:500px;"">
                            <p style=""font-size:50px; font-weight:bold;""
                            >fearful</p>
                            <div style=""width:240px; margin: auto;"">
                                <img src=""images/map13_plasma_scaleRev_orientMir_000.png"" style= ""width:200px""alt=""img"">
                            </div>
                        </div>","30","","0","","","","images/map13_plasma_scaleRev_orientMir_000.png","fearful","1","13","13","plasma","orientMir","scaleRev","000","",""
"","","","","","html-slider-response","24","105128","0.0-20.0","ju9ery6x7k","41","NaN","<div style=""width:500px;"">
                            <p style=""font-size:50px; font-weight:bold;""
                            >fearful</p>
                            <div style=""width:240px; margin: auto;"">
                                <img src=""images/map05_PRGn_scaleDef_orientDef_090.png"" style= ""width:200px""alt=""img"">
                            </div>
                        </div>","-92","","0","","","","images/map05_PRGn_scaleDef_orientDef_090.png","fearful","1","05","05","PRGn","orientDef","scaleDef","090","",""
"","","","","","html-slider-response","25","107794","0.0-21.0","ju9ery6x7k","41","NaN","<div style=""width:500px;"">
                            <p style=""font-size:50px; font-weight:bold;""
                            >fearful</p>
                            <div style=""width:240px; margin: auto;"">
                                <img src=""images/map10_coolwarm_scaleRev_orientDef_180.png"" style= ""width:200px""alt=""img"">
                            </div>
                        </div>","-70","","0","","","","images/map10_coolwarm_scaleRev_orientDef_180.png","fearful","1","10","10","coolwarm","orientDef","scaleRev","180","",""
"","","","","","html-slider-response","26","110278","0.0-22.0","ju9ery6x7k","41","NaN","<div style=""width:500px;"">
                            <p style=""font-size:50px; font-weight:bold;""
                            >fearful</p>
                            <div style=""width:240px; margin: auto;"">
                                <img src=""images/map27_GnBu_scaleDef_orientDef_270.png"" style= ""width:200px""alt=""img"">
                            </div>
                        </div>","-138","","0","","","","images/map27_GnBu_scaleDef_orientDef_270.png","fearful","1","27","27","GnBu","orientDef","scaleDef","270","",""
"","","","","","html-slider-response","27","113445","0.0-23.0","ju9ery6x7k","41","NaN","<div style=""width:500px;"">
                            <p style=""font-size:50px; font-weight:bold;""
                            >fearful</p>
                            <div style=""width:240px; margin: auto;"">
                                <img src=""images/map23_Blues_scaleRev_orientDef_000.png"" style= ""width:200px""alt=""img"">
                            </div>
                        </div>","-200","","0","","","","images/map23_Blues_scaleRev_orientDef_000.png","fearful","1","23","23","Blues","orientDef","scaleRev","000","",""
"","","","","","html-slider-response","28","115711","0.0-24.0","ju9ery6x7k","41","NaN","<div style=""width:500px;"">
                            <p style=""font-size:50px; font-weight:bold;""
                            >fearful</p>
                            <div style=""width:240px; margin: auto;"">
                                <img src=""images/map26_PuRd_scaleDef_orientMir_090.png"" style= ""width:200px""alt=""img"">
                            </div>
                        </div>","-182","","0","","","","images/map26_PuRd_scaleDef_orientMir_090.png","fearful","1","26","26","PuRd","orientMir","scaleDef","090","",""
"","","","","","html-slider-response","29","117645","0.0-25.0","ju9ery6x7k","41","NaN","<div style=""width:500px;"">
                            <p style=""font-size:50px; font-weight:bold;""
                            >fearful</p>
                            <div style=""width:240px; margin: auto;"">
                                <img src=""images/map26_OrRd_scaleDef_orientDef_270.png"" style= ""width:200px""alt=""img"">
                            </div>
                        </div>","-148","","0","","","","images/map26_OrRd_scaleDef_orientDef_270.png","fearful","1","26","26","OrRd","orientDef","scaleDef","270","",""
"","","","","","html-slider-response","30","119610","0.0-26.0","ju9ery6x7k","41","NaN","<div style=""width:500px;"">
                            <p style=""font-size:50px; font-weight:bold;""
                            >fearful</p>
                            <div style=""width:240px; margin: auto;"">
                                <img src=""images/map23_Greens_scaleRev_orientDef_180.png"" style= ""width:200px""alt=""img"">
                            </div>
                        </div>","-81","","0","","","","images/map23_Greens_scaleRev_orientDef_180.png","fearful","1","23","23","Greens","orientDef","scaleRev","180","",""
"","","","","","html-slider-response","31","121727","0.0-27.0","ju9ery6x7k","41","NaN","<div style=""width:500px;"">
                            <p style=""font-size:50px; font-weight:bold;""
                            >fearful</p>
                            <div style=""width:240px; margin: auto;"">
                                <img src=""images/map10_bwr_scaleRev_orientMir_000.png"" style= ""width:200px""alt=""img"">
                            </div>
                        </div>","-39","","0","","","","images/map10_bwr_scaleRev_orientMir_000.png","fearful","1","10","10","bwr","orientMir","scaleRev","000","",""
"","","","","","html-slider-response","32","123827","0.0-28.0","ju9ery6x7k","41","NaN","<div style=""width:500px;"">
                            <p style=""font-size:50px; font-weight:bold;""
                            >fearful</p>
                            <div style=""width:240px; margin: auto;"">
                                <img src=""images/map13_viridis_scaleDef_orientDef_090.png"" style= ""width:200px""alt=""img"">
                            </div>
                        </div>","17","","0","","","","images/map13_viridis_scaleDef_orientDef_090.png","fearful","1","13","13","viridis","orientDef","scaleDef","090","",""
"","","","","","html-slider-response","33","127328","0.0-29.0","ju9ery6x7k","41","NaN","<div style=""width:500px;"">
                            <p style=""font-size:50px; font-weight:bold;""
                            >fearful</p>
                            <div style=""width:240px; margin: auto;"">
                                <img src=""images/map27_PuBu_scaleRev_orientMir_180.png"" style= ""width:200px""alt=""img"">
                            </div>
                        </div>","15","","0","","","","images/map27_PuBu_scaleRev_orientMir_180.png","fearful","1","27","27","PuBu","orientMir","scaleRev","180","",""
"","","","","","html-slider-response","34","130563","0.0-30.0","ju9ery6x7k","41","NaN","<div style=""width:500px;"">
                            <p style=""font-size:50px; font-weight:bold;""
                            >fearful</p>
                            <div style=""width:240px; margin: auto;"">
                                <img src=""images/map15_magma_scaleRev_orientDef_000.png"" style= ""width:200px""alt=""img"">
                            </div>
                        </div>","9","","0","","","","images/map15_magma_scaleRev_orientDef_000.png","fearful","1","15","15","magma","orientDef","scaleRev","000","",""
"","","","","","html-slider-response","35","133212","0.0-31.0","ju9ery6x7k","41","NaN","<div style=""width:500px;"">
                            <p style=""font-size:50px; font-weight:bold;""
                            >fearful</p>
                            <div style=""width:240px; margin: auto;"">
                                <img src=""images/map13_turbo_scaleRev_orientDef_000.png"" style= ""width:200px""alt=""img"">
                            </div>
                        </div>","-24","","0","","","","images/map13_turbo_scaleRev_orientDef_000.png","fearful","1","13","13","turbo","orientDef","scaleRev","000","",""
"","","","","","html-slider-response","36","135011","0.0-32.0","ju9ery6x7k","41","NaN","<div style=""width:500px;"">
                            <p style=""font-size:50px; font-weight:bold;""
                            >fearful</p>
                            <div style=""width:240px; margin: auto;"">
                                <img src=""images/map05_PuOr_scaleRev_orientMir_180.png"" style= ""width:200px""alt=""img"">
                            </div>
                        </div>","-33","","0","","","","images/map05_PuOr_scaleRev_orientMir_180.png","fearful","1","05","05","PuOr","orientMir","scaleRev","180","",""
"","","","","","html-slider-response","37","136660","0.0-33.0","ju9ery6x7k","41","NaN","<div style=""width:500px;"">
                            <p style=""font-size:50px; font-weight:bold;""
                            >fearful</p>
                            <div style=""width:240px; margin: auto;"">
                                <img src=""images/map02_YlGn_scaleRev_orientMir_180.png"" style= ""width:200px""alt=""img"">
                            </div>
                        </div>","-30","","0","","","","images/map02_YlGn_scaleRev_orientMir_180.png","fearful","1","02","02","YlGn","orientMir","scaleRev","180","",""
"","","","","","html-slider-response","38","138660","0.0-34.0","ju9ery6x7k","41","NaN","<div style=""width:500px;"">
                            <p style=""font-size:50px; font-weight:bold;""
                            >fearful</p>
                            <div style=""width:240px; margin: auto;"">
                                <img src=""images/map12_vanimo_scaleDef_orientDef_270.png"" style= ""width:200px""alt=""img"">
                            </div>
                        </div>","27","","0","","","","images/map12_vanimo_scaleDef_orientDef_270.png","fearful","1","12","12","vanimo","orientDef","scaleDef","270","",""
"","","","","","html-slider-response","39","141512","0.0-35.0","ju9ery6x7k","41","NaN","<div style=""width:500px;"">
                            <p style=""font-size:50px; font-weight:bold;""
                            >fearful</p>
                            <div style=""width:240px; margin: auto;"">
                                <img src=""images/map13_viridis_scaleRev_orientDef_180.png"" style= ""width:200px""alt=""img"">
                            </div>
                        </div>","12","","0","","","","images/map13_viridis_scaleRev_orientDef_180.png","fearful","1","13","13","viridis","orientDef","scaleRev","180","",""
"","","","","","html-slider-response","40","143475","0.0-36.0","ju9ery6x7k","41","NaN","<div style=""width:500px;"">
                            <p style=""font-size:50px; font-weight:bold;""
                            >fearful</p>
                            <div style=""width:240px; margin: auto;"">
                                <img src=""images/map12_managua_scaleDef_orientDef_090.png"" style= ""width:200px""alt=""img"">
                            </div>
                        </div>","44","","0","","","","images/map12_managua_scaleDef_orientDef_090.png","fearful","1","12","12","managua","orientDef","scaleDef","090","",""
"","","","","","html-slider-response","41","145394","0.0-37.0","ju9ery6x7k","41","NaN","<div style=""width:500px;"">
                            <p style=""font-size:50px; font-weight:bold;""
                            >fearful</p>
                            <div style=""width:240px; margin: auto;"">
                                <img src=""images/map10_seismic_scaleRev_orientMir_180.png"" style= ""width:200px""alt=""img"">
                            </div>
                        </div>","82","","0","","","","images/map10_seismic_scaleRev_orientMir_180.png","fearful","1","10","10","seismic","orientMir","scaleRev","180","",""
"","","","","","html-slider-response","42","147094","0.0-38.0","ju9ery6x7k","41","NaN","<div style=""width:500px;"">
                            <p style=""font-size:50px; font-weight:bold;""
                            >fearful</p>
                            <div style=""width:240px; margin: auto;"">
                                <img src=""images/map26_PuRd_scaleRev_orientMir_180.png"" style= ""width:200px""alt=""img"">
                            </div>
                        </div>","-19","","0","","","","images/map26_PuRd_scaleRev_orientMir_180.png","fearful","1","26","26","PuRd","orientMir","scaleRev","180","",""
"","","","","","html-slider-response","43","149276","0.0-39.0","ju9ery6x7k","41","NaN","<div style=""width:500px;"">
                            <p style=""font-size:50px; font-weight:bold;""
                            >fearful</p>
                            <div style=""width:240px; margin: auto;"">
                                <img src=""images/map13_plasma_scaleDef_orientDef_270.png"" style= ""width:200px""alt=""img"">
                            </div>
                        </div>","53","","0","","","","images/map13_plasma_scaleDef_orientDef_270.png","fearful","1","13","13","plasma","orientDef","scaleDef","270","",""
"","","","","","html-slider-response","44","152794","0.0-40.0","ju9ery6x7k","41","NaN","<div style=""width:500px;"">
                            <p style=""font-size:50px; font-weight:bold;""
                            >fearful</p>
                            <div style=""width:240px; margin: auto;"">
                                <img src=""images/map10_bwr_scaleDef_orientDef_270.png"" style= ""width:200px""alt=""img"">
                            </div>
                        </div>","23","","0","","","","images/map10_bwr_scaleDef_orientDef_270.png","fearful","1","10","10","bwr","orientDef","scaleDef","270","",""
"","","","","","html-slider-response","45","155694","0.0-41.0","ju9ery6x7k","41","NaN","<div style=""width:500px;"">
                            <p style=""font-size:50px; font-weight:bold;""
                            >fearful</p>
                            <div style=""width:240px; margin: auto;"">
                                <img src=""images/map15_Purples_scaleDef_orientMir_090.png"" style= ""width:200px""alt=""img"">
                            </div>
                        </div>","-22","","0","","","","images/map15_Purples_scaleDef_orientMir_090.png","fearful","1","15","15","Purples","orientMir","scaleDef","090","",""
"","","","","","html-slider-response","46","157861","0.0-42.0","ju9ery6x7k","41","NaN","<div style=""width:500px;"">
                            <p style=""font-size:50px; font-weight:bold;""
                            >fearful</p>
                            <div style=""width:240px; margin: auto;"">
                                <img src=""images/map27_BuPu_scaleRev_orientDef_180.png"" style= ""width:200px""alt=""img"">
                            </div>
                        </div>","-52","","0","","","","images/map27_BuPu_scaleRev_orientDef_180.png","fearful","1","27","27","BuPu","orientDef","scaleRev","180","",""
"","","","","","html-slider-response","47","159660","0.0-43.0","ju9ery6x7k","41","NaN","<div style=""width:500px;"">
                            <p style=""font-size:50px; font-weight:bold;""
                            >fearful</p>
                            <div style=""width:240px; margin: auto;"">
                                <img src=""images/map26_YlOrRd_scaleDef_orientDef_090.png"" style= ""width:200px""alt=""img"">
                            </div>
                        </div>","-27","","0","","","","images/map26_YlOrRd_scaleDef_orientDef_090.png","fearful","1","26","26","YlOrRd","orientDef","scaleDef","090","",""
"","","","","","html-slider-response","48","162345","0.0-44.0","ju9ery6x7k","41","NaN","<div style=""width:500px;"">
                            <p style=""font-size:50px; font-weight:bold;""
                            >fearful</p>
                            <div style=""width:240px; margin: auto;"">
                                <img src=""images/map13_inferno_scaleRev_orientMir_180.png"" style= ""width:200px""alt=""img"">
                            </div>
                        </div>","22","","0","","","","images/map13_inferno_scaleRev_orientMir_180.png","fearful","1","13","13","inferno","orientMir","scaleRev","180","",""
"","","","","","html-slider-response","49","164577","0.0-45.0","ju9ery6x7k","41","NaN","<div style=""width:500px;"">
                            <p style=""font-size:50px; font-weight:bold;""
                            >fearful</p>
                            <div style=""width:240px; margin: auto;"">
                                <img src=""images/map05_BrBG_scaleRev_orientMir_000.png"" style= ""width:200px""alt=""img"">
                            </div>
                        </div>","-112","","0","","","","images/map05_BrBG_scaleRev_orientMir_000.png","fearful","1","05","05","BrBG","orientMir","scaleRev","000","",""
"","","","","","html-slider-response","50","167194","0.0-46.0","ju9ery6x7k","41","NaN","<div style=""width:500px;"">
                            <p style=""font-size:50px; font-weight:bold;""
                            >fearful</p>
                            <div style=""width:240px; margin: auto;"">
                                <img src=""images/map12_turbo_scaleDef_orientMir_270.png"" style= ""width:200px""alt=""img"">
                            </div>
                        </div>","-56","","0","","","","images/map12_turbo_scaleDef_orientMir_270.png","fearful","1","12","12","turbo","orientMir","scaleDef","270","",""
"","","","","","html-slider-response","51","169677","0.0-47.0","ju9ery6x7k","41","NaN","<div style=""width:500px;"">
                            <p style=""font-size:50px; font-weight:bold;""
                            >fearful</p>
                            <div style=""width:240px; margin: auto;"">
                                <img src=""images/map02_PiYG_scaleDef_orientMir_270.png"" style= ""width:200px""alt=""img"">
                            </div>
                        </div>","-157","","0","","","","images/map02_PiYG_scaleDef_orientMir_270.png","fearful","1","02","02","PiYG","orientMir","scaleDef","270","",""
"","","","","","html-slider-response","52","171710","0.0-48.0","ju9ery6x7k","41","NaN","<div style=""width:500px;"">
                            <p style=""font-size:50px; font-weight:bold;""
                            >fearful</p>
                            <div style=""width:240px; margin: auto;"">
                                <img src=""images/map02_PuBuGn_scaleRev_orientDef_180.png"" style= ""width:200px""alt=""img"">
                            </div>
                        </div>","-170","","0","","","","images/map02_PuBuGn_scaleRev_orientDef_180.png","fearful","1","02","02","PuBuGn","orientDef","scaleRev","180","",""
"","","","","","html-slider-response","53","173660","0.0-49.0","ju9ery6x7k","41","NaN","<div style=""width:500px;"">
                            <p style=""font-size:50px; font-weight:bold;""
                            >fearful</p>
                            <div style=""width:240px; margin: auto;"">
                                <img src=""images/map10_coolwarm_scaleDef_orientDef_090.png"" style= ""width:200px""alt=""img"">
                            </div>
                        </div>","-20","","0","","","","images/map10_coolwarm_scaleDef_orientDef_090.png","fearful","1","10","10","coolwarm","orientDef","scaleDef","090","",""
"","","","","","html-slider-response","54","175544","0.0-50.0","ju9ery6x7k","41","NaN","<div style=""width:500px;"">
                            <p style=""font-size:50px; font-weight:bold;""
                            >fearful</p>
                            <div style=""width:240px; margin: auto;"">
                                <img src=""images/map05_BrBG_scaleDef_orientDef_270.png"" style= ""width:200px""alt=""img"">
                            </div>
                        </div>","-37","","0","","","","images/map05_BrBG_scaleDef_orientDef_270.png","fearful","1","05","05","BrBG","orientDef","scaleDef","270","",""
"","","","","","html-slider-response","55","177860","0.0-51.0","ju9ery6x7k","41","NaN","<div style=""width:500px;"">
                            <p style=""font-size:50px; font-weight:bold;""
                            >fearful</p>
                            <div style=""width:240px; margin: auto;"">
                                <img src=""images/map26_RdPu_scaleDef_orientMir_270.png"" style= ""width:200px""alt=""img"">
                            </div>
                        </div>","-136","","0","","","","images/map26_RdPu_scaleDef_orientMir_270.png","fearful","1","26","26","RdPu","orientMir","scaleDef","270","",""
"","","","","","html-slider-response","56","180827","0.0-52.0","ju9ery6x7k","41","NaN","<div style=""width:500px;"">
                            <p style=""font-size:50px; font-weight:bold;""
                            >fearful</p>
                            <div style=""width:240px; margin: auto;"">
                                <img src=""images/map23_Reds_scaleRev_orientMir_180.png"" style= ""width:200px""alt=""img"">
                            </div>
                        </div>","-18","","0","","","","images/map23_Reds_scaleRev_orientMir_180.png","fearful","1","23","23","Reds","orientMir","scaleRev","180","",""
"","","","","","html-slider-response","57","183244","0.0-53.0","ju9ery6x7k","41","NaN","<div style=""width:500px;"">
                            <p style=""font-size:50px; font-weight:bold;""
                            >fearful</p>
                            <div style=""width:240px; margin: auto;"">
                                <img src=""images/map26_OrRd_scaleRev_orientMir_000.png"" style= ""width:200px""alt=""img"">
                            </div>
                        </div>","170","","0","","","","images/map26_OrRd_scaleRev_orientMir_000.png","fearful","1","26","26","OrRd","orientMir","scaleRev","000","",""
"","","","","","html-button-response","58","186098","0.0-54.0","ju9ery6x7k","41","2351","<p>You are doing great!<br></br> You are halway done with the current block. When you are ready to continue, click the 'Continue' button.</p>","0","","","","","","","","","","","","","","","",""
"","","","","","html-slider-response","59","187994","0.0-55.0","ju9ery6x7k","41","NaN","<div style=""width:500px;"">
                            <p style=""font-size:50px; font-weight:bold;""
                            >fearful</p>
                            <div style=""width:240px; margin: auto;"">
                                <img src=""images/map12_gist_earth_scaleRev_orientMir_180.png"" style= ""width:200px""alt=""img"">
                            </div>
                        </div>","-32","","0","","","","images/map12_gist_earth_scaleRev_orientMir_180.png","fearful","1","12","12","gist","scaleRev","earth","orientMir","",""
"","","","","","html-slider-response","60","189693","0.0-56.0","ju9ery6x7k","41","NaN","<div style=""width:500px;"">
                            <p style=""font-size:50px; font-weight:bold;""
                            >fearful</p>
                            <div style=""width:240px; margin: auto;"">
                                <img src=""images/map15_Greys_scaleDef_orientDef_270.png"" style= ""width:200px""alt=""img"">
                            </div>
                        </div>","158","","0","","","","images/map15_Greys_scaleDef_orientDef_270.png","fearful","1","15","15","Greys","orientDef","scaleDef","270","",""
"","","","","","html-slider-response","61","191660","0.0-57.0","ju9ery6x7k","41","NaN","<div style=""width:500px;"">
                            <p style=""font-size:50px; font-weight:bold;""
                            >fearful</p>
                            <div style=""width:240px; margin: auto;"">
                                <img src=""images/map15_Blues_scaleDef_orientMir_270.png"" style= ""width:200px""alt=""img"">
                            </div>
                        </div>","-200","","0","","","","images/map15_Blues_scaleDef_orientMir_270.png","fearful","1","15","15","Blues","orientMir","scaleDef","270","",""
"","","","","","html-slider-response","62","193877","0.0-58.0","ju9ery6x7k","41","NaN","<div style=""width:500px;"">
                            <p style=""font-size:50px; font-weight:bold;""
                            >fearful</p>
                            <div style=""width:240px; margin: auto;"">
                                <img src=""images/map07_RdGy_scaleRev_orientDef_000.png"" style= ""width:200px""alt=""img"">
                            </div>
                        </div>","124","","0","","","","images/map07_RdGy_scaleRev_orientDef_000.png","fearful","1","07","07","RdGy","orientDef","scaleRev","000","",""
"","","","","","html-slider-response","63","195993","0.0-59.0","ju9ery6x7k","41","NaN","<div style=""width:500px;"">
                            <p style=""font-size:50px; font-weight:bold;""
                            >fearful</p>
                            <div style=""width:240px; margin: auto;"">
                                <img src=""images/map13_inferno_scaleDef_orientMir_090.png"" style= ""width:200px""alt=""img"">
                            </div>
                        </div>","28","","0","","","","images/map13_inferno_scaleDef_orientMir_090.png","fearful","1","13","13","inferno","orientMir","scaleDef","090","",""
"","","","","","html-slider-response","64","198393","0.0-60.0","ju9ery6x7k","41","NaN","<div style=""width:500px;"">
                            <p style=""font-size:50px; font-weight:bold;""
                            >fearful</p>
                            <div style=""width:240px; margin: auto;"">
                                <img src=""images/map07_RdBu_scaleDef_orientDef_090.png"" style= ""width:200px""alt=""img"">
                            </div>
                        </div>","8","","0","","","","images/map07_RdBu_scaleDef_orientDef_090.png","fearful","1","07","07","RdBu","orientDef","scaleDef","090","",""
"","","","","","html-slider-response","65","200376","0.0-61.0","ju9ery6x7k","41","NaN","<div style=""width:500px;"">
                            <p style=""font-size:50px; font-weight:bold;""
                            >fearful</p>
                            <div style=""width:240px; margin: auto;"">
                                <img src=""images/map12_managua_scaleRev_orientDef_180.png"" style= ""width:200px""alt=""img"">
                            </div>
                        </div>","18","","0","","","","images/map12_managua_scaleRev_orientDef_180.png","fearful","1","12","12","managua","orientDef","scaleRev","180","",""
"","","","","","html-slider-response","66","202244","0.0-62.0","ju9ery6x7k","41","NaN","<div style=""width:500px;"">
                            <p style=""font-size:50px; font-weight:bold;""
                            >fearful</p>
                            <div style=""width:240px; margin: auto;"">
                                <img src=""images/map15_cividis_scaleRev_orientDef_180.png"" style= ""width:200px""alt=""img"">
                            </div>
                        </div>","-18","","0","","","","images/map15_cividis_scaleRev_orientDef_180.png","fearful","1","15","15","cividis","orientDef","scaleRev","180","",""
"","","","","","html-slider-response","67","204961","0.0-63.0","ju9ery6x7k","41","NaN","<div style=""width:500px;"">
                            <p style=""font-size:50px; font-weight:bold;""
                            >fearful</p>
                            <div style=""width:240px; margin: auto;"">
                                <img src=""images/map26_YlOrRd_scaleRev_orientDef_180.png"" style= ""width:200px""alt=""img"">
                            </div>
                        </div>","24","","0","","","","images/map26_YlOrRd_scaleRev_orientDef_180.png","fearful","1","26","26","YlOrRd","orientDef","scaleRev","180","",""
"","","","","","html-slider-response","68","207127","0.0-64.0","ju9ery6x7k","41","NaN","<div style=""width:500px;"">
                            <p style=""font-size:50px; font-weight:bold;""
                            >fearful</p>
                            <div style=""width:240px; margin: auto;"">
                                <img src=""images/map15_Greys_scaleRev_orientMir_000.png"" style= ""width:200px""alt=""img"">
                            </div>
                        </div>","-36","","0","","","","images/map15_Greys_scaleRev_orientMir_000.png","fearful","1","15","15","Greys","orientMir","scaleRev","000","",""
"","","","","","html-slider-response","69","209126","0.0-65.0","ju9ery6x7k","41","NaN","<div style=""width:500px;"">
                            <p style=""font-size:50px; font-weight:bold;""
                            >fearful</p>
                            <div style=""width:240px; margin: auto;"">
                                <img src=""images/map05_PiYG_scaleRev_orientDef_000.png"" style= ""width:200px""alt=""img"">
                            </div>
                        </div>","-151","","0","","","","images/map05_PiYG_scaleRev_orientDef_000.png","fearful","1","05","05","PiYG","orientDef","scaleRev","000","",""
"","","","","","html-slider-response","70","211077","0.0-66.0","ju9ery6x7k","41","NaN","<div style=""width:500px;"">
                            <p style=""font-size:50px; font-weight:bold;""
                            >fearful</p>
                            <div style=""width:240px; margin: auto;"">
                                <img src=""images/map15_Purples_scaleRev_orientMir_180.png"" style= ""width:200px""alt=""img"">
                            </div>
                        </div>","-76","","0","","","","images/map15_Purples_scaleRev_orientMir_180.png","fearful","1","15","15","Purples","orientMir","scaleRev","180","",""
"","","","","","html-slider-response","71","213111","0.0-67.0","ju9ery6x7k","41","NaN","<div style=""width:500px;"">
                            <p style=""font-size:50px; font-weight:bold;""
                            >fearful</p>
                            <div style=""width:240px; margin: auto;"">
                                <img src=""images/map23_Reds_scaleDef_orientMir_090.png"" style= ""width:200px""alt=""img"">
                            </div>
                        </div>","24","","0","","","","images/map23_Reds_scaleDef_orientMir_090.png","fearful","1","23","23","Reds","orientMir","scaleDef","090","",""
"","","","","","html-slider-response","72","215694","0.0-68.0","ju9ery6x7k","41","NaN","<div style=""width:500px;"">
                            <p style=""font-size:50px; font-weight:bold;""
                            >fearful</p>
                            <div style=""width:240px; margin: auto;"">
                                <img src=""images/map05_RdGy_scaleDef_orientMir_270.png"" style= ""width:200px""alt=""img"">
                            </div>
                        </div>","54","","0","","","","images/map05_RdGy_scaleDef_orientMir_270.png","fearful","1","05","05","RdGy","orientMir","scaleDef","270","",""
"","","","","","html-slider-response","73","217627","0.0-69.0","ju9ery6x7k","41","NaN","<div style=""width:500px;"">
                            <p style=""font-size:50px; font-weight:bold;""
                            >fearful</p>
                            <div style=""width:240px; margin: auto;"">
                                <img src=""images/map12_gist_earth_scaleDef_orientMir_090.png"" style= ""width:200px""alt=""img"">
                            </div>
                        </div>","-23","","0","","","","images/map12_gist_earth_scaleDef_orientMir_090.png","fearful","1","12","12","gist","scaleDef","earth","orientMir","",""
"","","","","","html-slider-response","74","219793","0.0-70.0","ju9ery6x7k","41","NaN","<div style=""width:500px;"">
                            <p style=""font-size:50px; font-weight:bold;""
                            >fearful</p>
                            <div style=""width:240px; margin: auto;"">
                                <img src=""images/map10_Spectral_scaleRev_orientDef_000.png"" style= ""width:200px""alt=""img"">
                            </div>
                        </div>","-118","","0","","","","images/map10_Spectral_scaleRev_orientDef_000.png","fearful","1","10","10","Spectral","orientDef","scaleRev","000","",""
"","","","","","html-slider-response","75","221877","0.0-71.0","ju9ery6x7k","41","NaN","<div style=""width:500px;"">
                            <p style=""font-size:50px; font-weight:bold;""
                            >fearful</p>
                            <div style=""width:240px; margin: auto;"">
                                <img src=""images/map05_PuOr_scaleDef_orientMir_090.png"" style= ""width:200px""alt=""img"">
                            </div>
                        </div>","-142","","0","","","","images/map05_PuOr_scaleDef_orientMir_090.png","fearful","1","05","05","PuOr","orientMir","scaleDef","090","",""
"","","","","","html-slider-response","76","224026","0.0-72.0","ju9ery6x7k","41","NaN","<div style=""width:500px;"">
                            <p style=""font-size:50px; font-weight:bold;""
                            >fearful</p>
                            <div style=""width:240px; margin: auto;"">
                                <img src=""images/map23_Greens_scaleDef_orientDef_090.png"" style= ""width:200px""alt=""img"">
                            </div>
                        </div>","-186","","0","","","","images/map23_Greens_scaleDef_orientDef_090.png","fearful","1","23","23","Greens","orientDef","scaleDef","090","",""
"","","","","","html-slider-response","77","226810","0.0-73.0","ju9ery6x7k","41","NaN","<div style=""width:500px;"">
                            <p style=""font-size:50px; font-weight:bold;""
                            >fearful</p>
                            <div style=""width:240px; margin: auto;"">
                                <img src=""images/map12_berlin_scaleRev_orientDef_000.png"" style= ""width:200px""alt=""img"">
                            </div>
                        </div>","114","","0","","","","images/map12_berlin_scaleRev_orientDef_000.png","fearful","1","12","12","berlin","orientDef","scaleRev","000","",""
"","","","","","html-slider-response","78","229011","0.0-74.0","ju9ery6x7k","41","NaN","<div style=""width:500px;"">
                            <p style=""font-size:50px; font-weight:bold;""
                            >fearful</p>
                            <div style=""width:240px; margin: auto;"">
                                <img src=""images/map12_vanimo_scaleRev_orientMir_000.png"" style= ""width:200px""alt=""img"">
                            </div>
                        </div>","-58","","0","","","","images/map12_vanimo_scaleRev_orientMir_000.png","fearful","1","12","12","vanimo","orientMir","scaleRev","000","",""
"","","","","","html-slider-response","79","232611","0.0-75.0","ju9ery6x7k","41","NaN","<div style=""width:500px;"">
                            <p style=""font-size:50px; font-weight:bold;""
                            >fearful</p>
                            <div style=""width:240px; margin: auto;"">
                                <img src=""images/map07_RdYlBu_scaleDef_orientDef_270.png"" style= ""width:200px""alt=""img"">
                            </div>
                        </div>","-34","","0","","","","images/map07_RdYlBu_scaleDef_orientDef_270.png","fearful","1","07","07","RdYlBu","orientDef","scaleDef","270","",""
"","","","","","html-slider-response","80","234360","0.0-76.0","ju9ery6x7k","41","NaN","<div style=""width:500px;"">
                            <p style=""font-size:50px; font-weight:bold;""
                            >fearful</p>
                            <div style=""width:240px; margin: auto;"">
                                <img src=""images/map27_GnBu_scaleRev_orientMir_000.png"" style= ""width:200px""alt=""img"">
                            </div>
                        </div>","-126","","0","","","","images/map27_GnBu_scaleRev_orientMir_000.png","fearful","1","27","27","GnBu","orientMir","scaleRev","000","",""
"","","","","","html-slider-response","81","236376","0.0-77.0","ju9ery6x7k","41","NaN","<div style=""width:500px;"">
                            <p style=""font-size:50px; font-weight:bold;""
                            >fearful</p>
                            <div style=""width:240px; margin: auto;"">
                                <img src=""images/map10_seismic_scaleDef_orientMir_090.png"" style= ""width:200px""alt=""img"">
                            </div>
                        </div>","86","","0","","","","images/map10_seismic_scaleDef_orientMir_090.png","fearful","1","10","10","seismic","orientMir","scaleDef","090","",""
"","","","","","html-slider-response","82","238144","0.0-78.0","ju9ery6x7k","41","NaN","<div style=""width:500px;"">
                            <p style=""font-size:50px; font-weight:bold;""
                            >fearful</p>
                            <div style=""width:240px; margin: auto;"">
                                <img src=""images/map26_YlOrBr_scaleRev_orientDef_000.png"" style= ""width:200px""alt=""img"">
                            </div>
                        </div>","53","","0","","","","images/map26_YlOrBr_scaleRev_orientDef_000.png","fearful","1","26","26","YlOrBr","orientDef","scaleRev","000","",""
"","","","","","html-slider-response","83","240025","0.0-79.0","ju9ery6x7k","41","NaN","<div style=""width:500px;"">
                            <p style=""font-size:50px; font-weight:bold;""
                            >fearful</p>
                            <div style=""width:240px; margin: auto;"">
                                <img src=""images/map23_YlOrBr_scaleDef_orientMir_270.png"" style= ""width:200px""alt=""img"">
                            </div>
                        </div>","40","","0","","","","images/map23_YlOrBr_scaleDef_orientMir_270.png","fearful","1","23","23","YlOrBr","orientMir","scaleDef","270","",""
"","","","","","html-slider-response","84","241810","0.0-80.0","ju9ery6x7k","41","NaN","<div style=""width:500px;"">
                            <p style=""font-size:50px; font-weight:bold;""
                            >fearful</p>
                            <div style=""width:240px; margin: auto;"">
                                <img src=""images/map02_BuGn_scaleRev_orientMir_000.png"" style= ""width:200px""alt=""img"">
                            </div>
                        </div>","-102","","0","","","","images/map02_BuGn_scaleRev_orientMir_000.png","fearful","1","02","02","BuGn","orientMir","scaleRev","000","",""
"","","","","","html-slider-response","85","244476","0.0-81.0","ju9ery6x7k","41","NaN","<div style=""width:500px;"">
                            <p style=""font-size:50px; font-weight:bold;""
                            >fearful</p>
                            <div style=""width:240px; margin: auto;"">
                                <img src=""images/map07_RdYlBu_scaleRev_orientMir_000.png"" style= ""width:200px""alt=""img"">
                            </div>
                        </div>","-13","","0","","","","images/map07_RdYlBu_scaleRev_orientMir_000.png","fearful","1","07","07","RdYlBu","orientMir","scaleRev","000","",""
"","","","","","html-slider-response","86","246227","0.0-82.0","ju9ery6x7k","41","NaN","<div style=""width:500px;"">
                            <p style=""font-size:50px; font-weight:bold;""
                            >fearful</p>
                            <div style=""width:240px; margin: auto;"">
                                <img src=""images/map27_PuBu_scaleDef_orientMir_090.png"" style= ""width:200px""alt=""img"">
                            </div>
                        </div>","-157","","0","","","","images/map27_PuBu_scaleDef_orientMir_090.png","fearful","1","27","27","PuBu","orientMir","scaleDef","090","",""
"","","","","","html-slider-response","87","248593","0.0-83.0","ju9ery6x7k","41","NaN","<div style=""width:500px;"">
                            <p style=""font-size:50px; font-weight:bold;""
                            >fearful</p>
                            <div style=""width:240px; margin: auto;"">
                                <img src=""images/map27_BuPu_scaleDef_orientDef_090.png"" style= ""width:200px""alt=""img"">
                            </div>
                        </div>","-9","","0","","","","images/map27_BuPu_scaleDef_orientDef_090.png","fearful","1","27","27","BuPu","orientDef","scaleDef","090","",""
"","","","","","html-slider-response","88","250493","0.0-84.0","ju9ery6x7k","41","NaN","<div style=""width:500px;"">
                            <p style=""font-size:50px; font-weight:bold;""
                            >fearful</p>
                            <div style=""width:240px; margin: auto;"">
                                <img src=""images/map23_Oranges_scaleRev_orientMir_000.png"" style= ""width:200px""alt=""img"">
                            </div>
                        </div>","2","","0","","","","images/map23_Oranges_scaleRev_orientMir_000.png","fearful","1","23","23","Oranges","orientMir","scaleRev","000","",""
"","","","","","html-slider-response","89","252760","0.0-85.0","ju9ery6x7k","41","NaN","<div style=""width:500px;"">
                            <p style=""font-size:50px; font-weight:bold;""
                            >fearful</p>
                            <div style=""width:240px; margin: auto;"">
                                <img src=""images/map27_RdPu_scaleRev_orientDef_000.png"" style= ""width:200px""alt=""img"">
                            </div>
                        </div>","-148","","0","","","","images/map27_RdPu_scaleRev_orientDef_000.png","fearful","1","27","27","RdPu","orientDef","scaleRev","000","",""
"","","","","","html-slider-response","90","254861","0.0-86.0","ju9ery6x7k","41","NaN","<div style=""width:500px;"">
                            <p style=""font-size:50px; font-weight:bold;""
                            >fearful</p>
                            <div style=""width:240px; margin: auto;"">
                                <img src=""images/map10_berlin_scaleDef_orientMir_270.png"" style= ""width:200px""alt=""img"">
                            </div>
                        </div>","40","","0","","","","images/map10_berlin_scaleDef_orientMir_270.png","fearful","1","10","10","berlin","orientMir","scaleDef","270","",""
"","","","","","html-slider-response","91","256593","0.0-87.0","ju9ery6x7k","41","NaN","<div style=""width:500px;"">
                            <p style=""font-size:50px; font-weight:bold;""
                            >fearful</p>
                            <div style=""width:240px; margin: auto;"">
                                <img src=""images/map27_YlGnBu_scaleDef_orientMir_270.png"" style= ""width:200px""alt=""img"">
                            </div>
                        </div>","-66","","0","","","","images/map27_YlGnBu_scaleDef_orientMir_270.png","fearful","1","27","27","YlGnBu","orientMir","scaleDef","270","",""
"","","","","","html-slider-response","92","258242","0.0-88.0","ju9ery6x7k","41","NaN","<div style=""width:500px;"">
                            <p style=""font-size:50px; font-weight:bold;""
                            >fearful</p>
                            <div style=""width:240px; margin: auto;"">
                                <img src=""images/map07_Spectral_scaleDef_orientMir_270.png"" style= ""width:200px""alt=""img"">
                            </div>
                        </div>","-26","","0","","","","images/map07_Spectral_scaleDef_orientMir_270.png","fearful","1","07","07","Spectral","orientMir","scaleDef","270","",""
"","","","","","html-slider-response","93","259860","0.0-89.0","ju9ery6x7k","41","NaN","<div style=""width:500px;"">
                            <p style=""font-size:50px; font-weight:bold;""
                            >fearful</p>
                            <div style=""width:240px; margin: auto;"">
                                <img src=""images/map07_RdYlGn_scaleRev_orientMir_180.png"" style= ""width:200px""alt=""img"">
                            </div>
                        </div>","-15","","0","","","","images/map07_RdYlGn_scaleRev_orientMir_180.png","fearful","1","07","07","RdYlGn","orientMir","scaleRev","180","",""
"","","","","","html-slider-response","94","261658","0.0-90.0","ju9ery6x7k","41","NaN","<div style=""width:500px;"">
                            <p style=""font-size:50px; font-weight:bold;""
                            >fearful</p>
                            <div style=""width:240px; margin: auto;"">
                                <img src=""images/map02_BuGn_scaleDef_orientDef_270.png"" style= ""width:200px""alt=""img"">
                            </div>
                        </div>","-149","","0","","","","images/map02_BuGn_scaleDef_orientDef_270.png","fearful","1","02","02","BuGn","orientDef","scaleDef","270","",""
"","","","","","html-slider-response","95","263425","0.0-91.0","ju9ery6x7k","41","NaN","<div style=""width:500px;"">
                            <p style=""font-size:50px; font-weight:bold;""
                            >fearful</p>
                            <div style=""width:240px; margin: auto;"">
                                <img src=""images/map23_Oranges_scaleDef_orientDef_270.png"" style= ""width:200px""alt=""img"">
                            </div>
                        </div>","13","","0","","","","images/map23_Oranges_scaleDef_orientDef_270.png","fearful","1","23","23","Oranges","orientDef","scaleDef","270","",""
"","","","","","html-slider-response","96","265243","0.0-92.0","ju9ery6x7k","41","NaN","<div style=""width:500px;"">
                            <p style=""font-size:50px; font-weight:bold;""
                            >fearful</p>
                            <div style=""width:240px; margin: auto;"">
                                <img src=""images/map07_RdYlGn_scaleDef_orientMir_090.png"" style= ""width:200px""alt=""img"">
                            </div>
                        </div>","-10","","0","","","","images/map07_RdYlGn_scaleDef_orientMir_090.png","fearful","1","07","07","RdYlGn","orientMir","scaleDef","090","",""
"","","","","","html-slider-response","97","267359","0.0-93.0","ju9ery6x7k","41","NaN","<div style=""width:500px;"">
                            <p style=""font-size:50px; font-weight:bold;""
                            >fearful</p>
                            <div style=""width:240px; margin: auto;"">
                                <img src=""images/map07_RdBu_scaleRev_orientDef_180.png"" style= ""width:200px""alt=""img"">
                            </div>
                        </div>","-4","","0","","","","images/map07_RdBu_scaleRev_orientDef_180.png","fearful","1","07","07","RdBu","orientDef","scaleRev","180","",""
"","","","","","html-slider-response","98","269075","0.0-94.0","ju9ery6x7k","41","NaN","<div style=""width:500px;"">
                            <p style=""font-size:50px; font-weight:bold;""
                            >fearful</p>
                            <div style=""width:240px; margin: auto;"">
                                <img src=""images/map05_PRGn_scaleRev_orientDef_180.png"" style= ""width:200px""alt=""img"">
                            </div>
                        </div>","-94","","0","","","","images/map05_PRGn_scaleRev_orientDef_180.png","fearful","1","05","05","PRGn","orientDef","scaleRev","180","",""
"","","","","","html-button-response","99","271049","0.0-95.0","ju9ery6x7k","41","1470","<p>Great Job! You've finished block 1.<br></br> You have 4 block(s) left to go.<br></br></p>","0","","","","","","","","","","","","","","","",""
"","","","","","html-button-response","100","272315","0.0-96.0","ju9ery6x7k","41","1264","<p>In this block of trials, you will be asked to rate how much you associate each map with:</p > <p style = 'font-size:150%; font-weight: bold'>sad</p><br></br>","0","","","","","","","","","","","","","","","",""
"","","","","","html-slider-response","101","276343","0.0-97.0","ju9ery6x7k","41","NaN","<div style=""width:500px;"">
                            <p style=""font-size:50px; font-weight:bold;""
                            >sad</p>
                            <div style=""width:240px; margin: auto;"">
                                <img src=""images/map26_PuRd_scaleRev_orientMir_180.png"" style= ""width:200px""alt=""img"">
                            </div>
                        </div>","6","","0","","","","images/map26_PuRd_scaleRev_orientMir_180.png","sad","1","26","26","PuRd","orientMir","scaleRev","180","",""
"","","","","","html-slider-response","102","278075","0.0-98.0","ju9ery6x7k","41","NaN","<div style=""width:500px;"">
                            <p style=""font-size:50px; font-weight:bold;""
                            >sad</p>
                            <div style=""width:240px; margin: auto;"">
                                <img src=""images/map27_BuPu_scaleDef_orientDef_090.png"" style= ""width:200px""alt=""img"">
                            </div>
                        </div>","30","","0","","","","images/map27_BuPu_scaleDef_orientDef_090.png","sad","1","27","27","BuPu","orientDef","scaleDef","090","",""
"","","","","","html-slider-response","103","279826","0.0-99.0","ju9ery6x7k","41","NaN","<div style=""width:500px;"">
                            <p style=""font-size:50px; font-weight:bold;""
                            >sad</p>
                            <div style=""width:240px; margin: auto;"">
                                <img src=""images/map12_turbo_scaleDef_orientMir_270.png"" style= ""width:200px""alt=""img"">
                            </div>
                        </div>","-58","","0","","","","images/map12_turbo_scaleDef_orientMir_270.png","sad","1","12","12","turbo","orientMir","scaleDef","270","",""
"","","","","","html-slider-response","104","282459","0.0-100.0","ju9ery6x7k","41","NaN","<div style=""width:500px;"">
                            <p style=""font-size:50px; font-weight:bold;""
                            >sad</p>
                            <div style=""width:240px; margin: auto;"">
                                <img src=""images/map02_YlGn_scaleDef_orientMir_090.png"" style= ""width:200px""alt=""img"">
                            </div>
                        </div>","-178","","0","","","","images/map02_YlGn_scaleDef_orientMir_090.png","sad","1","02","02","YlGn","orientMir","scaleDef","090","",""
"","","","","","html-slider-response","105","284475","0.0-101.0","ju9ery6x7k","41","NaN","<div style=""width:500px;"">
                            <p style=""font-size:50px; font-weight:bold;""
                            >sad</p>
                            <div style=""width:240px; margin: auto;"">
                                <img src=""images/map05_BrBG_scaleRev_orientMir_000.png"" style= ""width:200px""alt=""img"">
                            </div>
                        </div>","62","","0","","","","images/map05_BrBG_scaleRev_orientMir_000.png","sad","1","05","05","BrBG","orientMir","scaleRev","000","",""
"","","","","","html-slider-response","106","286325","0.0-102.0","ju9ery6x7k","41","NaN","<div style=""width:500px;"">
                            <p style=""font-size:50px; font-weight:bold;""
                            >sad</p>
                            <div style=""width:240px; margin: auto;"">
                                <img src=""images/map26_OrRd_scaleRev_orientMir_000.png"" style= ""width:200px""alt=""img"">
                            </div>
                        </div>","-200","","0","","","","images/map26_OrRd_scaleRev_orientMir_000.png","sad","1","26","26","OrRd","orientMir","scaleRev","000","",""
"","","","","","html-slider-response","107","288725","0.0-103.0","ju9ery6x7k","41","NaN","<div style=""width:500px;"">
                            <p style=""font-size:50px; font-weight:bold;""
                            >sad</p>
                            <div style=""width:240px; margin: auto;"">
                                <img src=""images/map10_bwr_scaleDef_orientDef_270.png"" style= ""width:200px""alt=""img"">
                            </div>
                        </div>","-26","","0","","","","images/map10_bwr_scaleDef_orientDef_270.png","sad","1","10","10","bwr","orientDef","scaleDef","270","",""
"","","","","","html-slider-response","108","291126","0.0-104.0","ju9ery6x7k","41","NaN","<div style=""width:500px;"">
                            <p style=""font-size:50px; font-weight:bold;""
                            >sad</p>
                            <div style=""width:240px; margin: auto;"">
                                <img src=""images/map15_cividis_scaleDef_orientDef_090.png"" style= ""width:200px""alt=""img"">
                            </div>
                        </div>","130","","0","","","","images/map15_cividis_scaleDef_orientDef_090.png","sad","1","15","15","cividis","orientDef","scaleDef","090","",""
"","","","","","html-slider-response","109","292992","0.0-105.0","ju9ery6x7k","41","NaN","<div style=""width:500px;"">
                            <p style=""font-size:50px; font-weight:bold;""
                            >sad</p>
                            <div style=""width:240px; margin: auto;"">
                                <img src=""images/map27_RdPu_scaleRev_orientDef_000.png"" style= ""width:200px""alt=""img"">
                            </div>
                        </div>","20","","0","","","","images/map27_RdPu_scaleRev_orientDef_000.png","sad","1","27","27","RdPu","orientDef","scaleRev","000","",""
"","","","","","html-slider-response","110","295345","0.0-106.0","ju9ery6x7k","41","NaN","<div style=""width:500px;"">
                            <p style=""font-size:50px; font-weight:bold;""
                            >sad</p>
                            <div style=""width:240px; margin: auto;"">
                                <img src=""images/map27_GnBu_scaleRev_orientMir_000.png"" style= ""width:200px""alt=""img"">
                            </div>
                        </div>","-137","","0","","","","images/map27_GnBu_scaleRev_orientMir_000.png","sad","1","27","27","GnBu","orientMir","scaleRev","000","",""
"","","","","","html-slider-response","111","297475","0.0-107.0","ju9ery6x7k","41","NaN","<div style=""width:500px;"">
                            <p style=""font-size:50px; font-weight:bold;""
                            >sad</p>
                            <div style=""width:240px; margin: auto;"">
                                <img src=""images/map10_Spectral_scaleRev_orientDef_000.png"" style= ""width:200px""alt=""img"">
                            </div>
                        </div>","-94","","0","","","","images/map10_Spectral_scaleRev_orientDef_000.png","sad","1","10","10","Spectral","orientDef","scaleRev","000","",""
"","","","","","html-slider-response","112","301509","0.0-108.0","ju9ery6x7k","41","NaN","<div style=""width:500px;"">
                            <p style=""font-size:50px; font-weight:bold;""
                            >sad</p>
                            <div style=""width:240px; margin: auto;"">
                                <img src=""images/map05_BrBG_scaleDef_orientDef_270.png"" style= ""width:200px""alt=""img"">
                            </div>
                        </div>","-10","","0","","","","images/map05_BrBG_scaleDef_orientDef_270.png","sad","1","05","05","BrBG","orientDef","scaleDef","270","",""
"","","","","","html-slider-response","113","303359","0.0-109.0","ju9ery6x7k","41","NaN","<div style=""width:500px;"">
                            <p style=""font-size:50px; font-weight:bold;""
                            >sad</p>
                            <div style=""width:240px; margin: auto;"">
                                <img src=""images/map15_Greys_scaleRev_orientMir_000.png"" style= ""width:200px""alt=""img"">
                            </div>
                        </div>","166","","0","","","","images/map15_Greys_scaleRev_orientMir_000.png","sad","1","15","15","Greys","orientMir","scaleRev","000","",""
"","","","","","html-slider-response","114","305160","0.0-110.0","ju9ery6x7k","41","NaN","<div style=""width:500px;"">
                            <p style=""font-size:50px; font-weight:bold;""
                            >sad</p>
                            <div style=""width:240px; margin: auto;"">
                                <img src=""images/map13_turbo_scaleRev_orientDef_000.png"" style= ""width:200px""alt=""img"">
                            </div>
                        </div>","-36","","0","","","","images/map13_turbo_scaleRev_orientDef_000.png","sad","1","13","13","turbo","orientDef","scaleRev","000","",""
"","","","","","html-slider-response","115","306960","0.0-111.0","ju9ery6x7k","41","NaN","<div style=""width:500px;"">
                            <p style=""font-size:50px; font-weight:bold;""
                            >sad</p>
                            <div style=""width:240px; margin: auto;"">
                                <img src=""images/map07_RdBu_scaleRev_orientDef_180.png"" style= ""width:200px""alt=""img"">
                            </div>
                        </div>","-19","","0","","","","images/map07_RdBu_scaleRev_orientDef_180.png","sad","1","07","07","RdBu","orientDef","scaleRev","180","",""
"","","","","","html-slider-response","116","308591","0.0-112.0","ju9ery6x7k","41","NaN","<div style=""width:500px;"">
                            <p style=""font-size:50px; font-weight:bold;""
                            >sad</p>
                            <div style=""width:240px; margin: auto;"">
                                <img src=""images/map23_Oranges_scaleDef_orientDef_270.png"" style= ""width:200px""alt=""img"">
                            </div>
                        </div>","-8","","0","","","","images/map23_Oranges_scaleDef_orientDef_270.png","sad","1","23","23","Oranges","orientDef","scaleDef","270","",""
"","","","","","html-slider-response","117","310593","0.0-113.0","ju9ery6x7k","41","NaN","<div style=""width:500px;"">
                            <p style=""font-size:50px; font-weight:bold;""
                            >sad</p>
                            <div style=""width:240px; margin: auto;"">
                                <img src=""images/map07_RdGy_scaleRev_orientDef_000.png"" style= ""width:200px""alt=""img"">
                            </div>
                        </div>","-123","","0","","","","images/map07_RdGy_scaleRev_orientDef_000.png","sad","1","07","07","RdGy","orientDef","scaleRev","000","",""
"","","","","","html-slider-response","118","312675","0.0-114.0","ju9ery6x7k","41","NaN","<div style=""width:500px;"">
                            <p style=""font-size:50px; font-weight:bold;""
                            >sad</p>
                            <div style=""width:240px; margin: auto;"">
                                <img src=""images/map10_berlin_scaleDef_orientMir_270.png"" style= ""width:200px""alt=""img"">
                            </div>
                        </div>","107","","0","","","","images/map10_berlin_scaleDef_orientMir_270.png","sad","1","10","10","berlin","orientMir","scaleDef","270","",""
"","","","","","html-slider-response","119","314462","0.0-115.0","ju9ery6x7k","41","NaN","<div style=""width:500px;"">
                            <p style=""font-size:50px; font-weight:bold;""
                            >sad</p>
                            <div style=""width:240px; margin: auto;"">
                                <img src=""images/map27_BuPu_scaleRev_orientDef_180.png"" style= ""width:200px""alt=""img"">
                            </div>
                        </div>","71","","0","","","","images/map27_BuPu_scaleRev_orientDef_180.png","sad","1","27","27","BuPu","orientDef","scaleRev","180","",""
"","","","","","html-slider-response","120","316692","0.0-116.0","ju9ery6x7k","41","NaN","<div style=""width:500px;"">
                            <p style=""font-size:50px; font-weight:bold;""
                            >sad</p>
                            <div style=""width:240px; margin: auto;"">
                                <img src=""images/map26_PuRd_scaleDef_orientMir_090.png"" style= ""width:200px""alt=""img"">
                            </div>
                        </div>","24","","0","","","","images/map26_PuRd_scaleDef_orientMir_090.png","sad","1","26","26","PuRd","orientMir","scaleDef","090","",""
"","","","","","html-slider-response","121","319158","0.0-117.0","ju9ery6x7k","41","NaN","<div style=""width:500px;"">
                            <p style=""font-size:50px; font-weight:bold;""
                            >sad</p>
                            <div style=""width:240px; margin: auto;"">
                                <img src=""images/map02_YlGnBu_scaleRev_orientDef_000.png"" style= ""width:200px""alt=""img"">
                            </div>
                        </div>","90","","0","","","","images/map02_YlGnBu_scaleRev_orientDef_000.png","sad","1","02","02","YlGnBu","orientDef","scaleRev","000","",""
"","","","","","html-slider-response","122","321226","0.0-118.0","ju9ery6x7k","41","NaN","<div style=""width:500px;"">
                            <p style=""font-size:50px; font-weight:bold;""
                            >sad</p>
                            <div style=""width:240px; margin: auto;"">
                                <img src=""images/map27_PuBu_scaleRev_orientMir_180.png"" style= ""width:200px""alt=""img"">
                            </div>
                        </div>","-81","","0","","","","images/map27_PuBu_scaleRev_orientMir_180.png","sad","1","27","27","PuBu","orientMir","scaleRev","180","",""
"","","","","","html-slider-response","123","323694","0.0-119.0","ju9ery6x7k","41","NaN","<div style=""width:500px;"">
                            <p style=""font-size:50px; font-weight:bold;""
                            >sad</p>
                            <div style=""width:240px; margin: auto;"">
                                <img src=""images/map26_YlOrBr_scaleRev_orientDef_000.png"" style= ""width:200px""alt=""img"">
                            </div>
                        </div>","-200","","0","","","","images/map26_YlOrBr_scaleRev_orientDef_000.png","sad","1","26","26","YlOrBr","orientDef","scaleRev","000","",""
"","","","","","html-slider-response","124","325526","0.0-120.0","ju9ery6x7k","41","NaN","<div style=""width:500px;"">
                            <p style=""font-size:50px; font-weight:bold;""
                            >sad</p>
                            <div style=""width:240px; margin: auto;"">
                                <img src=""images/map26_YlOrRd_scaleRev_orientDef_180.png"" style= ""width:200px""alt=""img"">
                            </div>
                        </div>","-200","","0","","","","images/map26_YlOrRd_scaleRev_orientDef_180.png","sad","1","26","26","YlOrRd","orientDef","scaleRev","180","",""
"","","","","","html-slider-response","125","327644","0.0-121.0","ju9ery6x7k","41","NaN","<div style=""width:500px;"">
                            <p style=""font-size:50px; font-weight:bold;""
                            >sad</p>
                            <div style=""width:240px; margin: auto;"">
                                <img src=""images/map13_plasma_scaleDef_orientDef_270.png"" style= ""width:200px""alt=""img"">
                            </div>
                        </div>","-110","","0","","","","images/map13_plasma_scaleDef_orientDef_270.png","sad","1","13","13","plasma","orientDef","scaleDef","270","",""
"","","","","","html-slider-response","126","330226","0.0-122.0","ju9ery6x7k","41","NaN","<div style=""width:500px;"">
                            <p style=""font-size:50px; font-weight:bold;""
                            >sad</p>
                            <div style=""width:240px; margin: auto;"">
                                <img src=""images/map12_berlin_scaleRev_orientDef_000.png"" style= ""width:200px""alt=""img"">
                            </div>
                        </div>","21","","0","","","","images/map12_berlin_scaleRev_orientDef_000.png","sad","1","12","12","berlin","orientDef","scaleRev","000","",""
"","","","","","html-slider-response","127","332542","0.0-123.0","ju9ery6x7k","41","NaN","<div style=""width:500px;"">
                            <p style=""font-size:50px; font-weight:bold;""
                            >sad</p>
                            <div style=""width:240px; margin: auto;"">
                                <img src=""images/map05_PuOr_scaleRev_orientMir_180.png"" style= ""width:200px""alt=""img"">
                            </div>
                        </div>","-43","","0","","","","images/map05_PuOr_scaleRev_orientMir_180.png","sad","1","05","05","PuOr","orientMir","scaleRev","180","",""
"","","","","","html-slider-response","128","334543","0.0-124.0","ju9ery6x7k","41","NaN","<div style=""width:500px;"">
                            <p style=""font-size:50px; font-weight:bold;""
                            >sad</p>
                            <div style=""width:240px; margin: auto;"">
                                <img src=""images/map23_Oranges_scaleRev_orientMir_000.png"" style= ""width:200px""alt=""img"">
                            </div>
                        </div>","-166","","0","","","","images/map23_Oranges_scaleRev_orientMir_000.png","sad","1","23","23","Oranges","orientMir","scaleRev","000","",""
"","","","","","html-slider-response","129","336458","0.0-125.0","ju9ery6x7k","41","NaN","<div style=""width:500px;"">
                            <p style=""font-size:50px; font-weight:bold;""
                            >sad</p>
                            <div style=""width:240px; margin: auto;"">
                                <img src=""images/map23_Reds_scaleRev_orientMir_180.png"" style= ""width:200px""alt=""img"">
                            </div>
                        </div>","-183","","0","","","","images/map23_Reds_scaleRev_orientMir_180.png","sad","1","23","23","Reds","orientMir","scaleRev","180","",""
"","","","","","html-slider-response","130","338576","0.0-126.0","ju9ery6x7k","41","NaN","<div style=""width:500px;"">
                            <p style=""font-size:50px; font-weight:bold;""
                            >sad</p>
                            <div style=""width:240px; margin: auto;"">
                                <img src=""images/map12_managua_scaleDef_orientDef_090.png"" style= ""width:200px""alt=""img"">
                            </div>
                        </div>","8","","0","","","","images/map12_managua_scaleDef_orientDef_090.png","sad","1","12","12","managua","orientDef","scaleDef","090","",""
"","","","","","html-slider-response","131","341310","0.0-127.0","ju9ery6x7k","41","NaN","<div style=""width:500px;"">
                            <p style=""font-size:50px; font-weight:bold;""
                            >sad</p>
                            <div style=""width:240px; margin: auto;"">
                                <img src=""images/map26_YlOrRd_scaleDef_orientDef_090.png"" style= ""width:200px""alt=""img"">
                            </div>
                        </div>","-98","","0","","","","images/map26_YlOrRd_scaleDef_orientDef_090.png","sad","1","26","26","YlOrRd","orientDef","scaleDef","090","",""
"","","","","","html-slider-response","132","343860","0.0-128.0","ju9ery6x7k","41","NaN","<div style=""width:500px;"">
                            <p style=""font-size:50px; font-weight:bold;""
                            >sad</p>
                            <div style=""width:240px; margin: auto;"">
                                <img src=""images/map12_vanimo_scaleDef_orientDef_270.png"" style= ""width:200px""alt=""img"">
                            </div>
                        </div>","-80","","0","","","","images/map12_vanimo_scaleDef_orientDef_270.png","sad","1","12","12","vanimo","orientDef","scaleDef","270","",""
"","","","","","html-slider-response","133","346758","0.0-129.0","ju9ery6x7k","41","NaN","<div style=""width:500px;"">
                            <p style=""font-size:50px; font-weight:bold;""
                            >sad</p>
                            <div style=""width:240px; margin: auto;"">
                                <img src=""images/map07_RdBu_scaleDef_orientDef_090.png"" style= ""width:200px""alt=""img"">
                            </div>
                        </div>","-43","","0","","","","images/map07_RdBu_scaleDef_orientDef_090.png","sad","1","07","07","RdBu","orientDef","scaleDef","090","",""
"","","","","","html-slider-response","134","349874","0.0-130.0","ju9ery6x7k","41","NaN","<div style=""width:500px;"">
                            <p style=""font-size:50px; font-weight:bold;""
                            >sad</p>
                            <div style=""width:240px; margin: auto;"">
                                <img src=""images/map27_YlGnBu_scaleDef_orientMir_270.png"" style= ""width:200px""alt=""img"">
                            </div>
                        </div>","-62","","0","","","","images/map27_YlGnBu_scaleDef_orientMir_270.png","sad","1","27","27","YlGnBu","orientMir","scaleDef","270","",""
"","","","","","html-slider-response","135","351641","0.0-131.0","ju9ery6x7k","41","NaN","<div style=""width:500px;"">
                            <p style=""font-size:50px; font-weight:bold;""
                            >sad</p>
                            <div style=""width:240px; margin: auto;"">
                                <img src=""images/map07_RdYlBu_scaleRev_orientMir_000.png"" style= ""width:200px""alt=""img"">
                            </div>
                        </div>","-22","","0","","","","images/map07_RdYlBu_scaleRev_orientMir_000.png","sad","1","07","07","RdYlBu","orientMir","scaleRev","000","",""
"","","","","","html-slider-response","136","353275","0.0-132.0","ju9ery6x7k","41","NaN","<div style=""width:500px;"">
                            <p style=""font-size:50px; font-weight:bold;""
                            >sad</p>
                            <div style=""width:240px; margin: auto;"">
                                <img src=""images/map07_RdYlBu_scaleDef_orientDef_270.png"" style= ""width:200px""alt=""img"">
                            </div>
                        </div>","-142","","0","","","","images/map07_RdYlBu_scaleDef_orientDef_270.png","sad","1","07","07","RdYlBu","orientDef","scaleDef","270","",""
"","","","","","html-slider-response","137","355524","0.0-133.0","ju9ery6x7k","41","NaN","<div style=""width:500px;"">
                            <p style=""font-size:50px; font-weight:bold;""
                            >sad</p>
                            <div style=""width:240px; margin: auto;"">
                                <img src=""images/map10_bwr_scaleRev_orientMir_000.png"" style= ""width:200px""alt=""img"">
                            </div>
                        </div>","-112","","0","","","","images/map10_bwr_scaleRev_orientMir_000.png","sad","1","10","10","bwr","orientMir","scaleRev","000","",""
"","","","","","html-slider-response","138","357958","0.0-134.0","ju9ery6x7k","41","NaN","<div style=""width:500px;"">
                            <p style=""font-size:50px; font-weight:bold;""
                            >sad</p>
                            <div style=""width:240px; margin: auto;"">
                                <img src=""images/map15_magma_scaleRev_orientDef_000.png"" style= ""width:200px""alt=""img"">
                            </div>
                        </div>","-112","","0","","","","images/map15_magma_scaleRev_orientDef_000.png","sad","1","15","15","magma","orientDef","scaleRev","000","",""
"","","","","","html-slider-response","139","359476","0.0-135.0","ju9ery6x7k","41","NaN","<div style=""width:500px;"">
                            <p style=""font-size:50px; font-weight:bold;""
                            >sad</p>
                            <div style=""width:240px; margin: auto;"">
                                <img src=""images/map26_RdPu_scaleDef_orientMir_270.png"" style= ""width:200px""alt=""img"">
                            </div>
                        </div>","-62","","0","","","","images/map26_RdPu_scaleDef_orientMir_270.png","sad","1","26","26","RdPu","orientMir","scaleDef","270","",""
"","","","","","html-slider-response","140","361408","0.0-136.0","ju9ery6x7k","41","NaN","<div style=""width:500px;"">
                            <p style=""font-size:50px; font-weight:bold;""
                            >sad</p>
                            <div style=""width:240px; margin: auto;"">
                                <img src=""images/map07_Spectral_scaleDef_orientMir_270.png"" style= ""width:200px""alt=""img"">
                            </div>
                        </div>","-108","","0","","","","images/map07_Spectral_scaleDef_orientMir_270.png","sad","1","07","07","Spectral","orientMir","scaleDef","270","",""
"","","","","","html-button-response","141","363064","0.0-137.0","ju9ery6x7k","41","1154","<p>You are doing great!<br></br> You are halway done with the current block. When you are ready to continue, click the 'Continue' button.</p>","0","","","","","","","","","","","","","","","",""
"","","","","","html-slider-response","142","364492","0.0-138.0","ju9ery6x7k","41","NaN","<div style=""width:500px;"">
                            <p style=""font-size:50px; font-weight:bold;""
                            >sad</p>
                            <div style=""width:240px; margin: auto;"">
                                <img src=""images/map26_OrRd_scaleDef_orientDef_270.png"" style= ""width:200px""alt=""img"">
                            </div>
                        </div>","-185","","0","","","","images/map26_OrRd_scaleDef_orientDef_270.png","sad","1","26","26","OrRd","orientDef","scaleDef","270","",""
"","","","","","html-slider-response","143","366957","0.0-139.0","ju9ery6x7k","41","NaN","<div style=""width:500px;"">
                            <p style=""font-size:50px; font-weight:bold;""
                            >sad</p>
                            <div style=""width:240px; margin: auto;"">
                                <img src=""images/map23_Greens_scaleRev_orientDef_180.png"" style= ""width:200px""alt=""img"">
                            </div>
                        </div>","-109","","0","","","","images/map23_Greens_scaleRev_orientDef_180.png","sad","1","23","23","Greens","orientDef","scaleRev","180","",""
"","","","","","html-slider-response","144","370876","0.0-140.0","ju9ery6x7k","41","NaN","<div style=""width:500px;"">
                            <p style=""font-size:50px; font-weight:bold;""
                            >sad</p>
                            <div style=""width:240px; margin: auto;"">
                                <img src=""images/map02_PuBuGn_scaleRev_orientDef_180.png"" style= ""width:200px""alt=""img"">
                            </div>
                        </div>","200","","0","","","","images/map02_PuBuGn_scaleRev_orientDef_180.png","sad","1","02","02","PuBuGn","orientDef","scaleRev","180","",""
"","","","","","html-slider-response","145","373208","0.0-141.0","ju9ery6x7k","41","NaN","<div style=""width:500px;"">
                            <p style=""font-size:50px; font-weight:bold;""
                            >sad</p>
                            <div style=""width:240px; margin: auto;"">
                                <img src=""images/map15_cividis_scaleRev_orientDef_180.png"" style= ""width:200px""alt=""img"">
                            </div>
                        </div>","14","","0","","","","images/map15_cividis_scaleRev_orientDef_180.png","sad","1","15","15","cividis","orientDef","scaleRev","180","",""
"","","","","","html-slider-response","146","375625","0.0-142.0","ju9ery6x7k","41","NaN","<div style=""width:500px;"">
                            <p style=""font-size:50px; font-weight:bold;""
                            >sad</p>
                            <div style=""width:240px; margin: auto;"">
                                <img src=""images/map02_PuBuGn_scaleDef_orientDef_090.png"" style= ""width:200px""alt=""img"">
                            </div>
                        </div>","-61","","0","","","","images/map02_PuBuGn_scaleDef_orientDef_090.png","sad","1","02","02","PuBuGn","orientDef","scaleDef","090","",""
"","","","","","html-slider-response","147","377858","0.0-143.0","ju9ery6x7k","41","NaN","<div style=""width:500px;"">
                            <p style=""font-size:50px; font-weight:bold;""
                            >sad</p>
                            <div style=""width:240px; margin: auto;"">
                                <img src=""images/map10_seismic_scaleDef_orientMir_090.png"" style= ""width:200px""alt=""img"">
                            </div>
                        </div>","-138","","0","","","","images/map10_seismic_scaleDef_orientMir_090.png","sad","1","10","10","seismic","orientMir","scaleDef","090","",""
"","","","","","html-slider-response","148","379608","0.0-144.0","ju9ery6x7k","41","NaN","<div style=""width:500px;"">
                            <p style=""font-size:50px; font-weight:bold;""
                            >sad</p>
                            <div style=""width:240px; margin: auto;"">
                                <img src=""images/map05_PRGn_scaleRev_orientDef_180.png"" style= ""width:200px""alt=""img"">
                            </div>
                        </div>","-138","","0","","","","images/map05_PRGn_scaleRev_orientDef_180.png","sad","1","05","05","PRGn","orientDef","scaleRev","180","",""
"","","","","","html-slider-response","149","382158","0.0-145.0","ju9ery6x7k","41","NaN","<div style=""width:500px;"">
                            <p style=""font-size:50px; font-weight:bold;""
                            >sad</p>
                            <div style=""width:240px; margin: auto;"">
                                <img src=""images/map05_RdGy_scaleDef_orientMir_270.png"" style= ""width:200px""alt=""img"">
                            </div>
                        </div>","-106","","0","","","","images/map05_RdGy_scaleDef_orientMir_270.png","sad","1","05","05","RdGy","orientMir","scaleDef","270","",""
"","","","","","html-slider-response","150","384475","0.0-146.0","ju9ery6x7k","41","NaN","<div style=""width:500px;"">
                            <p style=""font-size:50px; font-weight:bold;""
                            >sad</p>
                            <div style=""width:240px; margin: auto;"">
                                <img src=""images/map10_coolwarm_scaleRev_orientDef_180.png"" style= ""width:200px""alt=""img"">
                            </div>
                        </div>","-150","","0","","","","images/map10_coolwarm_scaleRev_orientDef_180.png","sad","1","10","10","coolwarm","orientDef","scaleRev","180","",""
"","","","","","html-slider-response","151","386459","0.0-147.0","ju9ery6x7k","41","NaN","<div style=""width:500px;"">
                            <p style=""font-size:50px; font-weight:bold;""
                            >sad</p>
                            <div style=""width:240px; margin: auto;"">
                                <img src=""images/map02_PiYG_scaleDef_orientMir_270.png"" style= ""width:200px""alt=""img"">
                            </div>
                        </div>","-134","","0","","","","images/map02_PiYG_scaleDef_orientMir_270.png","sad","1","02","02","PiYG","orientMir","scaleDef","270","",""
"","","","","","html-slider-response","152","389641","0.0-148.0","ju9ery6x7k","41","NaN","<div style=""width:500px;"">
                            <p style=""font-size:50px; font-weight:bold;""
                            >sad</p>
                            <div style=""width:240px; margin: auto;"">
                                <img src=""images/map23_Reds_scaleDef_orientMir_090.png"" style= ""width:200px""alt=""img"">
                            </div>
                        </div>","-200","","0","","","","images/map23_Reds_scaleDef_orientMir_090.png","sad","1","23","23","Reds","orientMir","scaleDef","090","",""
"","","","","","html-slider-response","153","391458","0.0-149.0","ju9ery6x7k","41","NaN","<div style=""width:500px;"">
                            <p style=""font-size:50px; font-weight:bold;""
                            >sad</p>
                            <div style=""width:240px; margin: auto;"">
                                <img src=""images/map23_YlOrBr_scaleDef_orientMir_270.png"" style= ""width:200px""alt=""img"">
                            </div>
                        </div>","-200","","0","","","","images/map23_YlOrBr_scaleDef_orientMir_270.png","sad","1","23","23","YlOrBr","orientMir","scaleDef","270","",""
"","","","","","html-slider-response","154","393759","0.0-150.0","ju9ery6x7k","41","NaN","<div style=""width:500px;"">
                            <p style=""font-size:50px; font-weight:bold;""
                            >sad</p>
                            <div style=""width:240px; margin: auto;"">
                                <img src=""images/map10_coolwarm_scaleDef_orientDef_090.png"" style= ""width:200px""alt=""img"">
                            </div>
                        </div>","-163","","0","","","","images/map10_coolwarm_scaleDef_orientDef_090.png","sad","1","10","10","coolwarm","orientDef","scaleDef","090","",""
"","","","","","html-slider-response","155","397008","0.0-151.0","ju9ery6x7k","41","NaN","<div style=""width:500px;"">
                            <p style=""font-size:50px; font-weight:bold;""
                            >sad</p>
                            <div style=""width:240px; margin: auto;"">
                                <img src=""images/map12_gist_earth_scaleDef_orientMir_090.png"" style= ""width:200px""alt=""img"">
                            </div>
                        </div>","-131","","0","","","","images/map12_gist_earth_scaleDef_orientMir_090.png","sad","1","12","12","gist","scaleDef","earth","orientMir","",""
"","","","","","html-slider-response","156","399891","0.0-152.0","ju9ery6x7k","41","NaN","<div style=""width:500px;"">
                            <p style=""font-size:50px; font-weight:bold;""
                            >sad</p>
                            <div style=""width:240px; margin: auto;"">
                                <img src=""images/map05_PRGn_scaleDef_orientDef_090.png"" style= ""width:200px""alt=""img"">
                            </div>
                        </div>","-129","","0","","","","images/map05_PRGn_scaleDef_orientDef_090.png","sad","1","05","05","PRGn","orientDef","scaleDef","090","",""
"","","","","","html-slider-response","157","402842","0.0-153.0","ju9ery6x7k","41","NaN","<div style=""width:500px;"">
                            <p style=""font-size:50px; font-weight:bold;""
                            >sad</p>
                            <div style=""width:240px; margin: auto;"">
                                <img src=""images/map05_PiYG_scaleRev_orientDef_000.png"" style= ""width:200px""alt=""img"">
                            </div>
                        </div>","-142","","0","","","","images/map05_PiYG_scaleRev_orientDef_000.png","sad","1","05","05","PiYG","orientDef","scaleRev","000","",""
