"success","timeout","failed_images","failed_audio","failed_video","trial_type","trial_index","time_elapsed","internal_node_id","subject_id","condition_num","rt","stimulus","response","question_order","slider_start","practiceTrial","practiceTrialNum","correct","image_path","concept","repetition","map_id","map_num","scale_name","orientation_code","mapping_code","rotation_code","ishihara_plate","correct_response"
"true","false","[]","[]","[]","preload","0","674","0.0-0.0","kh4zgujq9w","58","","","","","","","","","","","","","","","","","","",""
"","","","","","html-button-response","1","1924","0.0-1.0","kh4zgujq9w","58","1247","Welcome to our experiment!<p>At the bottom of this screen, you will see a button that says ""Begin Experiment"".<br>Please only click that button when you are ready to complete the 30 minute experiment in one sitting.</p><p> Once you click that button, it will not be possible to restart the experiment.","0","","","","","","","","","","","","","","","",""
"true","","","","","fullscreen","2","4380","0.0-2.0","kh4zgujq9w","58","1441","","","","","","","","","","","","","","","","","",""
"","","","","","survey-multi-select","3","17345","0.0-3.0","kh4zgujq9w","58","12960","","{""Consent"":[""<strong>I consent</strong>""]}","[0]","","","","","","","","","","","","","","",""
"","","","","","html-button-response","4","18597","0.0-4.0","kh4zgujq9w","58","1248","Welcome! <p> This experiment involves two parts: demographic information, followed by the experimental task.<p> It will take about 30 minutes to complete both parts.","0","","","","","","","","","","","","","","","",""
"","","","","","survey-text","5","38830","0.0-5.0","kh4zgujq9w","58","20208","","{""Age"":""20"",""Gender"":""Man"",""Race/ethnicity"":""White"",""Languages"":""English \nVery little spanish""}","","","","","","","","","","","","","","","",""
"","","","","","html-slider-response","6","51031","0.0-6.0","kh4zgujq9w","58","12195","<div style='text-align:left; font-size:20px; line-height:25px; width: 1000px;'>
                                During this experiment you will be asked to rate how much you associate maps with                    different concepts.<br> Below, you can see some examples of the maps you will be asked to rate. Above the maps
                    is the list of concepts.<br>You will be asked                    to rate how much you associate each map with each concept on a scale from 'not at all' to 'very much' like the
                    one below. <br><br>
                    Now, please look at the list of concepts and maps. For each concept, think about the map you associate 'very
                    much' with the concept.<br>                     When you see that map during the experiment, please rate it near the 'very much' endpoint of the
                    scale.<br>Now, please think about which map you associate 'not at all'                     with each concept. When you see that map during the experiment, please rate it near the 'not at all' endpoint
                    of the scale.<br>
                    Please use the full range of the scale. That is, if a map is somewhat associated with the concept, you would
                    click partway between the middle point and right side of the scale.                    You will be asked to rate each map for a given concept before moving on to the next concept.<br>Press the
                    'Continue' button for instructions on how to use the slider.                    <br>
                </div>

                <div style=""width: 500px; margin: 0 auto;"">
                    <!-- Centered text paragraphs -->
                    <div style=""text-align: center; width: 500px;"">
                        <p style=""font-size:25px; line-height:15px;"">
                            disgust&nbsp;&nbsp;&nbsp;&nbsp;
                            fearful&nbsp;&nbsp;&nbsp;&nbsp;
                            angry&nbsp;&nbsp;&nbsp;&nbsp;
                            sad&nbsp;&nbsp;&nbsp;&nbsp;
                            happy
                        </p>
                        <!-- <p style=""font-size:20px; line-height:15px;"">fearful</p>
                        <p style=""font-size:20px;line-height:15px;"">angry</p>
                        <p style=""font-size:20px;line-height:15px;"">sad</p>
                        <p style=""font-size:20px;line-height:15px;"">happy</p> -->
                    </div>
            

                    <!-- Grid section -->
                   <div style=""display: flex; justify-content: center; padding-top: 15px;"">
                    <div style=""display: grid; grid-template-columns: repeat(10, 55px); grid-gap: 5px; width: auto;"">
                        <img src=""images/map10_PRGn_scaleDef_orientDef_180.png"" alt=""map"" style=""width: 100%;""><img src=""images/map27_Reds_scaleRev_orientMir_270.png"" alt=""map"" style=""width: 100%;""><img src=""images/map27_Blues_scaleDef_orientDef_000.png"" alt=""map"" style=""width: 100%;""><img src=""images/map02_PuRd_scaleDef_orientMir_180.png"" alt=""map"" style=""width: 100%;""><img src=""images/map15_berlin_scaleDef_orientDef_000.png"" alt=""map"" style=""width: 100%;""><img src=""images/map27_Greens_scaleRev_orientDef_270.png"" alt=""map"" style=""width: 100%;""><img src=""images/map23_plasma_scaleRev_orientMir_090.png"" alt=""map"" style=""width: 100%;""><img src=""images/map07_YlGn_scaleRev_orientMir_270.png"" alt=""map"" style=""width: 100%;""><img src=""images/map12_RdYlBu_scaleDef_orientMir_000.png"" alt=""map"" style=""width: 100%;""><img src=""images/map05_RdPu_scaleRev_orientDef_090.png"" alt=""map"" style=""width: 100%;""><img src=""images/map10_BrBG_scaleDef_orientMir_000.png"" alt=""map"" style=""width: 100%;""><img src=""images/map13_seismic_scaleRev_orientMir_270.png"" alt=""map"" style=""width: 100%;""><img src=""images/map05_PuBu_scaleDef_orientMir_180.png"" alt=""map"" style=""width: 100%;""><img src=""images/map02_YlOrBr_scaleRev_orientDef_090.png"" alt=""map"" style=""width: 100%;""><img src=""images/map15_gist_earth_scaleDef_orientMir_180.png"" alt=""map"" style=""width: 100%;""><img src=""images/map07_YlGnBu_scaleRev_orientDef_090.png"" alt=""map"" style=""width: 100%;""><img src=""images/map12_RdBu_scaleDef_orientDef_180.png"" alt=""map"" style=""width: 100%;""><img src=""images/map13_bwr_scaleDef_orientMir_000.png"" alt=""map"" style=""width: 100%;""><img src=""images/map15_managua_scaleDef_orientDef_180.png"" alt=""map"" style=""width: 100%;""><img src=""images/map13_coolwarm_scaleDef_orientDef_180.png"" alt=""map"" style=""width: 100%;""><img src=""images/map10_PuOr_scaleDef_orientMir_180.png"" alt=""map"" style=""width: 100%;""><img src=""images/map23_inferno_scaleDef_orientMir_180.png"" alt=""map"" style=""width: 100%;""><img src=""images/map05_GnBu_scaleRev_orientMir_090.png"" alt=""map"" style=""width: 100%;""><img src=""images/map12_RdGy_scaleRev_orientDef_090.png"" alt=""map"" style=""width: 100%;""><img src=""images/map23_viridis_scaleDef_orientDef_180.png"" alt=""map"" style=""width: 100%;""><img src=""images/map13_Spectral_scaleDef_orientDef_000.png"" alt=""map"" style=""width: 100%;""><img src=""images/map23_turbo_scaleDef_orientDef_000.png"" alt=""map"" style=""width: 100%;""><img src=""images/map26_cividis_scaleRev_orientDef_270.png"" alt=""map"" style=""width: 100%;""><img src=""images/map02_YlOrRd_scaleDef_orientDef_180.png"" alt=""map"" style=""width: 100%;""><img src=""images/map15_vanimo_scaleRev_orientMir_090.png"" alt=""map"" style=""width: 100%;""><img src=""images/map07_BuGn_scaleRev_orientMir_090.png"" alt=""map"" style=""width: 100%;""><img src=""images/map26_Purples_scaleRev_orientMir_270.png"" alt=""map"" style=""width: 100%;""><img src=""images/map27_Oranges_scaleDef_orientMir_000.png"" alt=""map"" style=""width: 100%;""><img src=""images/map10_PiYG_scaleRev_orientDef_090.png"" alt=""map"" style=""width: 100%;""><img src=""images/map26_magma_scaleRev_orientDef_090.png"" alt=""map"" style=""width: 100%;""><img src=""images/map05_BuPu_scaleDef_orientDef_180.png"" alt=""map"" style=""width: 100%;""><img src=""images/map26_Greys_scaleDef_orientMir_000.png"" alt=""map"" style=""width: 100%;""><img src=""images/map07_PuBuGn_scaleDef_orientDef_180.png"" alt=""map"" style=""width: 100%;""><img src=""images/map02_OrRd_scaleRev_orientMir_090.png"" alt=""map"" style=""width: 100%;""><img src=""images/map12_RdYlGn_scaleRev_orientMir_270.png"" alt=""map"" style=""width: 100%;"">
                    </div>
                </div>

                    <!-- Clear floats -->
                    <div style=""clear: both;""></div>
                </div>
                            ","1","","0","true","","","","","","","","","","","","",""
"","","","","","html-button-response","7","52473","0.0-7.0","kh4zgujq9w","58","1440","<div style=""width:800px;""><p style=""text-align:left"">To move the slider, click and drag your cursor to the location of the scale where you would like to make your rating and then let go. When you let go of the slider, your response will be recorded and the next trial will begin. <br>
                    We are interested in your initial impressions of each map for the given concept, so please go with your first intuition. <br>
                    Before you begin the experiment, there will be four training trials for you to practice using the scale. <br>
                     When you are ready to start the training trials, please click ""Continue"".</p><br></div>","0","","","","","","","","","","","","","","","",""
"","","","","","html-slider-response","8","55236","0.0-8.0-0.0","kh4zgujq9w","58","NaN","<div style=""width:500px;"">
                                    <p style=""font-size:25px;"">Please move the slider all the way to the <br> right endpoint of the scale</p>

                                    </div>
                                </div>","3","","0","true","0","false","","","","","","","","","","",""
"","","","","","html-button-response","9","57492","0.0-8.0-1.0","kh4zgujq9w","58","1753","<p align='center'><b>Not quite!</b> The slider was not placed near the instructed located. Click on 'Continue' to try again. </p>","0","","","","","","","","","","","","","","","",""
"","","","","","html-slider-response","10","58865","0.0-8.1-0.1","kh4zgujq9w","58","NaN","<div style=""width:500px;"">
                                    <p style=""font-size:25px;"">Please move the slider all the way to the <br> right endpoint of the scale</p>

                                    </div>
                                </div>","200","","0","true","0","true","","","","","","","","","","",""
"","","","","","html-button-response","11","60153","0.0-8.1-1.1","kh4zgujq9w","58","785","<p align='center'><b>Good job!</b> Click on 'Continue' to proceed.</p>","0","","","","","","","","","","","","","","","",""
"","","","","","html-slider-response","12","62130","0.0-9.0-0.0","kh4zgujq9w","58","NaN","<div style=""width:500px;"">
                                    <p style=""font-size:25px;"">Please move the slider all the way to the <br> left endpoint of the scale</p>

                                    </div>
                                </div>","-200","","0","true","1","true","","","","","","","","","","",""
"","","","","","html-button-response","13","63588","0.0-9.0-1.0","kh4zgujq9w","58","955","<p align='center'><b>Good job!</b> Click on 'Continue' to proceed.</p>","0","","","","","","","","","","","","","","","",""
"","","","","","html-slider-response","14","67214","0.0-10.0-0.0","kh4zgujq9w","58","NaN","<div style=""width:500px;"">
                                    <p style=""font-size:25px;"">Please move the slider halfway between the center and right endpoint of the scale</p>

                                    </div>
                                </div>","93","","0","true","2","true","","","","","","","","","","",""
"","","","","","html-button-response","15","68420","0.0-10.0-1.0","kh4zgujq9w","58","704","<p align='center'><b>Good job!</b> Click on 'Continue' to proceed.</p>","0","","","","","","","","","","","","","","","",""
"","","","","","html-slider-response","16","70662","0.0-11.0-0.0","kh4zgujq9w","58","NaN","<div style=""width:500px;"">
                                    <p style=""font-size:25px;"">Please move the slider halfway between the center and left endpoint of the scale</p>

                                    </div>
                                </div>","-91","","0","true","3","true","","","","","","","","","","",""
"","","","","","html-button-response","17","72024","0.0-11.0-1.0","kh4zgujq9w","58","857","<p align='center'><b>Good job!</b> Click on 'Continue' to proceed.</p>","0","","","","","","","","","","","","","","","",""
"","","","","","html-button-response","18","72806","0.0-12.0","kh4zgujq9w","58","781","<p>Great job! You've completed the practice trials. Now you will begin the main task.</p>","0","","","","","","","","","","","","","","","",""
"","","","","","html-button-response","19","74960","0.0-13.0","kh4zgujq9w","58","2152","<p>In this block of trials, you will be asked to rate how much you associate each map with:</p > <p style = 'font-size:150%; font-weight: bold'>disgust</p><br></br>","0","","","","","","","","","","","","","","","",""
"","","","","","html-slider-response","20","78494","0.0-14.0","kh4zgujq9w","58","NaN","<div style=""width:500px;"">
                            <p style=""font-size:50px; font-weight:bold;""
                            >disgust</p>
                            <div style=""width:240px; margin: auto;"">
                                <img src=""images/map05_BuPu_scaleDef_orientDef_180.png"" style= ""width:200px""alt=""img"">
                            </div>
                        </div>","62","","0","","","","images/map05_BuPu_scaleDef_orientDef_180.png","disgust","1","05","05","BuPu","orientDef","scaleDef","180","",""
"","","","","","html-slider-response","21","81226","0.0-15.0","kh4zgujq9w","58","NaN","<div style=""width:500px;"">
                            <p style=""font-size:50px; font-weight:bold;""
                            >disgust</p>
                            <div style=""width:240px; margin: auto;"">
                                <img src=""images/map10_BrBG_scaleDef_orientMir_000.png"" style= ""width:200px""alt=""img"">
                            </div>
                        </div>","200","","0","","","","images/map10_BrBG_scaleDef_orientMir_000.png","disgust","1","10","10","BrBG","orientMir","scaleDef","000","",""
"","","","","","html-slider-response","22","83333","0.0-16.0","kh4zgujq9w","58","NaN","<div style=""width:500px;"">
                            <p style=""font-size:50px; font-weight:bold;""
                            >disgust</p>
                            <div style=""width:240px; margin: auto;"">
                                <img src=""images/map26_Purples_scaleDef_orientMir_180.png"" style= ""width:200px""alt=""img"">
                            </div>
                        </div>","-79","","0","","","","images/map26_Purples_scaleDef_orientMir_180.png","disgust","1","26","26","Purples","orientMir","scaleDef","180","",""
"","","","","","html-slider-response","23","85236","0.0-17.0","kh4zgujq9w","58","NaN","<div style=""width:500px;"">
                            <p style=""font-size:50px; font-weight:bold;""
                            >disgust</p>
                            <div style=""width:240px; margin: auto;"">
                                <img src=""images/map15_gist_earth_scaleRev_orientMir_270.png"" style= ""width:200px""alt=""img"">
                            </div>
                        </div>","144","","0","","","","images/map15_gist_earth_scaleRev_orientMir_270.png","disgust","1","15","15","gist","scaleRev","earth","orientMir","",""
"","","","","","html-slider-response","24","87257","0.0-18.0","kh4zgujq9w","58","NaN","<div style=""width:500px;"">
                            <p style=""font-size:50px; font-weight:bold;""
                            >disgust</p>
                            <div style=""width:240px; margin: auto;"">
                                <img src=""images/map05_GnBu_scaleDef_orientMir_000.png"" style= ""width:200px""alt=""img"">
                            </div>
                        </div>","-118","","0","","","","images/map05_GnBu_scaleDef_orientMir_000.png","disgust","1","05","05","GnBu","orientMir","scaleDef","000","",""
"","","","","","html-slider-response","25","91964","0.0-19.0","kh4zgujq9w","58","NaN","<div style=""width:500px;"">
                            <p style=""font-size:50px; font-weight:bold;""
                            >disgust</p>
                            <div style=""width:240px; margin: auto;"">
                                <img src=""images/map13_coolwarm_scaleDef_orientDef_180.png"" style= ""width:200px""alt=""img"">
                            </div>
                        </div>","-4","","0","","","","images/map13_coolwarm_scaleDef_orientDef_180.png","disgust","1","13","13","coolwarm","orientDef","scaleDef","180","",""
"","","","","","html-slider-response","26","94172","0.0-20.0","kh4zgujq9w","58","NaN","<div style=""width:500px;"">
                            <p style=""font-size:50px; font-weight:bold;""
                            >disgust</p>
                            <div style=""width:240px; margin: auto;"">
                                <img src=""images/map27_Greens_scaleDef_orientDef_180.png"" style= ""width:200px""alt=""img"">
                            </div>
                        </div>","200","","0","","","","images/map27_Greens_scaleDef_orientDef_180.png","disgust","1","27","27","Greens","orientDef","scaleDef","180","",""
"","","","","","html-slider-response","27","96469","0.0-21.0","kh4zgujq9w","58","NaN","<div style=""width:500px;"">
                            <p style=""font-size:50px; font-weight:bold;""
                            >disgust</p>
                            <div style=""width:240px; margin: auto;"">
                                <img src=""images/map10_PRGn_scaleRev_orientDef_270.png"" style= ""width:200px""alt=""img"">
                            </div>
                        </div>","179","","0","","","","images/map10_PRGn_scaleRev_orientDef_270.png","disgust","1","10","10","PRGn","orientDef","scaleRev","270","",""
"","","","","","html-slider-response","28","100044","0.0-22.0","kh4zgujq9w","58","NaN","<div style=""width:500px;"">
                            <p style=""font-size:50px; font-weight:bold;""
                            >disgust</p>
                            <div style=""width:240px; margin: auto;"">
                                <img src=""images/map10_PuOr_scaleRev_orientMir_270.png"" style= ""width:200px""alt=""img"">
                            </div>
                        </div>","54","","0","","","","images/map10_PuOr_scaleRev_orientMir_270.png","disgust","1","10","10","PuOr","orientMir","scaleRev","270","",""
"","","","","","html-slider-response","29","104265","0.0-23.0","kh4zgujq9w","58","NaN","<div style=""width:500px;"">
                            <p style=""font-size:50px; font-weight:bold;""
                            >disgust</p>
                            <div style=""width:240px; margin: auto;"">
                                <img src=""images/map02_PuRd_scaleDef_orientMir_180.png"" style= ""width:200px""alt=""img"">
                            </div>
                        </div>","-105","","0","","","","images/map02_PuRd_scaleDef_orientMir_180.png","disgust","1","02","02","PuRd","orientMir","scaleDef","180","",""
"","","","","","html-slider-response","30","105959","0.0-24.0","kh4zgujq9w","58","NaN","<div style=""width:500px;"">
                            <p style=""font-size:50px; font-weight:bold;""
                            >disgust</p>
                            <div style=""width:240px; margin: auto;"">
                                <img src=""images/map07_YlGnBu_scaleRev_orientDef_090.png"" style= ""width:200px""alt=""img"">
                            </div>
                        </div>","50","","0","","","","images/map07_YlGnBu_scaleRev_orientDef_090.png","disgust","1","07","07","YlGnBu","orientDef","scaleRev","090","",""
"","","","","","html-slider-response","31","107552","0.0-25.0","kh4zgujq9w","58","NaN","<div style=""width:500px;"">
                            <p style=""font-size:50px; font-weight:bold;""
                            >disgust</p>
                            <div style=""width:240px; margin: auto;"">
                                <img src=""images/map05_RdPu_scaleRev_orientDef_090.png"" style= ""width:200px""alt=""img"">
                            </div>
                        </div>","-43","","0","","","","images/map05_RdPu_scaleRev_orientDef_090.png","disgust","1","05","05","RdPu","orientDef","scaleRev","090","",""
"","","","","","html-slider-response","32","108923","0.0-26.0","kh4zgujq9w","58","NaN","<div style=""width:500px;"">
                            <p style=""font-size:50px; font-weight:bold;""
                            >disgust</p>
                            <div style=""width:240px; margin: auto;"">
                                <img src=""images/map05_PuBu_scaleRev_orientMir_270.png"" style= ""width:200px""alt=""img"">
                            </div>
                        </div>","1","","0","","","","images/map05_PuBu_scaleRev_orientMir_270.png","disgust","1","05","05","PuBu","orientMir","scaleRev","270","",""
"","","","","","html-slider-response","33","111611","0.0-27.0","kh4zgujq9w","58","NaN","<div style=""width:500px;"">
                            <p style=""font-size:50px; font-weight:bold;""
                            >disgust</p>
                            <div style=""width:240px; margin: auto;"">
                                <img src=""images/map07_BuGn_scaleDef_orientMir_000.png"" style= ""width:200px""alt=""img"">
                            </div>
                        </div>","102","","0","","","","images/map07_BuGn_scaleDef_orientMir_000.png","disgust","1","07","07","BuGn","orientMir","scaleDef","000","",""
"","","","","","html-slider-response","34","113417","0.0-28.0","kh4zgujq9w","58","NaN","<div style=""width:500px;"">
                            <p style=""font-size:50px; font-weight:bold;""
                            >disgust</p>
                            <div style=""width:240px; margin: auto;"">
                                <img src=""images/map12_RdYlBu_scaleRev_orientMir_090.png"" style= ""width:200px""alt=""img"">
                            </div>
                        </div>","200","","0","","","","images/map12_RdYlBu_scaleRev_orientMir_090.png","disgust","1","12","12","RdYlBu","orientMir","scaleRev","090","",""
"","","","","","html-slider-response","35","115482","0.0-29.0","kh4zgujq9w","58","NaN","<div style=""width:500px;"">
                            <p style=""font-size:50px; font-weight:bold;""
                            >disgust</p>
                            <div style=""width:240px; margin: auto;"">
                                <img src=""images/map27_Oranges_scaleDef_orientMir_000.png"" style= ""width:200px""alt=""img"">
                            </div>
                        </div>","95","","0","","","","images/map27_Oranges_scaleDef_orientMir_000.png","disgust","1","27","27","Oranges","orientMir","scaleDef","000","",""
"","","","","","html-slider-response","36","117075","0.0-30.0","kh4zgujq9w","58","NaN","<div style=""width:500px;"">
                            <p style=""font-size:50px; font-weight:bold;""
                            >disgust</p>
                            <div style=""width:240px; margin: auto;"">
                                <img src=""images/map13_Spectral_scaleDef_orientDef_000.png"" style= ""width:200px""alt=""img"">
                            </div>
                        </div>","118","","0","","","","images/map13_Spectral_scaleDef_orientDef_000.png","disgust","1","13","13","Spectral","orientDef","scaleDef","000","",""
"","","","","","html-slider-response","37","118576","0.0-31.0","kh4zgujq9w","58","NaN","<div style=""width:500px;"">
                            <p style=""font-size:50px; font-weight:bold;""
                            >disgust</p>
                            <div style=""width:240px; margin: auto;"">
                                <img src=""images/map27_Reds_scaleRev_orientMir_270.png"" style= ""width:200px""alt=""img"">
                            </div>
                        </div>","200","","0","","","","images/map27_Reds_scaleRev_orientMir_270.png","disgust","1","27","27","Reds","orientMir","scaleRev","270","",""
"","","","","","html-slider-response","38","120117","0.0-32.0","kh4zgujq9w","58","NaN","<div style=""width:500px;"">
                            <p style=""font-size:50px; font-weight:bold;""
                            >disgust</p>
                            <div style=""width:240px; margin: auto;"">
                                <img src=""images/map12_RdBu_scaleDef_orientDef_180.png"" style= ""width:200px""alt=""img"">
                            </div>
                        </div>","62","","0","","","","images/map12_RdBu_scaleDef_orientDef_180.png","disgust","1","12","12","RdBu","orientDef","scaleDef","180","",""
"","","","","","html-slider-response","39","121541","0.0-33.0","kh4zgujq9w","58","NaN","<div style=""width:500px;"">
                            <p style=""font-size:50px; font-weight:bold;""
                            >disgust</p>
                            <div style=""width:240px; margin: auto;"">
                                <img src=""images/map26_magma_scaleDef_orientDef_000.png"" style= ""width:200px""alt=""img"">
                            </div>
                        </div>","-82","","0","","","","images/map26_magma_scaleDef_orientDef_000.png","disgust","1","26","26","magma","orientDef","scaleDef","000","",""
"","","","","","html-slider-response","40","123042","0.0-34.0","kh4zgujq9w","58","NaN","<div style=""width:500px;"">
                            <p style=""font-size:50px; font-weight:bold;""
                            >disgust</p>
                            <div style=""width:240px; margin: auto;"">
                                <img src=""images/map26_Purples_scaleRev_orientMir_270.png"" style= ""width:200px""alt=""img"">
                            </div>
                        </div>","-2","","0","","","","images/map26_Purples_scaleRev_orientMir_270.png","disgust","1","26","26","Purples","orientMir","scaleRev","270","",""
"","","","","","html-slider-response","41","124674","0.0-35.0","kh4zgujq9w","58","NaN","<div style=""width:500px;"">
                            <p style=""font-size:50px; font-weight:bold;""
                            >disgust</p>
                            <div style=""width:240px; margin: auto;"">
                                <img src=""images/map15_gist_earth_scaleDef_orientMir_180.png"" style= ""width:200px""alt=""img"">
                            </div>
                        </div>","189","","0","","","","images/map15_gist_earth_scaleDef_orientMir_180.png","disgust","1","15","15","gist","scaleDef","earth","orientMir","",""
"","","","","","html-slider-response","42","126192","0.0-36.0","kh4zgujq9w","58","NaN","<div style=""width:500px;"">
                            <p style=""font-size:50px; font-weight:bold;""
                            >disgust</p>
                            <div style=""width:240px; margin: auto;"">
                                <img src=""images/map12_RdYlGn_scaleDef_orientMir_180.png"" style= ""width:200px""alt=""img"">
                            </div>
                        </div>","133","","0","","","","images/map12_RdYlGn_scaleDef_orientMir_180.png","disgust","1","12","12","RdYlGn","orientMir","scaleDef","180","",""
"","","","","","html-slider-response","43","128500","0.0-37.0","kh4zgujq9w","58","NaN","<div style=""width:500px;"">
                            <p style=""font-size:50px; font-weight:bold;""
                            >disgust</p>
                            <div style=""width:240px; margin: auto;"">
                                <img src=""images/map13_seismic_scaleDef_orientMir_180.png"" style= ""width:200px""alt=""img"">
                            </div>
                        </div>","-129","","0","","","","images/map13_seismic_scaleDef_orientMir_180.png","disgust","1","13","13","seismic","orientMir","scaleDef","180","",""
"","","","","","html-slider-response","44","130519","0.0-38.0","kh4zgujq9w","58","NaN","<div style=""width:500px;"">
                            <p style=""font-size:50px; font-weight:bold;""
                            >disgust</p>
                            <div style=""width:240px; margin: auto;"">
                                <img src=""images/map23_turbo_scaleDef_orientDef_000.png"" style= ""width:200px""alt=""img"">
                            </div>
                        </div>","94","","0","","","","images/map23_turbo_scaleDef_orientDef_000.png","disgust","1","23","23","turbo","orientDef","scaleDef","000","",""
"","","","","","html-slider-response","45","132130","0.0-39.0","kh4zgujq9w","58","NaN","<div style=""width:500px;"">
                            <p style=""font-size:50px; font-weight:bold;""
                            >disgust</p>
                            <div style=""width:240px; margin: auto;"">
                                <img src=""images/map02_YlOrBr_scaleDef_orientDef_000.png"" style= ""width:200px""alt=""img"">
                            </div>
                        </div>","113","","0","","","","images/map02_YlOrBr_scaleDef_orientDef_000.png","disgust","1","02","02","YlOrBr","orientDef","scaleDef","000","",""
"","","","","","html-slider-response","46","136407","0.0-40.0","kh4zgujq9w","58","NaN","<div style=""width:500px;"">
                            <p style=""font-size:50px; font-weight:bold;""
                            >disgust</p>
                            <div style=""width:240px; margin: auto;"">
                                <img src=""images/map23_inferno_scaleRev_orientMir_270.png"" style= ""width:200px""alt=""img"">
                            </div>
                        </div>","109","","0","","","","images/map23_inferno_scaleRev_orientMir_270.png","disgust","1","23","23","inferno","orientMir","scaleRev","270","",""
"","","","","","html-slider-response","47","137916","0.0-41.0","kh4zgujq9w","58","NaN","<div style=""width:500px;"">
                            <p style=""font-size:50px; font-weight:bold;""
                            >disgust</p>
                            <div style=""width:240px; margin: auto;"">
                                <img src=""images/map07_YlGn_scaleRev_orientMir_270.png"" style= ""width:200px""alt=""img"">
                            </div>
                        </div>","-64","","0","","","","images/map07_YlGn_scaleRev_orientMir_270.png","disgust","1","07","07","YlGn","orientMir","scaleRev","270","",""
"","","","","","html-slider-response","48","139243","0.0-42.0","kh4zgujq9w","58","NaN","<div style=""width:500px;"">
                            <p style=""font-size:50px; font-weight:bold;""
                            >disgust</p>
                            <div style=""width:240px; margin: auto;"">
                                <img src=""images/map12_RdBu_scaleRev_orientDef_270.png"" style= ""width:200px""alt=""img"">
                            </div>
                        </div>","93","","0","","","","images/map12_RdBu_scaleRev_orientDef_270.png","disgust","1","12","12","RdBu","orientDef","scaleRev","270","",""
"","","","","","html-slider-response","49","140345","0.0-43.0","kh4zgujq9w","58","NaN","<div style=""width:500px;"">
                            <p style=""font-size:50px; font-weight:bold;""
                            >disgust</p>
                            <div style=""width:240px; margin: auto;"">
                                <img src=""images/map10_PuOr_scaleDef_orientMir_180.png"" style= ""width:200px""alt=""img"">
                            </div>
                        </div>","-79","","0","","","","images/map10_PuOr_scaleDef_orientMir_180.png","disgust","1","10","10","PuOr","orientMir","scaleDef","180","",""
"","","","","","html-slider-response","50","143172","0.0-44.0","kh4zgujq9w","58","NaN","<div style=""width:500px;"">
                            <p style=""font-size:50px; font-weight:bold;""
                            >disgust</p>
                            <div style=""width:240px; margin: auto;"">
                                <img src=""images/map15_vanimo_scaleRev_orientMir_090.png"" style= ""width:200px""alt=""img"">
                            </div>
                        </div>","54","","0","","","","images/map15_vanimo_scaleRev_orientMir_090.png","disgust","1","15","15","vanimo","orientMir","scaleRev","090","",""
"","","","","","html-slider-response","51","145031","0.0-45.0","kh4zgujq9w","58","NaN","<div style=""width:500px;"">
                            <p style=""font-size:50px; font-weight:bold;""
                            >disgust</p>
                            <div style=""width:240px; margin: auto;"">
                                <img src=""images/map05_PuBu_scaleDef_orientMir_180.png"" style= ""width:200px""alt=""img"">
                            </div>
                        </div>","-92","","0","","","","images/map05_PuBu_scaleDef_orientMir_180.png","disgust","1","05","05","PuBu","orientMir","scaleDef","180","",""
"","","","","","html-slider-response","52","147527","0.0-46.0","kh4zgujq9w","58","NaN","<div style=""width:500px;"">
                            <p style=""font-size:50px; font-weight:bold;""
                            >disgust</p>
                            <div style=""width:240px; margin: auto;"">
                                <img src=""images/map15_vanimo_scaleDef_orientMir_000.png"" style= ""width:200px""alt=""img"">
                            </div>
                        </div>","133","","0","","","","images/map15_vanimo_scaleDef_orientMir_000.png","disgust","1","15","15","vanimo","orientMir","scaleDef","000","",""
"","","","","","html-slider-response","53","148992","0.0-47.0","kh4zgujq9w","58","NaN","<div style=""width:500px;"">
                            <p style=""font-size:50px; font-weight:bold;""
                            >disgust</p>
                            <div style=""width:240px; margin: auto;"">
                                <img src=""images/map23_inferno_scaleDef_orientMir_180.png"" style= ""width:200px""alt=""img"">
                            </div>
                        </div>","129","","0","","","","images/map23_inferno_scaleDef_orientMir_180.png","disgust","1","23","23","inferno","orientMir","scaleDef","180","",""
"","","","","","html-slider-response","54","150757","0.0-48.0","kh4zgujq9w","58","NaN","<div style=""width:500px;"">
                            <p style=""font-size:50px; font-weight:bold;""
                            >disgust</p>
                            <div style=""width:240px; margin: auto;"">
                                <img src=""images/map15_berlin_scaleRev_orientDef_090.png"" style= ""width:200px""alt=""img"">
                            </div>
                        </div>","-191","","0","","","","images/map15_berlin_scaleRev_orientDef_090.png","disgust","1","15","15","berlin","orientDef","scaleRev","090","",""
"","","","","","html-slider-response","55","152249","0.0-49.0","kh4zgujq9w","58","NaN","<div style=""width:500px;"">
                            <p style=""font-size:50px; font-weight:bold;""
                            >disgust</p>
                            <div style=""width:240px; margin: auto;"">
                                <img src=""images/map26_Greys_scaleRev_orientMir_090.png"" style= ""width:200px""alt=""img"">
                            </div>
                        </div>","-199","","0","","","","images/map26_Greys_scaleRev_orientMir_090.png","disgust","1","26","26","Greys","orientMir","scaleRev","090","",""
"","","","","","html-slider-response","56","153742","0.0-50.0","kh4zgujq9w","58","NaN","<div style=""width:500px;"">
                            <p style=""font-size:50px; font-weight:bold;""
                            >disgust</p>
                            <div style=""width:240px; margin: auto;"">
                                <img src=""images/map13_seismic_scaleRev_orientMir_270.png"" style= ""width:200px""alt=""img"">
                            </div>
                        </div>","3","","0","","","","images/map13_seismic_scaleRev_orientMir_270.png","disgust","1","13","13","seismic","orientMir","scaleRev","270","",""
"","","","","","html-slider-response","57","155178","0.0-51.0","kh4zgujq9w","58","NaN","<div style=""width:500px;"">
                            <p style=""font-size:50px; font-weight:bold;""
                            >disgust</p>
                            <div style=""width:240px; margin: auto;"">
                                <img src=""images/map26_Greys_scaleDef_orientMir_000.png"" style= ""width:200px""alt=""img"">
                            </div>
                        </div>","-141","","0","","","","images/map26_Greys_scaleDef_orientMir_000.png","disgust","1","26","26","Greys","orientMir","scaleDef","000","",""
"","","","","","html-slider-response","58","156848","0.0-52.0","kh4zgujq9w","58","NaN","<div style=""width:500px;"">
                            <p style=""font-size:50px; font-weight:bold;""
                            >disgust</p>
                            <div style=""width:240px; margin: auto;"">
                                <img src=""images/map26_cividis_scaleDef_orientDef_180.png"" style= ""width:200px""alt=""img"">
                            </div>
                        </div>","61","","0","","","","images/map26_cividis_scaleDef_orientDef_180.png","disgust","1","26","26","cividis","orientDef","scaleDef","180","",""
"","","","","","html-slider-response","59","158546","0.0-53.0","kh4zgujq9w","58","NaN","<div style=""width:500px;"">
                            <p style=""font-size:50px; font-weight:bold;""
                            >disgust</p>
                            <div style=""width:240px; margin: auto;"">
                                <img src=""images/map12_RdGy_scaleRev_orientDef_090.png"" style= ""width:200px""alt=""img"">
                            </div>
                        </div>","-54","","0","","","","images/map12_RdGy_scaleRev_orientDef_090.png","disgust","1","12","12","RdGy","orientDef","scaleRev","090","",""
"","","","","","html-button-response","60","160294","0.0-54.0","kh4zgujq9w","58","1245","<p>You are doing great!<br></br> You are halway done with the current block. When you are ready to continue, click the 'Continue' button.</p>","0","","","","","","","","","","","","","","","",""
"","","","","","html-slider-response","61","161960","0.0-55.0","kh4zgujq9w","58","NaN","<div style=""width:500px;"">
                            <p style=""font-size:50px; font-weight:bold;""
                            >disgust</p>
                            <div style=""width:240px; margin: auto;"">
                                <img src=""images/map07_PuBuGn_scaleRev_orientDef_270.png"" style= ""width:200px""alt=""img"">
                            </div>
                        </div>","-74","","0","","","","images/map07_PuBuGn_scaleRev_orientDef_270.png","disgust","1","07","07","PuBuGn","orientDef","scaleRev","270","",""
"","","","","","html-slider-response","62","164071","0.0-56.0","kh4zgujq9w","58","NaN","<div style=""width:500px;"">
                            <p style=""font-size:50px; font-weight:bold;""
                            >disgust</p>
                            <div style=""width:240px; margin: auto;"">
                                <img src=""images/map02_YlOrBr_scaleRev_orientDef_090.png"" style= ""width:200px""alt=""img"">
                            </div>
                        </div>","92","","0","","","","images/map02_YlOrBr_scaleRev_orientDef_090.png","disgust","1","02","02","YlOrBr","orientDef","scaleRev","090","",""
"","","","","","html-slider-response","63","165392","0.0-57.0","kh4zgujq9w","58","NaN","<div style=""width:500px;"">
                            <p style=""font-size:50px; font-weight:bold;""
                            >disgust</p>
                            <div style=""width:240px; margin: auto;"">
                                <img src=""images/map26_magma_scaleRev_orientDef_090.png"" style= ""width:200px""alt=""img"">
                            </div>
                        </div>","-3","","0","","","","images/map26_magma_scaleRev_orientDef_090.png","disgust","1","26","26","magma","orientDef","scaleRev","090","",""
"","","","","","html-slider-response","64","167155","0.0-58.0","kh4zgujq9w","58","NaN","<div style=""width:500px;"">
                            <p style=""font-size:50px; font-weight:bold;""
                            >disgust</p>
                            <div style=""width:240px; margin: auto;"">
                                <img src=""images/map15_berlin_scaleDef_orientDef_000.png"" style= ""width:200px""alt=""img"">
                            </div>
                        </div>","-114","","0","","","","images/map15_berlin_scaleDef_orientDef_000.png","disgust","1","15","15","berlin","orientDef","scaleDef","000","",""
"","","","","","html-slider-response","65","168981","0.0-59.0","kh4zgujq9w","58","NaN","<div style=""width:500px;"">
                            <p style=""font-size:50px; font-weight:bold;""
                            >disgust</p>
                            <div style=""width:240px; margin: auto;"">
                                <img src=""images/map05_GnBu_scaleRev_orientMir_090.png"" style= ""width:200px""alt=""img"">
                            </div>
                        </div>","-83","","0","","","","images/map05_GnBu_scaleRev_orientMir_090.png","disgust","1","05","05","GnBu","orientMir","scaleRev","090","",""
"","","","","","html-slider-response","66","171041","0.0-60.0","kh4zgujq9w","58","NaN","<div style=""width:500px;"">
                            <p style=""font-size:50px; font-weight:bold;""
                            >disgust</p>
                            <div style=""width:240px; margin: auto;"">
                                <img src=""images/map07_YlGn_scaleDef_orientMir_180.png"" style= ""width:200px""alt=""img"">
                            </div>
                        </div>","127","","0","","","","images/map07_YlGn_scaleDef_orientMir_180.png","disgust","1","07","07","YlGn","orientMir","scaleDef","180","",""
"","","","","","html-slider-response","67","172385","0.0-61.0","kh4zgujq9w","58","NaN","<div style=""width:500px;"">
                            <p style=""font-size:50px; font-weight:bold;""
                            >disgust</p>
                            <div style=""width:240px; margin: auto;"">
                                <img src=""images/map27_Reds_scaleDef_orientMir_180.png"" style= ""width:200px""alt=""img"">
                            </div>
                        </div>","-77","","0","","","","images/map27_Reds_scaleDef_orientMir_180.png","disgust","1","27","27","Reds","orientMir","scaleDef","180","",""
"","","","","","html-slider-response","68","174120","0.0-62.0","kh4zgujq9w","58","NaN","<div style=""width:500px;"">
                            <p style=""font-size:50px; font-weight:bold;""
                            >disgust</p>
                            <div style=""width:240px; margin: auto;"">
                                <img src=""images/map27_Oranges_scaleRev_orientMir_090.png"" style= ""width:200px""alt=""img"">
                            </div>
                        </div>","-45","","0","","","","images/map27_Oranges_scaleRev_orientMir_090.png","disgust","1","27","27","Oranges","orientMir","scaleRev","090","",""
"","","","","","html-slider-response","69","175767","0.0-63.0","kh4zgujq9w","58","NaN","<div style=""width:500px;"">
                            <p style=""font-size:50px; font-weight:bold;""
                            >disgust</p>
                            <div style=""width:240px; margin: auto;"">
                                <img src=""images/map26_cividis_scaleRev_orientDef_270.png"" style= ""width:200px""alt=""img"">
                            </div>
                        </div>","-80","","0","","","","images/map26_cividis_scaleRev_orientDef_270.png","disgust","1","26","26","cividis","orientDef","scaleRev","270","",""
"","","","","","html-slider-response","70","177577","0.0-64.0","kh4zgujq9w","58","NaN","<div style=""width:500px;"">
                            <p style=""font-size:50px; font-weight:bold;""
                            >disgust</p>
                            <div style=""width:240px; margin: auto;"">
                                <img src=""images/map27_Blues_scaleRev_orientDef_090.png"" style= ""width:200px""alt=""img"">
                            </div>
                        </div>","-138","","0","","","","images/map27_Blues_scaleRev_orientDef_090.png","disgust","1","27","27","Blues","orientDef","scaleRev","090","",""
"","","","","","html-slider-response","71","179056","0.0-65.0","kh4zgujq9w","58","NaN","<div style=""width:500px;"">
                            <p style=""font-size:50px; font-weight:bold;""
                            >disgust</p>
                            <div style=""width:240px; margin: auto;"">
                                <img src=""images/map23_turbo_scaleRev_orientDef_090.png"" style= ""width:200px""alt=""img"">
                            </div>
                        </div>","164","","0","","","","images/map23_turbo_scaleRev_orientDef_090.png","disgust","1","23","23","turbo","orientDef","scaleRev","090","",""
"","","","","","html-slider-response","72","180739","0.0-66.0","kh4zgujq9w","58","NaN","<div style=""width:500px;"">
                            <p style=""font-size:50px; font-weight:bold;""
                            >disgust</p>
                            <div style=""width:240px; margin: auto;"">
                                <img src=""images/map15_managua_scaleDef_orientDef_180.png"" style= ""width:200px""alt=""img"">
                            </div>
                        </div>","-4","","0","","","","images/map15_managua_scaleDef_orientDef_180.png","disgust","1","15","15","managua","orientDef","scaleDef","180","",""
"","","","","","html-slider-response","73","182132","0.0-67.0","kh4zgujq9w","58","NaN","<div style=""width:500px;"">
                            <p style=""font-size:50px; font-weight:bold;""
                            >disgust</p>
                            <div style=""width:240px; margin: auto;"">
                                <img src=""images/map23_plasma_scaleDef_orientMir_000.png"" style= ""width:200px""alt=""img"">
                            </div>
                        </div>","-74","","0","","","","images/map23_plasma_scaleDef_orientMir_000.png","disgust","1","23","23","plasma","orientMir","scaleDef","000","",""
"","","","","","html-slider-response","74","183833","0.0-68.0","kh4zgujq9w","58","NaN","<div style=""width:500px;"">
                            <p style=""font-size:50px; font-weight:bold;""
                            >disgust</p>
                            <div style=""width:240px; margin: auto;"">
                                <img src=""images/map27_Greens_scaleRev_orientDef_270.png"" style= ""width:200px""alt=""img"">
                            </div>
                        </div>","-97","","0","","","","images/map27_Greens_scaleRev_orientDef_270.png","disgust","1","27","27","Greens","orientDef","scaleRev","270","",""
"","","","","","html-slider-response","75","185489","0.0-69.0","kh4zgujq9w","58","NaN","<div style=""width:500px;"">
                            <p style=""font-size:50px; font-weight:bold;""
                            >disgust</p>
                            <div style=""width:240px; margin: auto;"">
                                <img src=""images/map23_plasma_scaleRev_orientMir_090.png"" style= ""width:200px""alt=""img"">
                            </div>
                        </div>","-53","","0","","","","images/map23_plasma_scaleRev_orientMir_090.png","disgust","1","23","23","plasma","orientMir","scaleRev","090","",""
"","","","","","html-slider-response","76","186971","0.0-70.0","kh4zgujq9w","58","NaN","<div style=""width:500px;"">
                            <p style=""font-size:50px; font-weight:bold;""
                            >disgust</p>
                            <div style=""width:240px; margin: auto;"">
                                <img src=""images/map05_RdPu_scaleDef_orientDef_000.png"" style= ""width:200px""alt=""img"">
                            </div>
                        </div>","93","","0","","","","images/map05_RdPu_scaleDef_orientDef_000.png","disgust","1","05","05","RdPu","orientDef","scaleDef","000","",""
"","","","","","html-slider-response","77","188416","0.0-71.0","kh4zgujq9w","58","NaN","<div style=""width:500px;"">
                            <p style=""font-size:50px; font-weight:bold;""
                            >disgust</p>
                            <div style=""width:240px; margin: auto;"">
                                <img src=""images/map05_BuPu_scaleRev_orientDef_270.png"" style= ""width:200px""alt=""img"">
                            </div>
                        </div>","51","","0","","","","images/map05_BuPu_scaleRev_orientDef_270.png","disgust","1","05","05","BuPu","orientDef","scaleRev","270","",""
"","","","","","html-slider-response","78","189828","0.0-72.0","kh4zgujq9w","58","NaN","<div style=""width:500px;"">
                            <p style=""font-size:50px; font-weight:bold;""
                            >disgust</p>
                            <div style=""width:240px; margin: auto;"">
                                <img src=""images/map10_PiYG_scaleRev_orientDef_090.png"" style= ""width:200px""alt=""img"">
                            </div>
                        </div>","89","","0","","","","images/map10_PiYG_scaleRev_orientDef_090.png","disgust","1","10","10","PiYG","orientDef","scaleRev","090","",""
"","","","","","html-slider-response","79","191134","0.0-73.0","kh4zgujq9w","58","NaN","<div style=""width:500px;"">
                            <p style=""font-size:50px; font-weight:bold;""
                            >disgust</p>
                            <div style=""width:240px; margin: auto;"">
                                <img src=""images/map10_BrBG_scaleRev_orientMir_090.png"" style= ""width:200px""alt=""img"">
                            </div>
                        </div>","106","","0","","","","images/map10_BrBG_scaleRev_orientMir_090.png","disgust","1","10","10","BrBG","orientMir","scaleRev","090","",""
"","","","","","html-slider-response","80","192560","0.0-74.0","kh4zgujq9w","58","NaN","<div style=""width:500px;"">
                            <p style=""font-size:50px; font-weight:bold;""
                            >disgust</p>
                            <div style=""width:240px; margin: auto;"">
                                <img src=""images/map15_managua_scaleRev_orientDef_270.png"" style= ""width:200px""alt=""img"">
                            </div>
                        </div>","-45","","0","","","","images/map15_managua_scaleRev_orientDef_270.png","disgust","1","15","15","managua","orientDef","scaleRev","270","",""
"","","","","","html-slider-response","81","193758","0.0-75.0","kh4zgujq9w","58","NaN","<div style=""width:500px;"">
                            <p style=""font-size:50px; font-weight:bold;""
                            >disgust</p>
                            <div style=""width:240px; margin: auto;"">
                                <img src=""images/map10_PiYG_scaleDef_orientDef_000.png"" style= ""width:200px""alt=""img"">
                            </div>
                        </div>","50","","0","","","","images/map10_PiYG_scaleDef_orientDef_000.png","disgust","1","10","10","PiYG","orientDef","scaleDef","000","",""
"","","","","","html-slider-response","82","195442","0.0-76.0","kh4zgujq9w","58","NaN","<div style=""width:500px;"">
                            <p style=""font-size:50px; font-weight:bold;""
                            >disgust</p>
                            <div style=""width:240px; margin: auto;"">
                                <img src=""images/map02_PuRd_scaleRev_orientMir_270.png"" style= ""width:200px""alt=""img"">
                            </div>
                        </div>","-64","","0","","","","images/map02_PuRd_scaleRev_orientMir_270.png","disgust","1","02","02","PuRd","orientMir","scaleRev","270","",""
"","","","","","html-slider-response","83","196959","0.0-77.0","kh4zgujq9w","58","NaN","<div style=""width:500px;"">
                            <p style=""font-size:50px; font-weight:bold;""
                            >disgust</p>
                            <div style=""width:240px; margin: auto;"">
                                <img src=""images/map13_bwr_scaleRev_orientMir_090.png"" style= ""width:200px""alt=""img"">
                            </div>
                        </div>","-48","","0","","","","images/map13_bwr_scaleRev_orientMir_090.png","disgust","1","13","13","bwr","orientMir","scaleRev","090","",""
"","","","","","html-slider-response","84","198404","0.0-78.0","kh4zgujq9w","58","NaN","<div style=""width:500px;"">
                            <p style=""font-size:50px; font-weight:bold;""
                            >disgust</p>
                            <div style=""width:240px; margin: auto;"">
                                <img src=""images/map12_RdGy_scaleDef_orientDef_000.png"" style= ""width:200px""alt=""img"">
                            </div>
                        </div>","-45","","0","","","","images/map12_RdGy_scaleDef_orientDef_000.png","disgust","1","12","12","RdGy","orientDef","scaleDef","000","",""
"","","","","","html-slider-response","85","200093","0.0-79.0","kh4zgujq9w","58","NaN","<div style=""width:500px;"">
                            <p style=""font-size:50px; font-weight:bold;""
                            >disgust</p>
                            <div style=""width:240px; margin: auto;"">
                                <img src=""images/map13_bwr_scaleDef_orientMir_000.png"" style= ""width:200px""alt=""img"">
                            </div>
                        </div>","-22","","0","","","","images/map13_bwr_scaleDef_orientMir_000.png","disgust","1","13","13","bwr","orientMir","scaleDef","000","",""
"","","","","","html-slider-response","86","201763","0.0-80.0","kh4zgujq9w","58","NaN","<div style=""width:500px;"">
                            <p style=""font-size:50px; font-weight:bold;""
                            >disgust</p>
                            <div style=""width:240px; margin: auto;"">
                                <img src=""images/map10_PRGn_scaleDef_orientDef_180.png"" style= ""width:200px""alt=""img"">
                            </div>
                        </div>","66","","0","","","","images/map10_PRGn_scaleDef_orientDef_180.png","disgust","1","10","10","PRGn","orientDef","scaleDef","180","",""
"","","","","","html-slider-response","87","203057","0.0-81.0","kh4zgujq9w","58","NaN","<div style=""width:500px;"">
                            <p style=""font-size:50px; font-weight:bold;""
                            >disgust</p>
                            <div style=""width:240px; margin: auto;"">
                                <img src=""images/map12_RdYlBu_scaleDef_orientMir_000.png"" style= ""width:200px""alt=""img"">
                            </div>
                        </div>","-62","","0","","","","images/map12_RdYlBu_scaleDef_orientMir_000.png","disgust","1","12","12","RdYlBu","orientMir","scaleDef","000","",""
"","","","","","html-slider-response","88","205420","0.0-82.0","kh4zgujq9w","58","NaN","<div style=""width:500px;"">
                            <p style=""font-size:50px; font-weight:bold;""
                            >disgust</p>
                            <div style=""width:240px; margin: auto;"">
                                <img src=""images/map27_Blues_scaleDef_orientDef_000.png"" style= ""width:200px""alt=""img"">
                            </div>
                        </div>","-77","","0","","","","images/map27_Blues_scaleDef_orientDef_000.png","disgust","1","27","27","Blues","orientDef","scaleDef","000","",""
"","","","","","html-slider-response","89","207163","0.0-83.0","kh4zgujq9w","58","NaN","<div style=""width:500px;"">
                            <p style=""font-size:50px; font-weight:bold;""
                            >disgust</p>
                            <div style=""width:240px; margin: auto;"">
                                <img src=""images/map02_OrRd_scaleDef_orientMir_000.png"" style= ""width:200px""alt=""img"">
                            </div>
                        </div>","-84","","0","","","","images/map02_OrRd_scaleDef_orientMir_000.png","disgust","1","02","02","OrRd","orientMir","scaleDef","000","",""
"","","","","","html-slider-response","90","208518","0.0-84.0","kh4zgujq9w","58","NaN","<div style=""width:500px;"">
                            <p style=""font-size:50px; font-weight:bold;""
                            >disgust</p>
                            <div style=""width:240px; margin: auto;"">
                                <img src=""images/map07_BuGn_scaleRev_orientMir_090.png"" style= ""width:200px""alt=""img"">
                            </div>
                        </div>","82","","0","","","","images/map07_BuGn_scaleRev_orientMir_090.png","disgust","1","07","07","BuGn","orientMir","scaleRev","090","",""
"","","","","","html-slider-response","91","210224","0.0-85.0","kh4zgujq9w","58","NaN","<div style=""width:500px;"">
                            <p style=""font-size:50px; font-weight:bold;""
                            >disgust</p>
                            <div style=""width:240px; margin: auto;"">
                                <img src=""images/map23_viridis_scaleRev_orientDef_270.png"" style= ""width:200px""alt=""img"">
                            </div>
                        </div>","27","","0","","","","images/map23_viridis_scaleRev_orientDef_270.png","disgust","1","23","23","viridis","orientDef","scaleRev","270","",""
"","","","","","html-slider-response","92","211243","0.0-86.0","kh4zgujq9w","58","NaN","<div style=""width:500px;"">
                            <p style=""font-size:50px; font-weight:bold;""
                            >disgust</p>
                            <div style=""width:240px; margin: auto;"">
                                <img src=""images/map07_YlGnBu_scaleDef_orientDef_000.png"" style= ""width:200px""alt=""img"">
                            </div>
                        </div>","-67","","0","","","","images/map07_YlGnBu_scaleDef_orientDef_000.png","disgust","1","07","07","YlGnBu","orientDef","scaleDef","000","",""
"","","","","","html-slider-response","93","213057","0.0-87.0","kh4zgujq9w","58","NaN","<div style=""width:500px;"">
                            <p style=""font-size:50px; font-weight:bold;""
                            >disgust</p>
                            <div style=""width:240px; margin: auto;"">
                                <img src=""images/map23_viridis_scaleDef_orientDef_180.png"" style= ""width:200px""alt=""img"">
                            </div>
                        </div>","156","","0","","","","images/map23_viridis_scaleDef_orientDef_180.png","disgust","1","23","23","viridis","orientDef","scaleDef","180","",""
"","","","","","html-slider-response","94","215140","0.0-88.0","kh4zgujq9w","58","NaN","<div style=""width:500px;"">
                            <p style=""font-size:50px; font-weight:bold;""
                            >disgust</p>
                            <div style=""width:240px; margin: auto;"">
                                <img src=""images/map12_RdYlGn_scaleRev_orientMir_270.png"" style= ""width:200px""alt=""img"">
                            </div>
                        </div>","-74","","0","","","","images/map12_RdYlGn_scaleRev_orientMir_270.png","disgust","1","12","12","RdYlGn","orientMir","scaleRev","270","",""
"","","","","","html-slider-response","95","216636","0.0-89.0","kh4zgujq9w","58","NaN","<div style=""width:500px;"">
                            <p style=""font-size:50px; font-weight:bold;""
                            >disgust</p>
                            <div style=""width:240px; margin: auto;"">
                                <img src=""images/map13_coolwarm_scaleRev_orientDef_270.png"" style= ""width:200px""alt=""img"">
                            </div>
                        </div>","-80","","0","","","","images/map13_coolwarm_scaleRev_orientDef_270.png","disgust","1","13","13","coolwarm","orientDef","scaleRev","270","",""
"","","","","","html-slider-response","96","218117","0.0-90.0","kh4zgujq9w","58","NaN","<div style=""width:500px;"">
                            <p style=""font-size:50px; font-weight:bold;""
                            >disgust</p>
                            <div style=""width:240px; margin: auto;"">
                                <img src=""images/map02_OrRd_scaleRev_orientMir_090.png"" style= ""width:200px""alt=""img"">
                            </div>
                        </div>","-98","","0","","","","images/map02_OrRd_scaleRev_orientMir_090.png","disgust","1","02","02","OrRd","orientMir","scaleRev","090","",""
"","","","","","html-slider-response","97","219574","0.0-91.0","kh4zgujq9w","58","NaN","<div style=""width:500px;"">
                            <p style=""font-size:50px; font-weight:bold;""
                            >disgust</p>
                            <div style=""width:240px; margin: auto;"">
                                <img src=""images/map02_YlOrRd_scaleDef_orientDef_180.png"" style= ""width:200px""alt=""img"">
                            </div>
                        </div>","-106","","0","","","","images/map02_YlOrRd_scaleDef_orientDef_180.png","disgust","1","02","02","YlOrRd","orientDef","scaleDef","180","",""
"","","","","","html-slider-response","98","220992","0.0-92.0","kh4zgujq9w","58","NaN","<div style=""width:500px;"">
                            <p style=""font-size:50px; font-weight:bold;""
                            >disgust</p>
                            <div style=""width:240px; margin: auto;"">
                                <img src=""images/map13_Spectral_scaleRev_orientDef_090.png"" style= ""width:200px""alt=""img"">
                            </div>
                        </div>","-86","","0","","","","images/map13_Spectral_scaleRev_orientDef_090.png","disgust","1","13","13","Spectral","orientDef","scaleRev","090","",""
"","","","","","html-slider-response","99","222708","0.0-93.0","kh4zgujq9w","58","NaN","<div style=""width:500px;"">
                            <p style=""font-size:50px; font-weight:bold;""
                            >disgust</p>
                            <div style=""width:240px; margin: auto;"">
                                <img src=""images/map02_YlOrRd_scaleRev_orientDef_270.png"" style= ""width:200px""alt=""img"">
                            </div>
                        </div>","-82","","0","","","","images/map02_YlOrRd_scaleRev_orientDef_270.png","disgust","1","02","02","YlOrRd","orientDef","scaleRev","270","",""
"","","","","","html-slider-response","100","224090","0.0-94.0","kh4zgujq9w","58","NaN","<div style=""width:500px;"">
                            <p style=""font-size:50px; font-weight:bold;""
                            >disgust</p>
                            <div style=""width:240px; margin: auto;"">
                                <img src=""images/map07_PuBuGn_scaleDef_orientDef_180.png"" style= ""width:200px""alt=""img"">
                            </div>
                        </div>","112","","0","","","","images/map07_PuBuGn_scaleDef_orientDef_180.png","disgust","1","07","07","PuBuGn","orientDef","scaleDef","180","",""
"","","","","","html-button-response","101","226169","0.0-95.0","kh4zgujq9w","58","1571","<p>Great Job! You've finished block 1.<br></br> You have 4 block(s) left to go.<br></br></p>","0","","","","","","","","","","","","","","","",""
"","","","","","html-button-response","102","228377","0.0-96.0","kh4zgujq9w","58","2206","<p>In this block of trials, you will be asked to rate how much you associate each map with:</p > <p style = 'font-size:150%; font-weight: bold'>fearful</p><br></br>","0","","","","","","","","","","","","","","","",""
"","","","","","html-slider-response","103","231164","0.0-97.0","kh4zgujq9w","58","NaN","<div style=""width:500px;"">
                            <p style=""font-size:50px; font-weight:bold;""
                            >fearful</p>
                            <div style=""width:240px; margin: auto;"">
                                <img src=""images/map12_RdGy_scaleDef_orientDef_000.png"" style= ""width:200px""alt=""img"">
                            </div>
                        </div>","90","","0","","","","images/map12_RdGy_scaleDef_orientDef_000.png","fearful","1","12","12","RdGy","orientDef","scaleDef","000","",""
"","","","","","html-slider-response","104","233396","0.0-98.0","kh4zgujq9w","58","NaN","<div style=""width:500px;"">
                            <p style=""font-size:50px; font-weight:bold;""
                            >fearful</p>
                            <div style=""width:240px; margin: auto;"">
                                <img src=""images/map10_PRGn_scaleRev_orientDef_270.png"" style= ""width:200px""alt=""img"">
                            </div>
                        </div>","-65","","0","","","","images/map10_PRGn_scaleRev_orientDef_270.png","fearful","1","10","10","PRGn","orientDef","scaleRev","270","",""
"","","","","","html-slider-response","105","235880","0.0-99.0","kh4zgujq9w","58","NaN","<div style=""width:500px;"">
                            <p style=""font-size:50px; font-weight:bold;""
                            >fearful</p>
                            <div style=""width:240px; margin: auto;"">
                                <img src=""images/map23_turbo_scaleRev_orientDef_090.png"" style= ""width:200px""alt=""img"">
                            </div>
                        </div>","-93","","0","","","","images/map23_turbo_scaleRev_orientDef_090.png","fearful","1","23","23","turbo","orientDef","scaleRev","090","",""
"","","","","","html-slider-response","106","237148","0.0-100.0","kh4zgujq9w","58","NaN","<div style=""width:500px;"">
                            <p style=""font-size:50px; font-weight:bold;""
                            >fearful</p>
                            <div style=""width:240px; margin: auto;"">
                                <img src=""images/map12_RdYlBu_scaleDef_orientMir_000.png"" style= ""width:200px""alt=""img"">
                            </div>
                        </div>","-71","","0","","","","images/map12_RdYlBu_scaleDef_orientMir_000.png","fearful","1","12","12","RdYlBu","orientMir","scaleDef","000","",""
"","","","","","html-slider-response","107","238182","0.0-101.0","kh4zgujq9w","58","NaN","<div style=""width:500px;"">
                            <p style=""font-size:50px; font-weight:bold;""
                            >fearful</p>
                            <div style=""width:240px; margin: auto;"">
                                <img src=""images/map15_berlin_scaleDef_orientDef_000.png"" style= ""width:200px""alt=""img"">
                            </div>
                        </div>","38","","0","","","","images/map15_berlin_scaleDef_orientDef_000.png","fearful","1","15","15","berlin","orientDef","scaleDef","000","",""
"","","","","","html-slider-response","108","239226","0.0-102.0","kh4zgujq9w","58","NaN","<div style=""width:500px;"">
                            <p style=""font-size:50px; font-weight:bold;""
                            >fearful</p>
                            <div style=""width:240px; margin: auto;"">
                                <img src=""images/map05_RdPu_scaleRev_orientDef_090.png"" style= ""width:200px""alt=""img"">
                            </div>
                        </div>","-58","","0","","","","images/map05_RdPu_scaleRev_orientDef_090.png","fearful","1","05","05","RdPu","orientDef","scaleRev","090","",""
"","","","","","html-slider-response","109","240241","0.0-103.0","kh4zgujq9w","58","NaN","<div style=""width:500px;"">
                            <p style=""font-size:50px; font-weight:bold;""
                            >fearful</p>
                            <div style=""width:240px; margin: auto;"">
                                <img src=""images/map10_BrBG_scaleDef_orientMir_000.png"" style= ""width:200px""alt=""img"">
                            </div>
                        </div>","49","","0","","","","images/map10_BrBG_scaleDef_orientMir_000.png","fearful","1","10","10","BrBG","orientMir","scaleDef","000","",""
"","","","","","html-slider-response","110","241311","0.0-104.0","kh4zgujq9w","58","NaN","<div style=""width:500px;"">
                            <p style=""font-size:50px; font-weight:bold;""
                            >fearful</p>
                            <div style=""width:240px; margin: auto;"">
                                <img src=""images/map10_PiYG_scaleDef_orientDef_000.png"" style= ""width:200px""alt=""img"">
                            </div>
                        </div>","-117","","0","","","","images/map10_PiYG_scaleDef_orientDef_000.png","fearful","1","10","10","PiYG","orientDef","scaleDef","000","",""
"","","","","","html-slider-response","111","242434","0.0-105.0","kh4zgujq9w","58","NaN","<div style=""width:500px;"">
                            <p style=""font-size:50px; font-weight:bold;""
                            >fearful</p>
                            <div style=""width:240px; margin: auto;"">
                                <img src=""images/map10_PiYG_scaleRev_orientDef_090.png"" style= ""width:200px""alt=""img"">
                            </div>
                        </div>","47","","0","","","","images/map10_PiYG_scaleRev_orientDef_090.png","fearful","1","10","10","PiYG","orientDef","scaleRev","090","",""
"","","","","","html-slider-response","112","243526","0.0-106.0","kh4zgujq9w","58","NaN","<div style=""width:500px;"">
                            <p style=""font-size:50px; font-weight:bold;""
                            >fearful</p>
                            <div style=""width:240px; margin: auto;"">
                                <img src=""images/map26_magma_scaleRev_orientDef_090.png"" style= ""width:200px""alt=""img"">
                            </div>
                        </div>","98","","0","","","","images/map26_magma_scaleRev_orientDef_090.png","fearful","1","26","26","magma","orientDef","scaleRev","090","",""
"","","","","","html-slider-response","113","244518","0.0-107.0","kh4zgujq9w","58","NaN","<div style=""width:500px;"">
                            <p style=""font-size:50px; font-weight:bold;""
                            >fearful</p>
                            <div style=""width:240px; margin: auto;"">
                                <img src=""images/map13_seismic_scaleDef_orientMir_180.png"" style= ""width:200px""alt=""img"">
                            </div>
                        </div>","-102","","0","","","","images/map13_seismic_scaleDef_orientMir_180.png","fearful","1","13","13","seismic","orientMir","scaleDef","180","",""
"","","","","","html-slider-response","114","245506","0.0-108.0","kh4zgujq9w","58","NaN","<div style=""width:500px;"">
                            <p style=""font-size:50px; font-weight:bold;""
                            >fearful</p>
                            <div style=""width:240px; margin: auto;"">
                                <img src=""images/map23_viridis_scaleDef_orientDef_180.png"" style= ""width:200px""alt=""img"">
                            </div>
                        </div>","66","","0","","","","images/map23_viridis_scaleDef_orientDef_180.png","fearful","1","23","23","viridis","orientDef","scaleDef","180","",""
"","","","","","html-slider-response","115","246425","0.0-109.0","kh4zgujq9w","58","NaN","<div style=""width:500px;"">
                            <p style=""font-size:50px; font-weight:bold;""
                            >fearful</p>
                            <div style=""width:240px; margin: auto;"">
                                <img src=""images/map26_cividis_scaleRev_orientDef_270.png"" style= ""width:200px""alt=""img"">
                            </div>
                        </div>","-83","","0","","","","images/map26_cividis_scaleRev_orientDef_270.png","fearful","1","26","26","cividis","orientDef","scaleRev","270","",""
"","","","","","html-slider-response","116","247380","0.0-110.0","kh4zgujq9w","58","NaN","<div style=""width:500px;"">
                            <p style=""font-size:50px; font-weight:bold;""
                            >fearful</p>
                            <div style=""width:240px; margin: auto;"">
                                <img src=""images/map05_RdPu_scaleDef_orientDef_000.png"" style= ""width:200px""alt=""img"">
                            </div>
                        </div>","70","","0","","","","images/map05_RdPu_scaleDef_orientDef_000.png","fearful","1","05","05","RdPu","orientDef","scaleDef","000","",""
"","","","","","html-slider-response","117","248434","0.0-111.0","kh4zgujq9w","58","NaN","<div style=""width:500px;"">
                            <p style=""font-size:50px; font-weight:bold;""
                            >fearful</p>
                            <div style=""width:240px; margin: auto;"">
                                <img src=""images/map07_BuGn_scaleDef_orientMir_000.png"" style= ""width:200px""alt=""img"">
                            </div>
                        </div>","-70","","0","","","","images/map07_BuGn_scaleDef_orientMir_000.png","fearful","1","07","07","BuGn","orientMir","scaleDef","000","",""
"","","","","","html-slider-response","118","249340","0.0-112.0","kh4zgujq9w","58","NaN","<div style=""width:500px;"">
                            <p style=""font-size:50px; font-weight:bold;""
                            >fearful</p>
                            <div style=""width:240px; margin: auto;"">
                                <img src=""images/map26_Greys_scaleRev_orientMir_090.png"" style= ""width:200px""alt=""img"">
                            </div>
                        </div>","60","","0","","","","images/map26_Greys_scaleRev_orientMir_090.png","fearful","1","26","26","Greys","orientMir","scaleRev","090","",""
"","","","","","html-slider-response","119","250328","0.0-113.0","kh4zgujq9w","58","NaN","<div style=""width:500px;"">
                            <p style=""font-size:50px; font-weight:bold;""
                            >fearful</p>
                            <div style=""width:240px; margin: auto;"">
                                <img src=""images/map27_Blues_scaleRev_orientDef_090.png"" style= ""width:200px""alt=""img"">
                            </div>
                        </div>","112","","0","","","","images/map27_Blues_scaleRev_orientDef_090.png","fearful","1","27","27","Blues","orientDef","scaleRev","090","",""
"","","","","","html-slider-response","120","251291","0.0-114.0","kh4zgujq9w","58","NaN","<div style=""width:500px;"">
                            <p style=""font-size:50px; font-weight:bold;""
                            >fearful</p>
                            <div style=""width:240px; margin: auto;"">
                                <img src=""images/map02_YlOrRd_scaleDef_orientDef_180.png"" style= ""width:200px""alt=""img"">
                            </div>
                        </div>","-107","","0","","","","images/map02_YlOrRd_scaleDef_orientDef_180.png","fearful","1","02","02","YlOrRd","orientDef","scaleDef","180","",""
"","","","","","html-slider-response","121","252307","0.0-115.0","kh4zgujq9w","58","NaN","<div style=""width:500px;"">
                            <p style=""font-size:50px; font-weight:bold;""
                            >fearful</p>
                            <div style=""width:240px; margin: auto;"">
                                <img src=""images/map26_magma_scaleDef_orientDef_000.png"" style= ""width:200px""alt=""img"">
                            </div>
                        </div>","-96","","0","","","","images/map26_magma_scaleDef_orientDef_000.png","fearful","1","26","26","magma","orientDef","scaleDef","000","",""
"","","","","","html-slider-response","122","253426","0.0-116.0","kh4zgujq9w","58","NaN","<div style=""width:500px;"">
                            <p style=""font-size:50px; font-weight:bold;""
                            >fearful</p>
                            <div style=""width:240px; margin: auto;"">
                                <img src=""images/map02_PuRd_scaleRev_orientMir_270.png"" style= ""width:200px""alt=""img"">
                            </div>
                        </div>","-170","","0","","","","images/map02_PuRd_scaleRev_orientMir_270.png","fearful","1","02","02","PuRd","orientMir","scaleRev","270","",""
"","","","","","html-slider-response","123","254447","0.0-117.0","kh4zgujq9w","58","NaN","<div style=""width:500px;"">
                            <p style=""font-size:50px; font-weight:bold;""
                            >fearful</p>
                            <div style=""width:240px; margin: auto;"">
                                <img src=""images/map27_Reds_scaleRev_orientMir_270.png"" style= ""width:200px""alt=""img"">
                            </div>
                        </div>","-22","","0","","","","images/map27_Reds_scaleRev_orientMir_270.png","fearful","1","27","27","Reds","orientMir","scaleRev","270","",""
"","","","","","html-slider-response","124","255447","0.0-118.0","kh4zgujq9w","58","NaN","<div style=""width:500px;"">
                            <p style=""font-size:50px; font-weight:bold;""
                            >fearful</p>
                            <div style=""width:240px; margin: auto;"">
                                <img src=""images/map02_OrRd_scaleRev_orientMir_090.png"" style= ""width:200px""alt=""img"">
                            </div>
                        </div>","-52","","0","","","","images/map02_OrRd_scaleRev_orientMir_090.png","fearful","1","02","02","OrRd","orientMir","scaleRev","090","",""
"","","","","","html-slider-response","125","256543","0.0-119.0","kh4zgujq9w","58","NaN","<div style=""width:500px;"">
                            <p style=""font-size:50px; font-weight:bold;""
                            >fearful</p>
                            <div style=""width:240px; margin: auto;"">
                                <img src=""images/map15_vanimo_scaleDef_orientMir_000.png"" style= ""width:200px""alt=""img"">
                            </div>
                        </div>","-122","","0","","","","images/map15_vanimo_scaleDef_orientMir_000.png","fearful","1","15","15","vanimo","orientMir","scaleDef","000","",""
"","","","","","html-slider-response","126","257519","0.0-120.0","kh4zgujq9w","58","NaN","<div style=""width:500px;"">
                            <p style=""font-size:50px; font-weight:bold;""
                            >fearful</p>
                            <div style=""width:240px; margin: auto;"">
                                <img src=""images/map13_seismic_scaleRev_orientMir_270.png"" style= ""width:200px""alt=""img"">
                            </div>
                        </div>","-31","","0","","","","images/map13_seismic_scaleRev_orientMir_270.png","fearful","1","13","13","seismic","orientMir","scaleRev","270","",""
"","","","","","html-slider-response","127","258508","0.0-121.0","kh4zgujq9w","58","NaN","<div style=""width:500px;"">
                            <p style=""font-size:50px; font-weight:bold;""
                            >fearful</p>
                            <div style=""width:240px; margin: auto;"">
                                <img src=""images/map07_YlGnBu_scaleRev_orientDef_090.png"" style= ""width:200px""alt=""img"">
                            </div>
                        </div>","-130","","0","","","","images/map07_YlGnBu_scaleRev_orientDef_090.png","fearful","1","07","07","YlGnBu","orientDef","scaleRev","090","",""
"","","","","","html-slider-response","128","259404","0.0-122.0","kh4zgujq9w","58","NaN","<div style=""width:500px;"">
                            <p style=""font-size:50px; font-weight:bold;""
                            >fearful</p>
                            <div style=""width:240px; margin: auto;"">
                                <img src=""images/map27_Reds_scaleDef_orientMir_180.png"" style= ""width:200px""alt=""img"">
                            </div>
                        </div>","70","","0","","","","images/map27_Reds_scaleDef_orientMir_180.png","fearful","1","27","27","Reds","orientMir","scaleDef","180","",""
"","","","","","html-slider-response","129","260234","0.0-123.0","kh4zgujq9w","58","NaN","<div style=""width:500px;"">
                            <p style=""font-size:50px; font-weight:bold;""
                            >fearful</p>
                            <div style=""width:240px; margin: auto;"">
                                <img src=""images/map13_bwr_scaleRev_orientMir_090.png"" style= ""width:200px""alt=""img"">
                            </div>
                        </div>","-113","","0","","","","images/map13_bwr_scaleRev_orientMir_090.png","fearful","1","13","13","bwr","orientMir","scaleRev","090","",""
"","","","","","html-slider-response","130","261560","0.0-124.0","kh4zgujq9w","58","NaN","<div style=""width:500px;"">
                            <p style=""font-size:50px; font-weight:bold;""
                            >fearful</p>
                            <div style=""width:240px; margin: auto;"">
                                <img src=""images/map23_inferno_scaleRev_orientMir_270.png"" style= ""width:200px""alt=""img"">
                            </div>
                        </div>","-79","","0","","","","images/map23_inferno_scaleRev_orientMir_270.png","fearful","1","23","23","inferno","orientMir","scaleRev","270","",""
"","","","","","html-slider-response","131","262333","0.0-125.0","kh4zgujq9w","58","NaN","<div style=""width:500px;"">
                            <p style=""font-size:50px; font-weight:bold;""
                            >fearful</p>
                            <div style=""width:240px; margin: auto;"">
                                <img src=""images/map15_berlin_scaleRev_orientDef_090.png"" style= ""width:200px""alt=""img"">
                            </div>
                        </div>","70","","0","","","","images/map15_berlin_scaleRev_orientDef_090.png","fearful","1","15","15","berlin","orientDef","scaleRev","090","",""
"","","","","","html-slider-response","132","263620","0.0-126.0","kh4zgujq9w","58","NaN","<div style=""width:500px;"">
                            <p style=""font-size:50px; font-weight:bold;""
                            >fearful</p>
                            <div style=""width:240px; margin: auto;"">
                                <img src=""images/map13_coolwarm_scaleRev_orientDef_270.png"" style= ""width:200px""alt=""img"">
                            </div>
                        </div>","-67","","0","","","","images/map13_coolwarm_scaleRev_orientDef_270.png","fearful","1","13","13","coolwarm","orientDef","scaleRev","270","",""
"","","","","","html-slider-response","133","265479","0.0-127.0","kh4zgujq9w","58","NaN","<div style=""width:500px;"">
                            <p style=""font-size:50px; font-weight:bold;""
                            >fearful</p>
                            <div style=""width:240px; margin: auto;"">
                                <img src=""images/map10_PuOr_scaleRev_orientMir_270.png"" style= ""width:200px""alt=""img"">
                            </div>
                        </div>","74","","0","","","","images/map10_PuOr_scaleRev_orientMir_270.png","fearful","1","10","10","PuOr","orientMir","scaleRev","270","",""
"","","","","","html-slider-response","134","266537","0.0-128.0","kh4zgujq9w","58","NaN","<div style=""width:500px;"">
                            <p style=""font-size:50px; font-weight:bold;""
                            >fearful</p>
                            <div style=""width:240px; margin: auto;"">
                                <img src=""images/map05_GnBu_scaleRev_orientMir_090.png"" style= ""width:200px""alt=""img"">
                            </div>
                        </div>","-83","","0","","","","images/map05_GnBu_scaleRev_orientMir_090.png","fearful","1","05","05","GnBu","orientMir","scaleRev","090","",""
"","","","","","html-slider-response","135","269933","0.0-129.0","kh4zgujq9w","58","NaN","<div style=""width:500px;"">
                            <p style=""font-size:50px; font-weight:bold;""
                            >fearful</p>
                            <div style=""width:240px; margin: auto;"">
                                <img src=""images/map12_RdYlGn_scaleRev_orientMir_270.png"" style= ""width:200px""alt=""img"">
                            </div>
                        </div>","154","","0","","","","images/map12_RdYlGn_scaleRev_orientMir_270.png","fearful","1","12","12","RdYlGn","orientMir","scaleRev","270","",""
"","","","","","html-slider-response","136","271237","0.0-130.0","kh4zgujq9w","58","NaN","<div style=""width:500px;"">
                            <p style=""font-size:50px; font-weight:bold;""
                            >fearful</p>
                            <div style=""width:240px; margin: auto;"">
                                <img src=""images/map27_Oranges_scaleDef_orientMir_000.png"" style= ""width:200px""alt=""img"">
                            </div>
                        </div>","113","","0","","","","images/map27_Oranges_scaleDef_orientMir_000.png","fearful","1","27","27","Oranges","orientMir","scaleDef","000","",""
"","","","","","html-slider-response","137","273905","0.0-131.0","kh4zgujq9w","58","NaN","<div style=""width:500px;"">
                            <p style=""font-size:50px; font-weight:bold;""
                            >fearful</p>
                            <div style=""width:240px; margin: auto;"">
                                <img src=""images/map02_YlOrBr_scaleDef_orientDef_000.png"" style= ""width:200px""alt=""img"">
                            </div>
                        </div>","200","","0","","","","images/map02_YlOrBr_scaleDef_orientDef_000.png","fearful","1","02","02","YlOrBr","orientDef","scaleDef","000","",""
"","","","","","html-slider-response","138","275561","0.0-132.0","kh4zgujq9w","58","NaN","<div style=""width:500px;"">
                            <p style=""font-size:50px; font-weight:bold;""
                            >fearful</p>
                            <div style=""width:240px; margin: auto;"">
                                <img src=""images/map23_viridis_scaleRev_orientDef_270.png"" style= ""width:200px""alt=""img"">
                            </div>
                        </div>","-54","","0","","","","images/map23_viridis_scaleRev_orientDef_270.png","fearful","1","23","23","viridis","orientDef","scaleRev","270","",""
"","","","","","html-slider-response","139","276781","0.0-133.0","kh4zgujq9w","58","NaN","<div style=""width:500px;"">
                            <p style=""font-size:50px; font-weight:bold;""
                            >fearful</p>
                            <div style=""width:240px; margin: auto;"">
                                <img src=""images/map15_gist_earth_scaleDef_orientMir_180.png"" style= ""width:200px""alt=""img"">
                            </div>
                        </div>","48","","0","","","","images/map15_gist_earth_scaleDef_orientMir_180.png","fearful","1","15","15","gist","scaleDef","earth","orientMir","",""
"","","","","","html-slider-response","140","277955","0.0-134.0","kh4zgujq9w","58","NaN","<div style=""width:500px;"">
                            <p style=""font-size:50px; font-weight:bold;""
                            >fearful</p>
                            <div style=""width:240px; margin: auto;"">
                                <img src=""images/map05_PuBu_scaleDef_orientMir_180.png"" style= ""width:200px""alt=""img"">
                            </div>
                        </div>","-54","","0","","","","images/map05_PuBu_scaleDef_orientMir_180.png","fearful","1","05","05","PuBu","orientMir","scaleDef","180","",""
"","","","","","html-slider-response","141","283116","0.0-135.0","kh4zgujq9w","58","NaN","<div style=""width:500px;"">
                            <p style=""font-size:50px; font-weight:bold;""
                            >fearful</p>
                            <div style=""width:240px; margin: auto;"">
                                <img src=""images/map15_vanimo_scaleRev_orientMir_090.png"" style= ""width:200px""alt=""img"">
                            </div>
                        </div>","105","","0","","","","images/map15_vanimo_scaleRev_orientMir_090.png","fearful","1","15","15","vanimo","orientMir","scaleRev","090","",""
"","","","","","html-slider-response","142","284801","0.0-136.0","kh4zgujq9w","58","NaN","<div style=""width:500px;"">
                            <p style=""font-size:50px; font-weight:bold;""
                            >fearful</p>
                            <div style=""width:240px; margin: auto;"">
                                <img src=""images/map27_Greens_scaleRev_orientDef_270.png"" style= ""width:200px""alt=""img"">
                            </div>
                        </div>","74","","0","","","","images/map27_Greens_scaleRev_orientDef_270.png","fearful","1","27","27","Greens","orientDef","scaleRev","270","",""
"","","","","","html-button-response","143","287205","0.0-137.0","kh4zgujq9w","58","1899","<p>You are doing great!<br></br> You are halway done with the current block. When you are ready to continue, click the 'Continue' button.</p>","0","","","","","","","","","","","","","","","",""
"","","","","","html-slider-response","144","288126","0.0-138.0","kh4zgujq9w","58","NaN","<div style=""width:500px;"">
                            <p style=""font-size:50px; font-weight:bold;""
                            >fearful</p>
                            <div style=""width:240px; margin: auto;"">
                                <img src=""images/map23_plasma_scaleRev_orientMir_090.png"" style= ""width:200px""alt=""img"">
                            </div>
                        </div>","-92","","0","","","","images/map23_plasma_scaleRev_orientMir_090.png","fearful","1","23","23","plasma","orientMir","scaleRev","090","",""
"","","","","","html-slider-response","145","289130","0.0-139.0","kh4zgujq9w","58","NaN","<div style=""width:500px;"">
                            <p style=""font-size:50px; font-weight:bold;""
                            >fearful</p>
                            <div style=""width:240px; margin: auto;"">
                                <img src=""images/map05_BuPu_scaleDef_orientDef_180.png"" style= ""width:200px""alt=""img"">
                            </div>
                        </div>","-95","","0","","","","images/map05_BuPu_scaleDef_orientDef_180.png","fearful","1","05","05","BuPu","orientDef","scaleDef","180","",""
"","","","","","html-slider-response","146","290069","0.0-140.0","kh4zgujq9w","58","NaN","<div style=""width:500px;"">
                            <p style=""font-size:50px; font-weight:bold;""
                            >fearful</p>
                            <div style=""width:240px; margin: auto;"">
                                <img src=""images/map10_PuOr_scaleDef_orientMir_180.png"" style= ""width:200px""alt=""img"">
                            </div>
                        </div>","-111","","0","","","","images/map10_PuOr_scaleDef_orientMir_180.png","fearful","1","10","10","PuOr","orientMir","scaleDef","180","",""
"","","","","","html-slider-response","147","290952","0.0-141.0","kh4zgujq9w","58","NaN","<div style=""width:500px;"">
                            <p style=""font-size:50px; font-weight:bold;""
                            >fearful</p>
                            <div style=""width:240px; margin: auto;"">
                                <img src=""images/map07_YlGnBu_scaleDef_orientDef_000.png"" style= ""width:200px""alt=""img"">
                            </div>
                        </div>","-117","","0","","","","images/map07_YlGnBu_scaleDef_orientDef_000.png","fearful","1","07","07","YlGnBu","orientDef","scaleDef","000","",""
"","","","","","html-slider-response","148","292114","0.0-142.0","kh4zgujq9w","58","NaN","<div style=""width:500px;"">
                            <p style=""font-size:50px; font-weight:bold;""
                            >fearful</p>
                            <div style=""width:240px; margin: auto;"">
                                <img src=""images/map27_Greens_scaleDef_orientDef_180.png"" style= ""width:200px""alt=""img"">
                            </div>
                        </div>","-114","","0","","","","images/map27_Greens_scaleDef_orientDef_180.png","fearful","1","27","27","Greens","orientDef","scaleDef","180","",""
"","","","","","html-slider-response","149","293929","0.0-143.0","kh4zgujq9w","58","NaN","<div style=""width:500px;"">
                            <p style=""font-size:50px; font-weight:bold;""
                            >fearful</p>
                            <div style=""width:240px; margin: auto;"">
                                <img src=""images/map26_cividis_scaleDef_orientDef_180.png"" style= ""width:200px""alt=""img"">
                            </div>
                        </div>","-106","","0","","","","images/map26_cividis_scaleDef_orientDef_180.png","fearful","1","26","26","cividis","orientDef","scaleDef","180","",""
"","","","","","html-slider-response","150","294942","0.0-144.0","kh4zgujq9w","58","NaN","<div style=""width:500px;"">
                            <p style=""font-size:50px; font-weight:bold;""
                            >fearful</p>
                            <div style=""width:240px; margin: auto;"">
                                <img src=""images/map15_gist_earth_scaleRev_orientMir_270.png"" style= ""width:200px""alt=""img"">
                            </div>
                        </div>","-77","","0","","","","images/map15_gist_earth_scaleRev_orientMir_270.png","fearful","1","15","15","gist","scaleRev","earth","orientMir","",""
"","","","","","html-slider-response","151","295873","0.0-145.0","kh4zgujq9w","58","NaN","<div style=""width:500px;"">
                            <p style=""font-size:50px; font-weight:bold;""
                            >fearful</p>
                            <div style=""width:240px; margin: auto;"">
                                <img src=""images/map23_turbo_scaleDef_orientDef_000.png"" style= ""width:200px""alt=""img"">
                            </div>
                        </div>","-102","","0","","","","images/map23_turbo_scaleDef_orientDef_000.png","fearful","1","23","23","turbo","orientDef","scaleDef","000","",""
"","","","","","html-slider-response","152","296934","0.0-146.0","kh4zgujq9w","58","NaN","<div style=""width:500px;"">
                            <p style=""font-size:50px; font-weight:bold;""
                            >fearful</p>
                            <div style=""width:240px; margin: auto;"">
                                <img src=""images/map07_YlGn_scaleRev_orientMir_270.png"" style= ""width:200px""alt=""img"">
                            </div>
                        </div>","-116","","0","","","","images/map07_YlGn_scaleRev_orientMir_270.png","fearful","1","07","07","YlGn","orientMir","scaleRev","270","",""
"","","","","","html-slider-response","153","298030","0.0-147.0","kh4zgujq9w","58","NaN","<div style=""width:500px;"">
                            <p style=""font-size:50px; font-weight:bold;""
                            >fearful</p>
                            <div style=""width:240px; margin: auto;"">
                                <img src=""images/map07_BuGn_scaleRev_orientMir_090.png"" style= ""width:200px""alt=""img"">
                            </div>
                        </div>","-179","","0","","","","images/map07_BuGn_scaleRev_orientMir_090.png","fearful","1","07","07","BuGn","orientMir","scaleRev","090","",""
"","","","","","html-slider-response","154","299105","0.0-148.0","kh4zgujq9w","58","NaN","<div style=""width:500px;"">
                            <p style=""font-size:50px; font-weight:bold;""
                            >fearful</p>
                            <div style=""width:240px; margin: auto;"">
                                <img src=""images/map05_GnBu_scaleDef_orientMir_000.png"" style= ""width:200px""alt=""img"">
                            </div>
                        </div>","58","","0","","","","images/map05_GnBu_scaleDef_orientMir_000.png","fearful","1","05","05","GnBu","orientMir","scaleDef","000","",""
"","","","","","html-slider-response","155","299949","0.0-149.0","kh4zgujq9w","58","NaN","<div style=""width:500px;"">
                            <p style=""font-size:50px; font-weight:bold;""
                            >fearful</p>
                            <div style=""width:240px; margin: auto;"">
                                <img src=""images/map26_Greys_scaleDef_orientMir_000.png"" style= ""width:200px""alt=""img"">
                            </div>
                        </div>","-86","","0","","","","images/map26_Greys_scaleDef_orientMir_000.png","fearful","1","26","26","Greys","orientMir","scaleDef","000","",""
"","","","","","html-slider-response","156","300823","0.0-150.0","kh4zgujq9w","58","NaN","<div style=""width:500px;"">
                            <p style=""font-size:50px; font-weight:bold;""
                            >fearful</p>
                            <div style=""width:240px; margin: auto;"">
                                <img src=""images/map02_YlOrRd_scaleRev_orientDef_270.png"" style= ""width:200px""alt=""img"">
                            </div>
                        </div>","-116","","0","","","","images/map02_YlOrRd_scaleRev_orientDef_270.png","fearful","1","02","02","YlOrRd","orientDef","scaleRev","270","",""
"","","","","","html-slider-response","157","302247","0.0-151.0","kh4zgujq9w","58","NaN","<div style=""width:500px;"">
                            <p style=""font-size:50px; font-weight:bold;""
                            >fearful</p>
                            <div style=""width:240px; margin: auto;"">
                                <img src=""images/map10_BrBG_scaleRev_orientMir_090.png"" style= ""width:200px""alt=""img"">
                            </div>
                        </div>","190","","0","","","","images/map10_BrBG_scaleRev_orientMir_090.png","fearful","1","10","10","BrBG","orientMir","scaleRev","090","",""
"","","","","","html-slider-response","158","303080","0.0-152.0","kh4zgujq9w","58","NaN","<div style=""width:500px;"">
                            <p style=""font-size:50px; font-weight:bold;""
