"success","timeout","failed_images","failed_audio","failed_video","trial_type","trial_index","time_elapsed","internal_node_id","subject_id","condition_num","rt","stimulus","response","question_order","slider_start","practiceTrial","practiceTrialNum","correct","image_path","concept","repetition","map_id","map_num","scale_name","orientation_code","mapping_code","rotation_code","ishihara_plate","correct_response"
"true","false","[]","[]","[]","preload","0","2160","0.0-0.0","luovmxbv9q","39","","","","","","","","","","","","","","","","","","",""
"","","","","","html-button-response","1","15455","0.0-1.0","luovmxbv9q","39","13291","Welcome to our experiment!<p>At the bottom of this screen, you will see a button that says ""Begin Experiment"".<br>Please only click that button when you are ready to complete the 30 minute experiment in one sitting.</p><p> Once you click that button, it will not be possible to restart the experiment.","0","","","","","","","","","","","","","","","",""
"true","","","","","fullscreen","2","18318","0.0-2.0","luovmxbv9q","39","1859","","","","","","","","","","","","","","","","","",""
"","","","","","survey-multi-select","3","58889","0.0-3.0","luovmxbv9q","39","40569","","{""Consent"":[""<strong>I consent</strong>""]}","[0]","","","","","","","","","","","","","","",""
"","","","","","html-button-response","4","63803","0.0-4.0","luovmxbv9q","39","4912","Welcome! <p> This experiment involves two parts: demographic information, followed by the experimental task.<p> It will take about 30 minutes to complete both parts.","0","","","","","","","","","","","","","","","",""
"","","","","","survey-text","5","111089","0.0-5.0","luovmxbv9q","39","47275","","{""Age"":""19"",""Gender"":""Female"",""Race/ethnicity"":""Indian"",""Languages"":""Telegu \nHindi \nEnglish ""}","","","","","","","","","","","","","","","",""
"","","","","","html-slider-response","6","164903","0.0-6.0","luovmxbv9q","39","53812","<div style='text-align:left; font-size:20px; line-height:25px; width: 1000px;'>
                                During this experiment you will be asked to rate how much you associate maps with                    different concepts.<br> Below, you can see some examples of the maps you will be asked to rate. Above the maps
                    is the list of concepts.<br>You will be asked                    to rate how much you associate each map with each concept on a scale from 'not at all' to 'very much' like the
                    one below. <br><br>
                    Now, please look at the list of concepts and maps. For each concept, think about the map you associate 'very
                    much' with the concept.<br>                     When you see that map during the experiment, please rate it near the 'very much' endpoint of the
                    scale.<br>Now, please think about which map you associate 'not at all'                     with each concept. When you see that map during the experiment, please rate it near the 'not at all' endpoint
                    of the scale.<br>
                    Please use the full range of the scale. That is, if a map is somewhat associated with the concept, you would
                    click partway between the middle point and right side of the scale.                    You will be asked to rate each map for a given concept before moving on to the next concept.<br>Press the
                    'Continue' button for instructions on how to use the slider.                    <br>
                </div>

                <div style=""width: 500px; margin: 0 auto;"">
                    <!-- Centered text paragraphs -->
                    <div style=""text-align: center; width: 500px;"">
                        <p style=""font-size:25px; line-height:15px;"">
                            angry&nbsp;&nbsp;&nbsp;&nbsp;
                            fearful&nbsp;&nbsp;&nbsp;&nbsp;
                            disgust&nbsp;&nbsp;&nbsp;&nbsp;
                            sad&nbsp;&nbsp;&nbsp;&nbsp;
                            happy
                        </p>
                        <!-- <p style=""font-size:20px; line-height:15px;"">fearful</p>
                        <p style=""font-size:20px;line-height:15px;"">disgust</p>
                        <p style=""font-size:20px;line-height:15px;"">sad</p>
                        <p style=""font-size:20px;line-height:15px;"">happy</p> -->
                    </div>
            

                    <!-- Grid section -->
                   <div style=""display: flex; justify-content: center; padding-top: 15px;"">
                    <div style=""display: grid; grid-template-columns: repeat(10, 55px); grid-gap: 5px; width: auto;"">
                        <img src=""images/map12_viridis_scaleDef_orientMir_270.png"" alt=""map"" style=""width: 100%;""><img src=""images/map12_vanimo_scaleDef_orientDef_090.png"" alt=""map"" style=""width: 100%;""><img src=""images/map13_plasma_scaleRev_orientDef_180.png"" alt=""map"" style=""width: 100%;""><img src=""images/map05_PuOr_scaleDef_orientDef_270.png"" alt=""map"" style=""width: 100%;""><img src=""images/map27_GnBu_scaleRev_orientDef_180.png"" alt=""map"" style=""width: 100%;""><img src=""images/map15_Purples_scaleDef_orientDef_270.png"" alt=""map"" style=""width: 100%;""><img src=""images/map23_Oranges_scaleDef_orientDef_090.png"" alt=""map"" style=""width: 100%;""><img src=""images/map02_PiYG_scaleDef_orientMir_090.png"" alt=""map"" style=""width: 100%;""><img src=""images/map27_YlGnBu_scaleRev_orientMir_180.png"" alt=""map"" style=""width: 100%;""><img src=""images/map26_RdPu_scaleRev_orientMir_180.png"" alt=""map"" style=""width: 100%;""><img src=""images/map13_inferno_scaleDef_orientDef_270.png"" alt=""map"" style=""width: 100%;""><img src=""images/map26_OrRd_scaleDef_orientDef_090.png"" alt=""map"" style=""width: 100%;""><img src=""images/map07_Spectral_scaleDef_orientMir_090.png"" alt=""map"" style=""width: 100%;""><img src=""images/map12_gist_earth_scaleDef_orientDef_270.png"" alt=""map"" style=""width: 100%;""><img src=""images/map26_YlOrRd_scaleRev_orientDef_000.png"" alt=""map"" style=""width: 100%;""><img src=""images/map27_PuBu_scaleRev_orientMir_000.png"" alt=""map"" style=""width: 100%;""><img src=""images/map15_Greys_scaleDef_orientDef_090.png"" alt=""map"" style=""width: 100%;""><img src=""images/map10_bwr_scaleRev_orientDef_180.png"" alt=""map"" style=""width: 100%;""><img src=""images/map12_turbo_scaleRev_orientMir_180.png"" alt=""map"" style=""width: 100%;""><img src=""images/map15_Blues_scaleDef_orientMir_090.png"" alt=""map"" style=""width: 100%;""><img src=""images/map02_YlGn_scaleRev_orientMir_000.png"" alt=""map"" style=""width: 100%;""><img src=""images/map02_PuBuGn_scaleRev_orientDef_000.png"" alt=""map"" style=""width: 100%;""><img src=""images/map13_magma_scaleRev_orientMir_180.png"" alt=""map"" style=""width: 100%;""><img src=""images/map15_cividis_scaleRev_orientDef_000.png"" alt=""map"" style=""width: 100%;""><img src=""images/map23_YlOrBr_scaleDef_orientMir_090.png"" alt=""map"" style=""width: 100%;""><img src=""images/map07_RdYlGn_scaleRev_orientMir_000.png"" alt=""map"" style=""width: 100%;""><img src=""images/map02_BuGn_scaleRev_orientDef_180.png"" alt=""map"" style=""width: 100%;""><img src=""images/map07_RdBu_scaleRev_orientDef_000.png"" alt=""map"" style=""width: 100%;""><img src=""images/map26_PuRd_scaleDef_orientDef_270.png"" alt=""map"" style=""width: 100%;""><img src=""images/map10_seismic_scaleDef_orientDef_270.png"" alt=""map"" style=""width: 100%;""><img src=""images/map23_Reds_scaleRev_orientMir_000.png"" alt=""map"" style=""width: 100%;""><img src=""images/map02_PRGn_scaleDef_orientMir_270.png"" alt=""map"" style=""width: 100%;""><img src=""images/map05_RdGy_scaleDef_orientMir_090.png"" alt=""map"" style=""width: 100%;""><img src=""images/map26_BuPu_scaleDef_orientMir_270.png"" alt=""map"" style=""width: 100%;""><img src=""images/map10_berlin_scaleDef_orientMir_090.png"" alt=""map"" style=""width: 100%;""><img src=""images/map10_coolwarm_scaleRev_orientDef_000.png"" alt=""map"" style=""width: 100%;""><img src=""images/map05_BrBG_scaleDef_orientDef_090.png"" alt=""map"" style=""width: 100%;""><img src=""images/map12_managua_scaleRev_orientDef_000.png"" alt=""map"" style=""width: 100%;""><img src=""images/map23_Greens_scaleRev_orientDef_000.png"" alt=""map"" style=""width: 100%;""><img src=""images/map07_RdYlBu_scaleDef_orientDef_090.png"" alt=""map"" style=""width: 100%;"">
                    </div>
                </div>

                    <!-- Clear floats -->
                    <div style=""clear: both;""></div>
                </div>
                            ","200","","0","true","","","","","","","","","","","","",""
"","","","","","html-button-response","7","173656","0.0-7.0","luovmxbv9q","39","8752","<div style=""width:800px;""><p style=""text-align:left"">To move the slider, click and drag your cursor to the location of the scale where you would like to make your rating and then let go. When you let go of the slider, your response will be recorded and the next trial will begin. <br>
                    We are interested in your initial impressions of each map for the given concept, so please go with your first intuition. <br>
                    Before you begin the experiment, there will be four training trials for you to practice using the scale. <br>
                     When you are ready to start the training trials, please click ""Continue"".</p><br></div>","0","","","","","","","","","","","","","","","",""
"","","","","","html-slider-response","8","178373","0.0-8.0-0.0","luovmxbv9q","39","NaN","<div style=""width:500px;"">
                                    <p style=""font-size:25px;"">Please move the slider all the way to the <br> right endpoint of the scale</p>

                                    </div>
                                </div>","200","","0","true","0","true","","","","","","","","","","",""
"","","","","","html-button-response","9","180343","0.0-8.0-1.0","luovmxbv9q","39","1458","<p align='center'><b>Good job!</b> Click on 'Continue' to proceed.</p>","0","","","","","","","","","","","","","","","",""
"","","","","","html-slider-response","10","182068","0.0-9.0-0.0","luovmxbv9q","39","NaN","<div style=""width:500px;"">
                                    <p style=""font-size:25px;"">Please move the slider all the way to the <br> left endpoint of the scale</p>

                                    </div>
                                </div>","-200","","0","true","1","true","","","","","","","","","","",""
"","","","","","html-button-response","11","183467","0.0-9.0-1.0","luovmxbv9q","39","887","<p align='center'><b>Good job!</b> Click on 'Continue' to proceed.</p>","0","","","","","","","","","","","","","","","",""
"","","","","","html-slider-response","12","187652","0.0-10.0-0.0","luovmxbv9q","39","NaN","<div style=""width:500px;"">
                                    <p style=""font-size:25px;"">Please move the slider halfway between the center and right endpoint of the scale</p>

                                    </div>
                                </div>","99","","0","true","2","true","","","","","","","","","","",""
"","","","","","html-button-response","13","188907","0.0-10.0-1.0","luovmxbv9q","39","753","<p align='center'><b>Good job!</b> Click on 'Continue' to proceed.</p>","0","","","","","","","","","","","","","","","",""
"","","","","","html-slider-response","14","190444","0.0-11.0-0.0","luovmxbv9q","39","NaN","<div style=""width:500px;"">
                                    <p style=""font-size:25px;"">Please move the slider halfway between the center and left endpoint of the scale</p>

                                    </div>
                                </div>","-97","","0","true","3","true","","","","","","","","","","",""
"","","","","","html-button-response","15","191639","0.0-11.0-1.0","luovmxbv9q","39","678","<p align='center'><b>Good job!</b> Click on 'Continue' to proceed.</p>","0","","","","","","","","","","","","","","","",""
"","","","","","html-button-response","16","195412","0.0-12.0","luovmxbv9q","39","3772","<p>Great job! You've completed the practice trials. Now you will begin the main task.</p>","0","","","","","","","","","","","","","","","",""
"","","","","","html-button-response","17","199578","0.0-13.0","luovmxbv9q","39","4165","<p>In this block of trials, you will be asked to rate how much you associate each map with:</p > <p style = 'font-size:150%; font-weight: bold'>angry</p><br></br>","0","","","","","","","","","","","","","","","",""
"","","","","","html-slider-response","18","202263","0.0-14.0","luovmxbv9q","39","NaN","<div style=""width:500px;"">
                            <p style=""font-size:50px; font-weight:bold;""
                            >angry</p>
                            <div style=""width:240px; margin: auto;"">
                                <img src=""images/map26_OrRd_scaleDef_orientDef_090.png"" style= ""width:200px""alt=""img"">
                            </div>
                        </div>","72","","0","","","","images/map26_OrRd_scaleDef_orientDef_090.png","angry","1","26","26","OrRd","orientDef","scaleDef","090","",""
"","","","","","html-slider-response","19","205149","0.0-15.0","luovmxbv9q","39","NaN","<div style=""width:500px;"">
                            <p style=""font-size:50px; font-weight:bold;""
                            >angry</p>
                            <div style=""width:240px; margin: auto;"">
                                <img src=""images/map05_PuOr_scaleDef_orientDef_270.png"" style= ""width:200px""alt=""img"">
                            </div>
                        </div>","-49","","0","","","","images/map05_PuOr_scaleDef_orientDef_270.png","angry","1","05","05","PuOr","orientDef","scaleDef","270","",""
"","","","","","html-slider-response","20","207028","0.0-16.0","luovmxbv9q","39","NaN","<div style=""width:500px;"">
                            <p style=""font-size:50px; font-weight:bold;""
                            >angry</p>
                            <div style=""width:240px; margin: auto;"">
                                <img src=""images/map26_PuRd_scaleRev_orientMir_000.png"" style= ""width:200px""alt=""img"">
                            </div>
                        </div>","75","","0","","","","images/map26_PuRd_scaleRev_orientMir_000.png","angry","1","26","26","PuRd","orientMir","scaleRev","000","",""
"","","","","","html-slider-response","21","208887","0.0-17.0","luovmxbv9q","39","NaN","<div style=""width:500px;"">
                            <p style=""font-size:50px; font-weight:bold;""
                            >angry</p>
                            <div style=""width:240px; margin: auto;"">
                                <img src=""images/map13_viridis_scaleRev_orientDef_000.png"" style= ""width:200px""alt=""img"">
                            </div>
                        </div>","-49","","0","","","","images/map13_viridis_scaleRev_orientDef_000.png","angry","1","13","13","viridis","orientDef","scaleRev","000","",""
"","","","","","html-slider-response","22","211371","0.0-18.0","luovmxbv9q","39","NaN","<div style=""width:500px;"">
                            <p style=""font-size:50px; font-weight:bold;""
                            >angry</p>
                            <div style=""width:240px; margin: auto;"">
                                <img src=""images/map10_berlin_scaleRev_orientMir_180.png"" style= ""width:200px""alt=""img"">
                            </div>
                        </div>","48","","0","","","","images/map10_berlin_scaleRev_orientMir_180.png","angry","1","10","10","berlin","orientMir","scaleRev","180","",""
"","","","","","html-slider-response","23","213146","0.0-19.0","luovmxbv9q","39","NaN","<div style=""width:500px;"">
                            <p style=""font-size:50px; font-weight:bold;""
                            >angry</p>
                            <div style=""width:240px; margin: auto;"">
                                <img src=""images/map27_GnBu_scaleRev_orientDef_180.png"" style= ""width:200px""alt=""img"">
                            </div>
                        </div>","-96","","0","","","","images/map27_GnBu_scaleRev_orientDef_180.png","angry","1","27","27","GnBu","orientDef","scaleRev","180","",""
"","","","","","html-slider-response","24","215500","0.0-20.0","luovmxbv9q","39","NaN","<div style=""width:500px;"">
                            <p style=""font-size:50px; font-weight:bold;""
                            >angry</p>
                            <div style=""width:240px; margin: auto;"">
                                <img src=""images/map10_berlin_scaleDef_orientMir_090.png"" style= ""width:200px""alt=""img"">
                            </div>
                        </div>","-108","","0","","","","images/map10_berlin_scaleDef_orientMir_090.png","angry","1","10","10","berlin","orientMir","scaleDef","090","",""
"","","","","","html-slider-response","25","217563","0.0-21.0","luovmxbv9q","39","NaN","<div style=""width:500px;"">
                            <p style=""font-size:50px; font-weight:bold;""
                            >angry</p>
                            <div style=""width:240px; margin: auto;"">
                                <img src=""images/map12_vanimo_scaleRev_orientDef_180.png"" style= ""width:200px""alt=""img"">
                            </div>
                        </div>","-113","","0","","","","images/map12_vanimo_scaleRev_orientDef_180.png","angry","1","12","12","vanimo","orientDef","scaleRev","180","",""
"","","","","","html-slider-response","26","219496","0.0-22.0","luovmxbv9q","39","NaN","<div style=""width:500px;"">
                            <p style=""font-size:50px; font-weight:bold;""
                            >angry</p>
                            <div style=""width:240px; margin: auto;"">
                                <img src=""images/map10_bwr_scaleDef_orientDef_090.png"" style= ""width:200px""alt=""img"">
                            </div>
                        </div>","109","","0","","","","images/map10_bwr_scaleDef_orientDef_090.png","angry","1","10","10","bwr","orientDef","scaleDef","090","",""
"","","","","","html-slider-response","27","221467","0.0-23.0","luovmxbv9q","39","NaN","<div style=""width:500px;"">
                            <p style=""font-size:50px; font-weight:bold;""
                            >angry</p>
                            <div style=""width:240px; margin: auto;"">
                                <img src=""images/map26_BuPu_scaleDef_orientMir_270.png"" style= ""width:200px""alt=""img"">
                            </div>
                        </div>","-71","","0","","","","images/map26_BuPu_scaleDef_orientMir_270.png","angry","1","26","26","BuPu","orientMir","scaleDef","270","",""
"","","","","","html-slider-response","28","223070","0.0-24.0","luovmxbv9q","39","NaN","<div style=""width:500px;"">
                            <p style=""font-size:50px; font-weight:bold;""
                            >angry</p>
                            <div style=""width:240px; margin: auto;"">
                                <img src=""images/map15_Blues_scaleRev_orientMir_180.png"" style= ""width:200px""alt=""img"">
                            </div>
                        </div>","-98","","0","","","","images/map15_Blues_scaleRev_orientMir_180.png","angry","1","15","15","Blues","orientMir","scaleRev","180","",""
"","","","","","html-slider-response","29","224898","0.0-25.0","luovmxbv9q","39","NaN","<div style=""width:500px;"">
                            <p style=""font-size:50px; font-weight:bold;""
                            >angry</p>
                            <div style=""width:240px; margin: auto;"">
                                <img src=""images/map23_Reds_scaleDef_orientDef_270.png"" style= ""width:200px""alt=""img"">
                            </div>
                        </div>","76","","0","","","","images/map23_Reds_scaleDef_orientDef_270.png","angry","1","23","23","Reds","orientDef","scaleDef","270","",""
"","","","","","html-slider-response","30","226513","0.0-26.0","luovmxbv9q","39","NaN","<div style=""width:500px;"">
                            <p style=""font-size:50px; font-weight:bold;""
                            >angry</p>
                            <div style=""width:240px; margin: auto;"">
                                <img src=""images/map26_RdPu_scaleDef_orientMir_090.png"" style= ""width:200px""alt=""img"">
                            </div>
                        </div>","68","","0","","","","images/map26_RdPu_scaleDef_orientMir_090.png","angry","1","26","26","RdPu","orientMir","scaleDef","090","",""
"","","","","","html-slider-response","31","227966","0.0-27.0","luovmxbv9q","39","NaN","<div style=""width:500px;"">
                            <p style=""font-size:50px; font-weight:bold;""
                            >angry</p>
                            <div style=""width:240px; margin: auto;"">
                                <img src=""images/map23_YlOrBr_scaleRev_orientMir_180.png"" style= ""width:200px""alt=""img"">
                            </div>
                        </div>","-87","","0","","","","images/map23_YlOrBr_scaleRev_orientMir_180.png","angry","1","23","23","YlOrBr","orientMir","scaleRev","180","",""
"","","","","","html-slider-response","32","229585","0.0-28.0","luovmxbv9q","39","NaN","<div style=""width:500px;"">
                            <p style=""font-size:50px; font-weight:bold;""
                            >angry</p>
                            <div style=""width:240px; margin: auto;"">
                                <img src=""images/map23_Reds_scaleRev_orientMir_000.png"" style= ""width:200px""alt=""img"">
                            </div>
                        </div>","147","","0","","","","images/map23_Reds_scaleRev_orientMir_000.png","angry","1","23","23","Reds","orientMir","scaleRev","000","",""
"","","","","","html-slider-response","33","231546","0.0-29.0","luovmxbv9q","39","NaN","<div style=""width:500px;"">
                            <p style=""font-size:50px; font-weight:bold;""
                            >angry</p>
                            <div style=""width:240px; margin: auto;"">
                                <img src=""images/map07_RdYlGn_scaleDef_orientDef_270.png"" style= ""width:200px""alt=""img"">
                            </div>
                        </div>","-71","","0","","","","images/map07_RdYlGn_scaleDef_orientDef_270.png","angry","1","07","07","RdYlGn","orientDef","scaleDef","270","",""
"","","","","","html-slider-response","34","233366","0.0-30.0","luovmxbv9q","39","NaN","<div style=""width:500px;"">
                            <p style=""font-size:50px; font-weight:bold;""
                            >angry</p>
                            <div style=""width:240px; margin: auto;"">
                                <img src=""images/map05_RdGy_scaleRev_orientMir_180.png"" style= ""width:200px""alt=""img"">
                            </div>
                        </div>","100","","0","","","","images/map05_RdGy_scaleRev_orientMir_180.png","angry","1","05","05","RdGy","orientMir","scaleRev","180","",""
"","","","","","html-slider-response","35","235046","0.0-31.0","luovmxbv9q","39","NaN","<div style=""width:500px;"">
                            <p style=""font-size:50px; font-weight:bold;""
                            >angry</p>
                            <div style=""width:240px; margin: auto;"">
                                <img src=""images/map13_magma_scaleDef_orientMir_090.png"" style= ""width:200px""alt=""img"">
                            </div>
                        </div>","-53","","0","","","","images/map13_magma_scaleDef_orientMir_090.png","angry","1","13","13","magma","orientMir","scaleDef","090","",""
"","","","","","html-slider-response","36","236463","0.0-32.0","luovmxbv9q","39","NaN","<div style=""width:500px;"">
                            <p style=""font-size:50px; font-weight:bold;""
                            >angry</p>
                            <div style=""width:240px; margin: auto;"">
                                <img src=""images/map07_RdBu_scaleRev_orientDef_000.png"" style= ""width:200px""alt=""img"">
                            </div>
                        </div>","100","","0","","","","images/map07_RdBu_scaleRev_orientDef_000.png","angry","1","07","07","RdBu","orientDef","scaleRev","000","",""
"","","","","","html-slider-response","37","238023","0.0-33.0","luovmxbv9q","39","NaN","<div style=""width:500px;"">
                            <p style=""font-size:50px; font-weight:bold;""
                            >angry</p>
                            <div style=""width:240px; margin: auto;"">
                                <img src=""images/map15_Greens_scaleDef_orientMir_270.png"" style= ""width:200px""alt=""img"">
                            </div>
                        </div>","-79","","0","","","","images/map15_Greens_scaleDef_orientMir_270.png","angry","1","15","15","Greens","orientMir","scaleDef","270","",""
"","","","","","html-slider-response","38","239562","0.0-34.0","luovmxbv9q","39","NaN","<div style=""width:500px;"">
                            <p style=""font-size:50px; font-weight:bold;""
                            >angry</p>
                            <div style=""width:240px; margin: auto;"">
                                <img src=""images/map02_PiYG_scaleDef_orientMir_090.png"" style= ""width:200px""alt=""img"">
                            </div>
                        </div>","-128","","0","","","","images/map02_PiYG_scaleDef_orientMir_090.png","angry","1","02","02","PiYG","orientMir","scaleDef","090","",""
"","","","","","html-slider-response","39","241162","0.0-35.0","luovmxbv9q","39","NaN","<div style=""width:500px;"">
                            <p style=""font-size:50px; font-weight:bold;""
                            >angry</p>
                            <div style=""width:240px; margin: auto;"">
                                <img src=""images/map05_BrBG_scaleRev_orientDef_180.png"" style= ""width:200px""alt=""img"">
                            </div>
                        </div>","-116","","0","","","","images/map05_BrBG_scaleRev_orientDef_180.png","angry","1","05","05","BrBG","orientDef","scaleRev","180","",""
"","","","","","html-slider-response","40","243196","0.0-36.0","luovmxbv9q","39","NaN","<div style=""width:500px;"">
                            <p style=""font-size:50px; font-weight:bold;""
                            >angry</p>
                            <div style=""width:240px; margin: auto;"">
                                <img src=""images/map13_inferno_scaleRev_orientMir_000.png"" style= ""width:200px""alt=""img"">
                            </div>
                        </div>","-116","","0","","","","images/map13_inferno_scaleRev_orientMir_000.png","angry","1","13","13","inferno","orientMir","scaleRev","000","",""
"","","","","","html-slider-response","41","244629","0.0-37.0","luovmxbv9q","39","NaN","<div style=""width:500px;"">
                            <p style=""font-size:50px; font-weight:bold;""
                            >angry</p>
                            <div style=""width:240px; margin: auto;"">
                                <img src=""images/map13_plasma_scaleDef_orientDef_090.png"" style= ""width:200px""alt=""img"">
                            </div>
                        </div>","-93","","0","","","","images/map13_plasma_scaleDef_orientDef_090.png","angry","1","13","13","plasma","orientDef","scaleDef","090","",""
"","","","","","html-slider-response","42","246017","0.0-38.0","luovmxbv9q","39","NaN","<div style=""width:500px;"">
                            <p style=""font-size:50px; font-weight:bold;""
                            >angry</p>
                            <div style=""width:240px; margin: auto;"">
                                <img src=""images/map27_YlGnBu_scaleDef_orientMir_090.png"" style= ""width:200px""alt=""img"">
                            </div>
                        </div>","-128","","0","","","","images/map27_YlGnBu_scaleDef_orientMir_090.png","angry","1","27","27","YlGnBu","orientMir","scaleDef","090","",""
"","","","","","html-slider-response","43","247426","0.0-39.0","luovmxbv9q","39","NaN","<div style=""width:500px;"">
                            <p style=""font-size:50px; font-weight:bold;""
                            >angry</p>
                            <div style=""width:240px; margin: auto;"">
                                <img src=""images/map27_GnBu_scaleDef_orientDef_090.png"" style= ""width:200px""alt=""img"">
                            </div>
                        </div>","-120","","0","","","","images/map27_GnBu_scaleDef_orientDef_090.png","angry","1","27","27","GnBu","orientDef","scaleDef","090","",""
"","","","","","html-slider-response","44","250312","0.0-40.0","luovmxbv9q","39","NaN","<div style=""width:500px;"">
                            <p style=""font-size:50px; font-weight:bold;""
                            >angry</p>
                            <div style=""width:240px; margin: auto;"">
                                <img src=""images/map23_Greens_scaleRev_orientDef_000.png"" style= ""width:200px""alt=""img"">
                            </div>
                        </div>","-128","","0","","","","images/map23_Greens_scaleRev_orientDef_000.png","angry","1","23","23","Greens","orientDef","scaleRev","000","",""
"","","","","","html-slider-response","45","251847","0.0-41.0","luovmxbv9q","39","NaN","<div style=""width:500px;"">
                            <p style=""font-size:50px; font-weight:bold;""
                            >angry</p>
                            <div style=""width:240px; margin: auto;"">
                                <img src=""images/map15_Purples_scaleRev_orientMir_000.png"" style= ""width:200px""alt=""img"">
                            </div>
                        </div>","-149","","0","","","","images/map15_Purples_scaleRev_orientMir_000.png","angry","1","15","15","Purples","orientMir","scaleRev","000","",""
"","","","","","html-slider-response","46","253414","0.0-42.0","luovmxbv9q","39","NaN","<div style=""width:500px;"">
                            <p style=""font-size:50px; font-weight:bold;""
                            >angry</p>
                            <div style=""width:240px; margin: auto;"">
                                <img src=""images/map07_Spectral_scaleRev_orientMir_180.png"" style= ""width:200px""alt=""img"">
                            </div>
                        </div>","-149","","0","","","","images/map07_Spectral_scaleRev_orientMir_180.png","angry","1","07","07","Spectral","orientMir","scaleRev","180","",""
"","","","","","html-slider-response","47","254770","0.0-43.0","luovmxbv9q","39","NaN","<div style=""width:500px;"">
                            <p style=""font-size:50px; font-weight:bold;""
                            >angry</p>
                            <div style=""width:240px; margin: auto;"">
                                <img src=""images/map15_cividis_scaleRev_orientDef_000.png"" style= ""width:200px""alt=""img"">
                            </div>
                        </div>","-132","","0","","","","images/map15_cividis_scaleRev_orientDef_000.png","angry","1","15","15","cividis","orientDef","scaleRev","000","",""
"","","","","","html-slider-response","48","256396","0.0-44.0","luovmxbv9q","39","NaN","<div style=""width:500px;"">
                            <p style=""font-size:50px; font-weight:bold;""
                            >angry</p>
                            <div style=""width:240px; margin: auto;"">
                                <img src=""images/map05_RdGy_scaleDef_orientMir_090.png"" style= ""width:200px""alt=""img"">
                            </div>
                        </div>","108","","0","","","","images/map05_RdGy_scaleDef_orientMir_090.png","angry","1","05","05","RdGy","orientMir","scaleDef","090","",""
"","","","","","html-slider-response","49","257720","0.0-45.0","luovmxbv9q","39","NaN","<div style=""width:500px;"">
                            <p style=""font-size:50px; font-weight:bold;""
                            >angry</p>
                            <div style=""width:240px; margin: auto;"">
                                <img src=""images/map12_turbo_scaleRev_orientMir_180.png"" style= ""width:200px""alt=""img"">
                            </div>
                        </div>","-109","","0","","","","images/map12_turbo_scaleRev_orientMir_180.png","angry","1","12","12","turbo","orientMir","scaleRev","180","",""
"","","","","","html-slider-response","50","258953","0.0-46.0","luovmxbv9q","39","NaN","<div style=""width:500px;"">
                            <p style=""font-size:50px; font-weight:bold;""
                            >angry</p>
                            <div style=""width:240px; margin: auto;"">
                                <img src=""images/map05_PRGn_scaleRev_orientDef_000.png"" style= ""width:200px""alt=""img"">
                            </div>
                        </div>","-100","","0","","","","images/map05_PRGn_scaleRev_orientDef_000.png","angry","1","05","05","PRGn","orientDef","scaleRev","000","",""
"","","","","","html-slider-response","51","262062","0.0-47.0","luovmxbv9q","39","NaN","<div style=""width:500px;"">
                            <p style=""font-size:50px; font-weight:bold;""
                            >angry</p>
                            <div style=""width:240px; margin: auto;"">
                                <img src=""images/map05_BrBG_scaleDef_orientDef_090.png"" style= ""width:200px""alt=""img"">
                            </div>
                        </div>","-92","","0","","","","images/map05_BrBG_scaleDef_orientDef_090.png","angry","1","05","05","BrBG","orientDef","scaleDef","090","",""
"","","","","","html-slider-response","52","263545","0.0-48.0","luovmxbv9q","39","NaN","<div style=""width:500px;"">
                            <p style=""font-size:50px; font-weight:bold;""
                            >angry</p>
                            <div style=""width:240px; margin: auto;"">
                                <img src=""images/map07_RdYlBu_scaleRev_orientDef_180.png"" style= ""width:200px""alt=""img"">
                            </div>
                        </div>","88","","0","","","","images/map07_RdYlBu_scaleRev_orientDef_180.png","angry","1","07","07","RdYlBu","orientDef","scaleRev","180","",""
"","","","","","html-slider-response","53","264829","0.0-49.0","luovmxbv9q","39","NaN","<div style=""width:500px;"">
                            <p style=""font-size:50px; font-weight:bold;""
                            >angry</p>
                            <div style=""width:240px; margin: auto;"">
                                <img src=""images/map02_BuGn_scaleRev_orientDef_180.png"" style= ""width:200px""alt=""img"">
                            </div>
                        </div>","-86","","0","","","","images/map02_BuGn_scaleRev_orientDef_180.png","angry","1","02","02","BuGn","orientDef","scaleRev","180","",""
"","","","","","html-slider-response","54","266248","0.0-50.0","luovmxbv9q","39","NaN","<div style=""width:500px;"">
                            <p style=""font-size:50px; font-weight:bold;""
                            >angry</p>
                            <div style=""width:240px; margin: auto;"">
                                <img src=""images/map02_YlGn_scaleDef_orientDef_270.png"" style= ""width:200px""alt=""img"">
                            </div>
                        </div>","-146","","0","","","","images/map02_YlGn_scaleDef_orientDef_270.png","angry","1","02","02","YlGn","orientDef","scaleDef","270","",""
"","","","","","html-slider-response","55","267745","0.0-51.0","luovmxbv9q","39","NaN","<div style=""width:500px;"">
                            <p style=""font-size:50px; font-weight:bold;""
                            >angry</p>
                            <div style=""width:240px; margin: auto;"">
                                <img src=""images/map13_inferno_scaleDef_orientDef_270.png"" style= ""width:200px""alt=""img"">
                            </div>
                        </div>","-112","","0","","","","images/map13_inferno_scaleDef_orientDef_270.png","angry","1","13","13","inferno","orientDef","scaleDef","270","",""
"","","","","","html-slider-response","56","269105","0.0-52.0","luovmxbv9q","39","NaN","<div style=""width:500px;"">
                            <p style=""font-size:50px; font-weight:bold;""
                            >angry</p>
                            <div style=""width:240px; margin: auto;"">
                                <img src=""images/map12_gist_earth_scaleDef_orientDef_270.png"" style= ""width:200px""alt=""img"">
                            </div>
                        </div>","-113","","0","","","","images/map12_gist_earth_scaleDef_orientDef_270.png","angry","1","12","12","gist","scaleDef","earth","orientDef","",""
"","","","","","html-slider-response","57","270753","0.0-53.0","luovmxbv9q","39","NaN","<div style=""width:500px;"">
                            <p style=""font-size:50px; font-weight:bold;""
                            >angry</p>
                            <div style=""width:240px; margin: auto;"">
                                <img src=""images/map10_coolwarm_scaleRev_orientDef_000.png"" style= ""width:200px""alt=""img"">
                            </div>
                        </div>","132","","0","","","","images/map10_coolwarm_scaleRev_orientDef_000.png","angry","1","10","10","coolwarm","orientDef","scaleRev","000","",""
"","","","","","html-button-response","58","274261","0.0-54.0","luovmxbv9q","39","3007","<p>You are doing great!<br></br> You are halway done with the current block. When you are ready to continue, click the 'Continue' button.</p>","0","","","","","","","","","","","","","","","",""
"","","","","","html-slider-response","59","275672","0.0-55.0","luovmxbv9q","39","NaN","<div style=""width:500px;"">
                            <p style=""font-size:50px; font-weight:bold;""
                            >angry</p>
                            <div style=""width:240px; margin: auto;"">
                                <img src=""images/map10_bwr_scaleRev_orientDef_180.png"" style= ""width:200px""alt=""img"">
                            </div>
                        </div>","104","","0","","","","images/map10_bwr_scaleRev_orientDef_180.png","angry","1","10","10","bwr","orientDef","scaleRev","180","",""
"","","","","","html-slider-response","60","277012","0.0-56.0","luovmxbv9q","39","NaN","<div style=""width:500px;"">
                            <p style=""font-size:50px; font-weight:bold;""
                            >angry</p>
                            <div style=""width:240px; margin: auto;"">
                                <img src=""images/map12_managua_scaleRev_orientDef_000.png"" style= ""width:200px""alt=""img"">
                            </div>
                        </div>","-109","","0","","","","images/map12_managua_scaleRev_orientDef_000.png","angry","1","12","12","managua","orientDef","scaleRev","000","",""
"","","","","","html-slider-response","61","278098","0.0-57.0","luovmxbv9q","39","NaN","<div style=""width:500px;"">
                            <p style=""font-size:50px; font-weight:bold;""
                            >angry</p>
                            <div style=""width:240px; margin: auto;"">
                                <img src=""images/map13_magma_scaleRev_orientMir_180.png"" style= ""width:200px""alt=""img"">
                            </div>
                        </div>","-107","","0","","","","images/map13_magma_scaleRev_orientMir_180.png","angry","1","13","13","magma","orientMir","scaleRev","180","",""
"","","","","","html-slider-response","62","279278","0.0-58.0","luovmxbv9q","39","NaN","<div style=""width:500px;"">
                            <p style=""font-size:50px; font-weight:bold;""
                            >angry</p>
                            <div style=""width:240px; margin: auto;"">
                                <img src=""images/map15_Blues_scaleDef_orientMir_090.png"" style= ""width:200px""alt=""img"">
                            </div>
                        </div>","-120","","0","","","","images/map15_Blues_scaleDef_orientMir_090.png","angry","1","15","15","Blues","orientMir","scaleDef","090","",""
"","","","","","html-slider-response","63","280646","0.0-59.0","luovmxbv9q","39","NaN","<div style=""width:500px;"">
                            <p style=""font-size:50px; font-weight:bold;""
                            >angry</p>
                            <div style=""width:240px; margin: auto;"">
                                <img src=""images/map26_PuRd_scaleDef_orientDef_270.png"" style= ""width:200px""alt=""img"">
                            </div>
                        </div>","148","","0","","","","images/map26_PuRd_scaleDef_orientDef_270.png","angry","1","26","26","PuRd","orientDef","scaleDef","270","",""
"","","","","","html-slider-response","64","281903","0.0-60.0","luovmxbv9q","39","NaN","<div style=""width:500px;"">
                            <p style=""font-size:50px; font-weight:bold;""
                            >angry</p>
                            <div style=""width:240px; margin: auto;"">
                                <img src=""images/map13_plasma_scaleRev_orientDef_180.png"" style= ""width:200px""alt=""img"">
                            </div>
                        </div>","-76","","0","","","","images/map13_plasma_scaleRev_orientDef_180.png","angry","1","13","13","plasma","orientDef","scaleRev","180","",""
"","","","","","html-slider-response","65","283078","0.0-61.0","luovmxbv9q","39","NaN","<div style=""width:500px;"">
                            <p style=""font-size:50px; font-weight:bold;""
                            >angry</p>
                            <div style=""width:240px; margin: auto;"">
                                <img src=""images/map02_PRGn_scaleDef_orientMir_270.png"" style= ""width:200px""alt=""img"">
                            </div>
                        </div>","-104","","0","","","","images/map02_PRGn_scaleDef_orientMir_270.png","angry","1","02","02","PRGn","orientMir","scaleDef","270","",""
"","","","","","html-slider-response","66","284223","0.0-62.0","luovmxbv9q","39","NaN","<div style=""width:500px;"">
                            <p style=""font-size:50px; font-weight:bold;""
                            >angry</p>
                            <div style=""width:240px; margin: auto;"">
                                <img src=""images/map23_YlOrBr_scaleDef_orientMir_090.png"" style= ""width:200px""alt=""img"">
                            </div>
                        </div>","-81","","0","","","","images/map23_YlOrBr_scaleDef_orientMir_090.png","angry","1","23","23","YlOrBr","orientMir","scaleDef","090","",""
"","","","","","html-slider-response","67","285478","0.0-63.0","luovmxbv9q","39","NaN","<div style=""width:500px;"">
                            <p style=""font-size:50px; font-weight:bold;""
                            >angry</p>
                            <div style=""width:240px; margin: auto;"">
                                <img src=""images/map02_PiYG_scaleRev_orientMir_180.png"" style= ""width:200px""alt=""img"">
                            </div>
                        </div>","-83","","0","","","","images/map02_PiYG_scaleRev_orientMir_180.png","angry","1","02","02","PiYG","orientMir","scaleRev","180","",""
"","","","","","html-slider-response","68","286722","0.0-64.0","luovmxbv9q","39","NaN","<div style=""width:500px;"">
                            <p style=""font-size:50px; font-weight:bold;""
                            >angry</p>
                            <div style=""width:240px; margin: auto;"">
                                <img src=""images/map27_PuBuGn_scaleDef_orientMir_270.png"" style= ""width:200px""alt=""img"">
                            </div>
                        </div>","-96","","0","","","","images/map27_PuBuGn_scaleDef_orientMir_270.png","angry","1","27","27","PuBuGn","orientMir","scaleDef","270","",""
"","","","","","html-slider-response","69","288128","0.0-65.0","luovmxbv9q","39","NaN","<div style=""width:500px;"">
                            <p style=""font-size:50px; font-weight:bold;""
                            >angry</p>
                            <div style=""width:240px; margin: auto;"">
                                <img src=""images/map02_YlGn_scaleRev_orientMir_000.png"" style= ""width:200px""alt=""img"">
                            </div>
                        </div>","-139","","0","","","","images/map02_YlGn_scaleRev_orientMir_000.png","angry","1","02","02","YlGn","orientMir","scaleRev","000","",""
"","","","","","html-slider-response","70","289396","0.0-66.0","luovmxbv9q","39","NaN","<div style=""width:500px;"">
                            <p style=""font-size:50px; font-weight:bold;""
                            >angry</p>
                            <div style=""width:240px; margin: auto;"">
                                <img src=""images/map27_PuBu_scaleDef_orientDef_270.png"" style= ""width:200px""alt=""img"">
                            </div>
                        </div>","-124","","0","","","","images/map27_PuBu_scaleDef_orientDef_270.png","angry","1","27","27","PuBu","orientDef","scaleDef","270","",""
"","","","","","html-slider-response","71","290791","0.0-67.0","luovmxbv9q","39","NaN","<div style=""width:500px;"">
                            <p style=""font-size:50px; font-weight:bold;""
                            >angry</p>
                            <div style=""width:240px; margin: auto;"">
                                <img src=""images/map12_gist_earth_scaleRev_orientMir_000.png"" style= ""width:200px""alt=""img"">
                            </div>
                        </div>","-106","","0","","","","images/map12_gist_earth_scaleRev_orientMir_000.png","angry","1","12","12","gist","scaleRev","earth","orientMir","",""
"","","","","","html-slider-response","72","292071","0.0-68.0","luovmxbv9q","39","NaN","<div style=""width:500px;"">
                            <p style=""font-size:50px; font-weight:bold;""
                            >angry</p>
                            <div style=""width:240px; margin: auto;"">
                                <img src=""images/map15_Greys_scaleDef_orientDef_090.png"" style= ""width:200px""alt=""img"">
                            </div>
                        </div>","-120","","0","","","","images/map15_Greys_scaleDef_orientDef_090.png","angry","1","15","15","Greys","orientDef","scaleDef","090","",""
"","","","","","html-slider-response","73","293281","0.0-69.0","luovmxbv9q","39","NaN","<div style=""width:500px;"">
                            <p style=""font-size:50px; font-weight:bold;""
                            >angry</p>
                            <div style=""width:240px; margin: auto;"">
                                <img src=""images/map12_vanimo_scaleDef_orientDef_090.png"" style= ""width:200px""alt=""img"">
                            </div>
                        </div>","-122","","0","","","","images/map12_vanimo_scaleDef_orientDef_090.png","angry","1","12","12","vanimo","orientDef","scaleDef","090","",""
"","","","","","html-slider-response","74","294470","0.0-70.0","luovmxbv9q","39","NaN","<div style=""width:500px;"">
                            <p style=""font-size:50px; font-weight:bold;""
                            >angry</p>
                            <div style=""width:240px; margin: auto;"">
                                <img src=""images/map07_Spectral_scaleDef_orientMir_090.png"" style= ""width:200px""alt=""img"">
                            </div>
                        </div>","-112","","0","","","","images/map07_Spectral_scaleDef_orientMir_090.png","angry","1","07","07","Spectral","orientMir","scaleDef","090","",""
"","","","","","html-slider-response","75","295545","0.0-71.0","luovmxbv9q","39","NaN","<div style=""width:500px;"">
                            <p style=""font-size:50px; font-weight:bold;""
                            >angry</p>
                            <div style=""width:240px; margin: auto;"">
                                <img src=""images/map05_PuOr_scaleRev_orientMir_000.png"" style= ""width:200px""alt=""img"">
                            </div>
                        </div>","-124","","0","","","","images/map05_PuOr_scaleRev_orientMir_000.png","angry","1","05","05","PuOr","orientMir","scaleRev","000","",""
"","","","","","html-slider-response","76","296711","0.0-72.0","luovmxbv9q","39","NaN","<div style=""width:500px;"">
                            <p style=""font-size:50px; font-weight:bold;""
                            >angry</p>
                            <div style=""width:240px; margin: auto;"">
                                <img src=""images/map12_turbo_scaleDef_orientMir_090.png"" style= ""width:200px""alt=""img"">
                            </div>
                        </div>","-89","","0","","","","images/map12_turbo_scaleDef_orientMir_090.png","angry","1","12","12","turbo","orientMir","scaleDef","090","",""
"","","","","","html-slider-response","77","298136","0.0-73.0","luovmxbv9q","39","NaN","<div style=""width:500px;"">
                            <p style=""font-size:50px; font-weight:bold;""
                            >angry</p>
                            <div style=""width:240px; margin: auto;"">
                                <img src=""images/map10_seismic_scaleRev_orientMir_000.png"" style= ""width:200px""alt=""img"">
                            </div>
                        </div>","122","","0","","","","images/map10_seismic_scaleRev_orientMir_000.png","angry","1","10","10","seismic","orientMir","scaleRev","000","",""
"","","","","","html-slider-response","78","299352","0.0-74.0","luovmxbv9q","39","NaN","<div style=""width:500px;"">
                            <p style=""font-size:50px; font-weight:bold;""
                            >angry</p>
                            <div style=""width:240px; margin: auto;"">
                                <img src=""images/map02_PuBuGn_scaleRev_orientDef_000.png"" style= ""width:200px""alt=""img"">
                            </div>
                        </div>","-100","","0","","","","images/map02_PuBuGn_scaleRev_orientDef_000.png","angry","1","02","02","PuBuGn","orientDef","scaleRev","000","",""
"","","","","","html-slider-response","79","300528","0.0-75.0","luovmxbv9q","39","NaN","<div style=""width:500px;"">
                            <p style=""font-size:50px; font-weight:bold;""
                            >angry</p>
                            <div style=""width:240px; margin: auto;"">
                                <img src=""images/map27_BuPu_scaleRev_orientDef_000.png"" style= ""width:200px""alt=""img"">
                            </div>
                        </div>","-102","","0","","","","images/map27_BuPu_scaleRev_orientDef_000.png","angry","1","27","27","BuPu","orientDef","scaleRev","000","",""
"","","","","","html-slider-response","80","301700","0.0-76.0","luovmxbv9q","39","NaN","<div style=""width:500px;"">
                            <p style=""font-size:50px; font-weight:bold;""
                            >angry</p>
                            <div style=""width:240px; margin: auto;"">
                                <img src=""images/map15_Purples_scaleDef_orientDef_270.png"" style= ""width:200px""alt=""img"">
                            </div>
                        </div>","-132","","0","","","","images/map15_Purples_scaleDef_orientDef_270.png","angry","1","15","15","Purples","orientDef","scaleDef","270","",""
"","","","","","html-slider-response","81","303165","0.0-77.0","luovmxbv9q","39","NaN","<div style=""width:500px;"">
                            <p style=""font-size:50px; font-weight:bold;""
                            >angry</p>
                            <div style=""width:240px; margin: auto;"">
                                <img src=""images/map07_coolwarm_scaleDef_orientMir_270.png"" style= ""width:200px""alt=""img"">
                            </div>
                        </div>","98","","0","","","","images/map07_coolwarm_scaleDef_orientMir_270.png","angry","1","07","07","coolwarm","orientMir","scaleDef","270","",""
"","","","","","html-slider-response","82","304448","0.0-78.0","luovmxbv9q","39","NaN","<div style=""width:500px;"">
                            <p style=""font-size:50px; font-weight:bold;""
                            >angry</p>
                            <div style=""width:240px; margin: auto;"">
                                <img src=""images/map27_YlGnBu_scaleRev_orientMir_180.png"" style= ""width:200px""alt=""img"">
                            </div>
                        </div>","-72","","0","","","","images/map27_YlGnBu_scaleRev_orientMir_180.png","angry","1","27","27","YlGnBu","orientMir","scaleRev","180","",""
"","","","","","html-slider-response","83","305636","0.0-79.0","luovmxbv9q","39","NaN","<div style=""width:500px;"">
                            <p style=""font-size:50px; font-weight:bold;""
                            >angry</p>
                            <div style=""width:240px; margin: auto;"">
                                <img src=""images/map07_RdYlGn_scaleRev_orientMir_000.png"" style= ""width:200px""alt=""img"">
                            </div>
                        </div>","-117","","0","","","","images/map07_RdYlGn_scaleRev_orientMir_000.png","angry","1","07","07","RdYlGn","orientMir","scaleRev","000","",""
"","","","","","html-slider-response","84","306817","0.0-80.0","luovmxbv9q","39","NaN","<div style=""width:500px;"">
                            <p style=""font-size:50px; font-weight:bold;""
                            >angry</p>
                            <div style=""width:240px; margin: auto;"">
                                <img src=""images/map13_cividis_scaleDef_orientMir_270.png"" style= ""width:200px""alt=""img"">
                            </div>
                        </div>","-108","","0","","","","images/map13_cividis_scaleDef_orientMir_270.png","angry","1","13","13","cividis","orientMir","scaleDef","270","",""
"","","","","","html-slider-response","85","308173","0.0-81.0","luovmxbv9q","39","NaN","<div style=""width:500px;"">
                            <p style=""font-size:50px; font-weight:bold;""
                            >angry</p>
                            <div style=""width:240px; margin: auto;"">
                                <img src=""images/map07_RdYlBu_scaleDef_orientDef_090.png"" style= ""width:200px""alt=""img"">
                            </div>
                        </div>","113","","0","","","","images/map07_RdYlBu_scaleDef_orientDef_090.png","angry","1","07","07","RdYlBu","orientDef","scaleDef","090","",""
"","","","","","html-slider-response","86","309565","0.0-82.0","luovmxbv9q","39","NaN","<div style=""width:500px;"">
                            <p style=""font-size:50px; font-weight:bold;""
                            >angry</p>
                            <div style=""width:240px; margin: auto;"">
                                <img src=""images/map23_Oranges_scaleRev_orientDef_180.png"" style= ""width:200px""alt=""img"">
                            </div>
                        </div>","116","","0","","","","images/map23_Oranges_scaleRev_orientDef_180.png","angry","1","23","23","Oranges","orientDef","scaleRev","180","",""
"","","","","","html-slider-response","87","310944","0.0-83.0","luovmxbv9q","39","NaN","<div style=""width:500px;"">
                            <p style=""font-size:50px; font-weight:bold;""
                            >angry</p>
                            <div style=""width:240px; margin: auto;"">
                                <img src=""images/map26_YlOrRd_scaleRev_orientDef_000.png"" style= ""width:200px""alt=""img"">
                            </div>
                        </div>","110","","0","","","","images/map26_YlOrRd_scaleRev_orientDef_000.png","angry","1","26","26","YlOrRd","orientDef","scaleRev","000","",""
"","","","","","html-slider-response","88","312228","0.0-84.0","luovmxbv9q","39","NaN","<div style=""width:500px;"">
                            <p style=""font-size:50px; font-weight:bold;""
                            >angry</p>
                            <div style=""width:240px; margin: auto;"">
                                <img src=""images/map10_seismic_scaleDef_orientDef_270.png"" style= ""width:200px""alt=""img"">
                            </div>
                        </div>","111","","0","","","","images/map10_seismic_scaleDef_orientDef_270.png","angry","1","10","10","seismic","orientDef","scaleDef","270","",""
"","","","","","html-slider-response","89","313567","0.0-85.0","luovmxbv9q","39","NaN","<div style=""width:500px;"">
                            <p style=""font-size:50px; font-weight:bold;""
                            >angry</p>
                            <div style=""width:240px; margin: auto;"">
                                <img src=""images/map23_YlOrRd_scaleDef_orientMir_270.png"" style= ""width:200px""alt=""img"">
                            </div>
                        </div>","120","","0","","","","images/map23_YlOrRd_scaleDef_orientMir_270.png","angry","1","23","23","YlOrRd","orientMir","scaleDef","270","",""
"","","","","","html-slider-response","90","314865","0.0-86.0","luovmxbv9q","39","NaN","<div style=""width:500px;"">
                            <p style=""font-size:50px; font-weight:bold;""
                            >angry</p>
                            <div style=""width:240px; margin: auto;"">
                                <img src=""images/map15_Greys_scaleRev_orientDef_180.png"" style= ""width:200px""alt=""img"">
                            </div>
                        </div>","-108","","0","","","","images/map15_Greys_scaleRev_orientDef_180.png","angry","1","15","15","Greys","orientDef","scaleRev","180","",""
"","","","","","html-slider-response","91","316044","0.0-87.0","luovmxbv9q","39","NaN","<div style=""width:500px;"">
                            <p style=""font-size:50px; font-weight:bold;""
                            >angry</p>
                            <div style=""width:240px; margin: auto;"">
                                <img src=""images/map26_RdPu_scaleRev_orientMir_180.png"" style= ""width:200px""alt=""img"">
                            </div>
                        </div>","-126","","0","","","","images/map26_RdPu_scaleRev_orientMir_180.png","angry","1","26","26","RdPu","orientMir","scaleRev","180","",""
"","","","","","html-slider-response","92","317544","0.0-88.0","luovmxbv9q","39","NaN","<div style=""width:500px;"">
                            <p style=""font-size:50px; font-weight:bold;""
                            >angry</p>
                            <div style=""width:240px; margin: auto;"">
                                <img src=""images/map23_Oranges_scaleDef_orientDef_090.png"" style= ""width:200px""alt=""img"">
                            </div>
                        </div>","-111","","0","","","","images/map23_Oranges_scaleDef_orientDef_090.png","angry","1","23","23","Oranges","orientDef","scaleDef","090","",""
"","","","","","html-slider-response","93","318868","0.0-89.0","luovmxbv9q","39","NaN","<div style=""width:500px;"">
                            <p style=""font-size:50px; font-weight:bold;""
                            >angry</p>
                            <div style=""width:240px; margin: auto;"">
                                <img src=""images/map26_OrRd_scaleRev_orientDef_180.png"" style= ""width:200px""alt=""img"">
                            </div>
                        </div>","148","","0","","","","images/map26_OrRd_scaleRev_orientDef_180.png","angry","1","26","26","OrRd","orientDef","scaleRev","180","",""
"","","","","","html-slider-response","94","320244","0.0-90.0","luovmxbv9q","39","NaN","<div style=""width:500px;"">
                            <p style=""font-size:50px; font-weight:bold;""
                            >angry</p>
                            <div style=""width:240px; margin: auto;"">
                                <img src=""images/map27_PuBu_scaleRev_orientMir_000.png"" style= ""width:200px""alt=""img"">
                            </div>
                        </div>","-124","","0","","","","images/map27_PuBu_scaleRev_orientMir_000.png","angry","1","27","27","PuBu","orientMir","scaleRev","000","",""
"","","","","","html-slider-response","95","321494","0.0-91.0","luovmxbv9q","39","NaN","<div style=""width:500px;"">
                            <p style=""font-size:50px; font-weight:bold;""
                            >angry</p>
                            <div style=""width:240px; margin: auto;"">
                                <img src=""images/map02_BuGn_scaleDef_orientDef_090.png"" style= ""width:200px""alt=""img"">
                            </div>
                        </div>","-120","","0","","","","images/map02_BuGn_scaleDef_orientDef_090.png","angry","1","02","02","BuGn","orientDef","scaleDef","090","",""
"","","","","","html-slider-response","96","322877","0.0-92.0","luovmxbv9q","39","NaN","<div style=""width:500px;"">
                            <p style=""font-size:50px; font-weight:bold;""
                            >angry</p>
                            <div style=""width:240px; margin: auto;"">
                                <img src=""images/map05_RdBu_scaleDef_orientMir_270.png"" style= ""width:200px""alt=""img"">
                            </div>
                        </div>","135","","0","","","","images/map05_RdBu_scaleDef_orientMir_270.png","angry","1","05","05","RdBu","orientMir","scaleDef","270","",""
"","","","","","html-slider-response","97","324217","0.0-93.0","luovmxbv9q","39","NaN","<div style=""width:500px;"">
                            <p style=""font-size:50px; font-weight:bold;""
                            >angry</p>
                            <div style=""width:240px; margin: auto;"">
                                <img src=""images/map10_managua_scaleDef_orientMir_270.png"" style= ""width:200px""alt=""img"">
                            </div>
                        </div>","96","","0","","","","images/map10_managua_scaleDef_orientMir_270.png","angry","1","10","10","managua","orientMir","scaleDef","270","",""
"","","","","","html-slider-response","98","325477","0.0-94.0","luovmxbv9q","39","NaN","<div style=""width:500px;"">
                            <p style=""font-size:50px; font-weight:bold;""
                            >angry</p>
                            <div style=""width:240px; margin: auto;"">
                                <img src=""images/map12_viridis_scaleDef_orientMir_270.png"" style= ""width:200px""alt=""img"">
                            </div>
                        </div>","-139","","0","","","","images/map12_viridis_scaleDef_orientMir_270.png","angry","1","12","12","viridis","orientMir","scaleDef","270","",""
"","","","","","html-button-response","99","327740","0.0-95.0","luovmxbv9q","39","1756","<p>Great Job! You've finished block 1.<br></br> You have 4 block(s) left to go.<br></br></p>","0","","","","","","","","","","","","","","","",""
"","","","","","html-button-response","100","329096","0.0-96.0","luovmxbv9q","39","1356","<p>In this block of trials, you will be asked to rate how much you associate each map with:</p > <p style = 'font-size:150%; font-weight: bold'>fearful</p><br></br>","0","","","","","","","","","","","","","","","",""
"","","","","","html-slider-response","101","331077","0.0-97.0","luovmxbv9q","39","NaN","<div style=""width:500px;"">
                            <p style=""font-size:50px; font-weight:bold;""
                            >fearful</p>
                            <div style=""width:240px; margin: auto;"">
                                <img src=""images/map10_seismic_scaleRev_orientMir_000.png"" style= ""width:200px""alt=""img"">
                            </div>
                        </div>","61","","0","","","","images/map10_seismic_scaleRev_orientMir_000.png","fearful","1","10","10","seismic","orientMir","scaleRev","000","",""
"","","","","","html-slider-response","102","332594","0.0-98.0","luovmxbv9q","39","NaN","<div style=""width:500px;"">
                            <p style=""font-size:50px; font-weight:bold;""
                            >fearful</p>
                            <div style=""width:240px; margin: auto;"">
                                <img src=""images/map12_managua_scaleRev_orientDef_000.png"" style= ""width:200px""alt=""img"">
                            </div>
                        </div>","-76","","0","","","","images/map12_managua_scaleRev_orientDef_000.png","fearful","1","12","12","managua","orientDef","scaleRev","000","",""
"","","","","","html-slider-response","103","334196","0.0-99.0","luovmxbv9q","39","NaN","<div style=""width:500px;"">
                            <p style=""font-size:50px; font-weight:bold;""
                            >fearful</p>
                            <div style=""width:240px; margin: auto;"">
                                <img src=""images/map13_magma_scaleDef_orientMir_090.png"" style= ""width:200px""alt=""img"">
                            </div>
                        </div>","61","","0","","","","images/map13_magma_scaleDef_orientMir_090.png","fearful","1","13","13","magma","orientMir","scaleDef","090","",""
"","","","","","html-slider-response","104","335653","0.0-100.0","luovmxbv9q","39","NaN","<div style=""width:500px;"">
                            <p style=""font-size:50px; font-weight:bold;""
                            >fearful</p>
                            <div style=""width:240px; margin: auto;"">
                                <img src=""images/map05_BrBG_scaleDef_orientDef_090.png"" style= ""width:200px""alt=""img"">
                            </div>
                        </div>","81","","0","","","","images/map05_BrBG_scaleDef_orientDef_090.png","fearful","1","05","05","BrBG","orientDef","scaleDef","090","",""
"","","","","","html-slider-response","105","337053","0.0-101.0","luovmxbv9q","39","NaN","<div style=""width:500px;"">
                            <p style=""font-size:50px; font-weight:bold;""
                            >fearful</p>
                            <div style=""width:240px; margin: auto;"">
                                <img src=""images/map13_magma_scaleRev_orientMir_180.png"" style= ""width:200px""alt=""img"">
                            </div>
                        </div>","100","","0","","","","images/map13_magma_scaleRev_orientMir_180.png","fearful","1","13","13","magma","orientMir","scaleRev","180","",""
"","","","","","html-slider-response","106","338511","0.0-102.0","luovmxbv9q","39","NaN","<div style=""width:500px;"">
                            <p style=""font-size:50px; font-weight:bold;""
                            >fearful</p>
                            <div style=""width:240px; margin: auto;"">
                                <img src=""images/map26_YlOrRd_scaleRev_orientDef_000.png"" style= ""width:200px""alt=""img"">
                            </div>
                        </div>","104","","0","","","","images/map26_YlOrRd_scaleRev_orientDef_000.png","fearful","1","26","26","YlOrRd","orientDef","scaleRev","000","",""
"","","","","","html-slider-response","107","339911","0.0-103.0","luovmxbv9q","39","NaN","<div style=""width:500px;"">
                            <p style=""font-size:50px; font-weight:bold;""
                            >fearful</p>
                            <div style=""width:240px; margin: auto;"">
                                <img src=""images/map12_viridis_scaleDef_orientMir_270.png"" style= ""width:200px""alt=""img"">
                            </div>
                        </div>","-76","","0","","","","images/map12_viridis_scaleDef_orientMir_270.png","fearful","1","12","12","viridis","orientMir","scaleDef","270","",""
"","","","","","html-slider-response","108","341277","0.0-104.0","luovmxbv9q","39","NaN","<div style=""width:500px;"">
                            <p style=""font-size:50px; font-weight:bold;""
                            >fearful</p>
                            <div style=""width:240px; margin: auto;"">
                                <img src=""images/map10_bwr_scaleDef_orientDef_090.png"" style= ""width:200px""alt=""img"">
                            </div>
                        </div>","104","","0","","","","images/map10_bwr_scaleDef_orientDef_090.png","fearful","1","10","10","bwr","orientDef","scaleDef","090","",""
"","","","","","html-slider-response","109","349095","0.0-105.0","luovmxbv9q","39","NaN","<div style=""width:500px;"">
                            <p style=""font-size:50px; font-weight:bold;""
                            >fearful</p>
                            <div style=""width:240px; margin: auto;"">
                                <img src=""images/map15_Blues_scaleDef_orientMir_090.png"" style= ""width:200px""alt=""img"">
                            </div>
                        </div>","112","","0","","","","images/map15_Blues_scaleDef_orientMir_090.png","fearful","1","15","15","Blues","orientMir","scaleDef","090","",""
"","","","","","html-slider-response","110","351318","0.0-106.0","luovmxbv9q","39","NaN","<div style=""width:500px;"">
                            <p style=""font-size:50px; font-weight:bold;""
                            >fearful</p>
                            <div style=""width:240px; margin: auto;"">
                                <img src=""images/map27_YlGnBu_scaleDef_orientMir_090.png"" style= ""width:200px""alt=""img"">
                            </div>
                        </div>","-144","","0","","","","images/map27_YlGnBu_scaleDef_orientMir_090.png","fearful","1","27","27","YlGnBu","orientMir","scaleDef","090","",""
"","","","","","html-slider-response","111","352819","0.0-107.0","luovmxbv9q","39","NaN","<div style=""width:500px;"">
                            <p style=""font-size:50px; font-weight:bold;""
                            >fearful</p>
                            <div style=""width:240px; margin: auto;"">
                                <img src=""images/map27_YlGnBu_scaleRev_orientMir_180.png"" style= ""width:200px""alt=""img"">
                            </div>
                        </div>","-135","","0","","","","images/map27_YlGnBu_scaleRev_orientMir_180.png","fearful","1","27","27","YlGnBu","orientMir","scaleRev","180","",""
"","","","","","html-slider-response","112","354148","0.0-108.0","luovmxbv9q","39","NaN","<div style=""width:500px;"">
                            <p style=""font-size:50px; font-weight:bold;""
                            >fearful</p>
                            <div style=""width:240px; margin: auto;"">
                                <img src=""images/map23_YlOrRd_scaleDef_orientMir_270.png"" style= ""width:200px""alt=""img"">
                            </div>
                        </div>","115","","0","","","","images/map23_YlOrRd_scaleDef_orientMir_270.png","fearful","1","23","23","YlOrRd","orientMir","scaleDef","270","",""
"","","","","","html-slider-response","113","355372","0.0-109.0","luovmxbv9q","39","NaN","<div style=""width:500px;"">
                            <p style=""font-size:50px; font-weight:bold;""
                            >fearful</p>
                            <div style=""width:240px; margin: auto;"">
                                <img src=""images/map12_gist_earth_scaleRev_orientMir_000.png"" style= ""width:200px""alt=""img"">
                            </div>
                        </div>","-134","","0","","","","images/map12_gist_earth_scaleRev_orientMir_000.png","fearful","1","12","12","gist","scaleRev","earth","orientMir","",""
"","","","","","html-slider-response","114","356710","0.0-110.0","luovmxbv9q","39","NaN","<div style=""width:500px;"">
                            <p style=""font-size:50px; font-weight:bold;""
                            >fearful</p>
                            <div style=""width:240px; margin: auto;"">
                                <img src=""images/map27_GnBu_scaleDef_orientDef_090.png"" style= ""width:200px""alt=""img"">
                            </div>
                        </div>","-145","","0","","","","images/map27_GnBu_scaleDef_orientDef_090.png","fearful","1","27","27","GnBu","orientDef","scaleDef","090","",""
"","","","","","html-slider-response","115","358017","0.0-111.0","luovmxbv9q","39","NaN","<div style=""width:500px;"">
                            <p style=""font-size:50px; font-weight:bold;""
                            >fearful</p>
                            <div style=""width:240px; margin: auto;"">
                                <img src=""images/map26_PuRd_scaleRev_orientMir_000.png"" style= ""width:200px""alt=""img"">
                            </div>
                        </div>","-124","","0","","","","images/map26_PuRd_scaleRev_orientMir_000.png","fearful","1","26","26","PuRd","orientMir","scaleRev","000","",""
"","","","","","html-slider-response","116","359220","0.0-112.0","luovmxbv9q","39","NaN","<div style=""width:500px;"">
                            <p style=""font-size:50px; font-weight:bold;""
                            >fearful</p>
                            <div style=""width:240px; margin: auto;"">
                                <img src=""images/map27_PuBu_scaleRev_orientMir_000.png"" style= ""width:200px""alt=""img"">
                            </div>
                        </div>","-158","","0","","","","images/map27_PuBu_scaleRev_orientMir_000.png","fearful","1","27","27","PuBu","orientMir","scaleRev","000","",""
"","","","","","html-slider-response","117","360593","0.0-113.0","luovmxbv9q","39","NaN","<div style=""width:500px;"">
                            <p style=""font-size:50px; font-weight:bold;""
                            >fearful</p>
                            <div style=""width:240px; margin: auto;"">
                                <img src=""images/map07_RdYlGn_scaleDef_orientDef_270.png"" style= ""width:200px""alt=""img"">
                            </div>
                        </div>","-130","","0","","","","images/map07_RdYlGn_scaleDef_orientDef_270.png","fearful","1","07","07","RdYlGn","orientDef","scaleDef","270","",""
"","","","","","html-slider-response","118","362078","0.0-114.0","luovmxbv9q","39","NaN","<div style=""width:500px;"">
                            <p style=""font-size:50px; font-weight:bold;""
                            >fearful</p>
                            <div style=""width:240px; margin: auto;"">
                                <img src=""images/map10_seismic_scaleDef_orientDef_270.png"" style= ""width:200px""alt=""img"">
                            </div>
                        </div>","124","","0","","","","images/map10_seismic_scaleDef_orientDef_270.png","fearful","1","10","10","seismic","orientDef","scaleDef","270","",""
"","","","","","html-slider-response","119","363443","0.0-115.0","luovmxbv9q","39","NaN","<div style=""width:500px;"">
                            <p style=""font-size:50px; font-weight:bold;""
                            >fearful</p>
                            <div style=""width:240px; margin: auto;"">
                                <img src=""images/map26_RdPu_scaleDef_orientMir_090.png"" style= ""width:200px""alt=""img"">
                            </div>
                        </div>","-119","","0","","","","images/map26_RdPu_scaleDef_orientMir_090.png","fearful","1","26","26","RdPu","orientMir","scaleDef","090","",""
"","","","","","html-slider-response","120","364717","0.0-116.0","luovmxbv9q","39","NaN","<div style=""width:500px;"">
                            <p style=""font-size:50px; font-weight:bold;""
                            >fearful</p>
                            <div style=""width:240px; margin: auto;"">
                                <img src=""images/map05_BrBG_scaleRev_orientDef_180.png"" style= ""width:200px""alt=""img"">
                            </div>
                        </div>","-120","","0","","","","images/map05_BrBG_scaleRev_orientDef_180.png","fearful","1","05","05","BrBG","orientDef","scaleRev","180","",""
"","","","","","html-slider-response","121","365913","0.0-117.0","luovmxbv9q","39","NaN","<div style=""width:500px;"">
                            <p style=""font-size:50px; font-weight:bold;""
                            >fearful</p>
                            <div style=""width:240px; margin: auto;"">
                                <img src=""images/map23_YlOrBr_scaleDef_orientMir_090.png"" style= ""width:200px""alt=""img"">
                            </div>
                        </div>","-130","","0","","","","images/map23_YlOrBr_scaleDef_orientMir_090.png","fearful","1","23","23","YlOrBr","orientMir","scaleDef","090","",""
"","","","","","html-slider-response","122","367817","0.0-118.0","luovmxbv9q","39","NaN","<div style=""width:500px;"">
                            <p style=""font-size:50px; font-weight:bold;""
                            >fearful</p>
                            <div style=""width:240px; margin: auto;"">
                                <img src=""images/map05_PuOr_scaleDef_orientDef_270.png"" style= ""width:200px""alt=""img"">
                            </div>
                        </div>","-151","","0","","","","images/map05_PuOr_scaleDef_orientDef_270.png","fearful","1","05","05","PuOr","orientDef","scaleDef","270","",""
"","","","","","html-slider-response","123","369377","0.0-119.0","luovmxbv9q","39","NaN","<div style=""width:500px;"">
                            <p style=""font-size:50px; font-weight:bold;""
                            >fearful</p>
                            <div style=""width:240px; margin: auto;"">
                                <img src=""images/map27_BuPu_scaleRev_orientDef_000.png"" style= ""width:200px""alt=""img"">
                            </div>
                        </div>","-162","","0","","","","images/map27_BuPu_scaleRev_orientDef_000.png","fearful","1","27","27","BuPu","orientDef","scaleRev","000","",""
"","","","","","html-slider-response","124","370884","0.0-120.0","luovmxbv9q","39","NaN","<div style=""width:500px;"">
                            <p style=""font-size:50px; font-weight:bold;""
                            >fearful</p>
                            <div style=""width:240px; margin: auto;"">
                                <img src=""images/map13_inferno_scaleDef_orientDef_270.png"" style= ""width:200px""alt=""img"">
                            </div>
                        </div>","-173","","0","","","","images/map13_inferno_scaleDef_orientDef_270.png","fearful","1","13","13","inferno","orientDef","scaleDef","270","",""
"","","","","","html-slider-response","125","372612","0.0-121.0","luovmxbv9q","39","NaN","<div style=""width:500px;"">
                            <p style=""font-size:50px; font-weight:bold;""
                            >fearful</p>
                            <div style=""width:240px; margin: auto;"">
                                <img src=""images/map26_PuRd_scaleDef_orientDef_270.png"" style= ""width:200px""alt=""img"">
                            </div>
                        </div>","-152","","0","","","","images/map26_PuRd_scaleDef_orientDef_270.png","fearful","1","26","26","PuRd","orientDef","scaleDef","270","",""
"","","","","","html-slider-response","126","373860","0.0-122.0","luovmxbv9q","39","NaN","<div style=""width:500px;"">
                            <p style=""font-size:50px; font-weight:bold;""
                            >fearful</p>
                            <div style=""width:240px; margin: auto;"">
                                <img src=""images/map12_gist_earth_scaleDef_orientDef_270.png"" style= ""width:200px""alt=""img"">
                            </div>
                        </div>","-156","","0","","","","images/map12_gist_earth_scaleDef_orientDef_270.png","fearful","1","12","12","gist","scaleDef","earth","orientDef","",""
"","","","","","html-slider-response","127","375293","0.0-123.0","luovmxbv9q","39","NaN","<div style=""width:500px;"">
                            <p style=""font-size:50px; font-weight:bold;""
                            >fearful</p>
                            <div style=""width:240px; margin: auto;"">
                                <img src=""images/map15_Purples_scaleDef_orientDef_270.png"" style= ""width:200px""alt=""img"">
                            </div>
                        </div>","-136","","0","","","","images/map15_Purples_scaleDef_orientDef_270.png","fearful","1","15","15","Purples","orientDef","scaleDef","270","",""
"","","","","","html-slider-response","128","377227","0.0-124.0","luovmxbv9q","39","NaN","<div style=""width:500px;"">
                            <p style=""font-size:50px; font-weight:bold;""
                            >fearful</p>
                            <div style=""width:240px; margin: auto;"">
                                <img src=""images/map13_viridis_scaleRev_orientDef_000.png"" style= ""width:200px""alt=""img"">
                            </div>
                        </div>","-156","","0","","","","images/map13_viridis_scaleRev_orientDef_000.png","fearful","1","13","13","viridis","orientDef","scaleRev","000","",""
"","","","","","html-slider-response","129","378948","0.0-125.0","luovmxbv9q","39","NaN","<div style=""width:500px;"">
                            <p style=""font-size:50px; font-weight:bold;""
                            >fearful</p>
                            <div style=""width:240px; margin: auto;"">
                                <img src=""images/map07_Spectral_scaleRev_orientMir_180.png"" style= ""width:200px""alt=""img"">
                            </div>
                        </div>","-146","","0","","","","images/map07_Spectral_scaleRev_orientMir_180.png","fearful","1","07","07","Spectral","orientMir","scaleRev","180","",""
"","","","","","html-slider-response","130","380293","0.0-126.0","luovmxbv9q","39","NaN","<div style=""width:500px;"">
                            <p style=""font-size:50px; font-weight:bold;""
                            >fearful</p>
                            <div style=""width:240px; margin: auto;"">
                                <img src=""images/map12_turbo_scaleDef_orientMir_090.png"" style= ""width:200px""alt=""img"">
                            </div>
                        </div>","-107","","0","","","","images/map12_turbo_scaleDef_orientMir_090.png","fearful","1","12","12","turbo","orientMir","scaleDef","090","",""
"","","","","","html-slider-response","131","381860","0.0-127.0","luovmxbv9q","39","NaN","<div style=""width:500px;"">
                            <p style=""font-size:50px; font-weight:bold;""
                            >fearful</p>
                            <div style=""width:240px; margin: auto;"">
                                <img src=""images/map02_PRGn_scaleDef_orientMir_270.png"" style= ""width:200px""alt=""img"">
                            </div>
                        </div>","-161","","0","","","","images/map02_PRGn_scaleDef_orientMir_270.png","fearful","1","02","02","PRGn","orientMir","scaleDef","270","",""
"","","","","","html-slider-response","132","383169","0.0-128.0","luovmxbv9q","39","NaN","<div style=""width:500px;"">
                            <p style=""font-size:50px; font-weight:bold;""
                            >fearful</p>
                            <div style=""width:240px; margin: auto;"">
                                <img src=""images/map27_PuBuGn_scaleDef_orientMir_270.png"" style= ""width:200px""alt=""img"">
                            </div>
                        </div>","-116","","0","","","","images/map27_PuBuGn_scaleDef_orientMir_270.png","fearful","1","27","27","PuBuGn","orientMir","scaleDef","270","",""
"","","","","","html-slider-response","133","384503","0.0-129.0","luovmxbv9q","39","NaN","<div style=""width:500px;"">
                            <p style=""font-size:50px; font-weight:bold;""
                            >fearful</p>
                            <div style=""width:240px; margin: auto;"">
                                <img src=""images/map07_RdYlGn_scaleRev_orientMir_000.png"" style= ""width:200px""alt=""img"">
                            </div>
                        </div>","-118","","0","","","","images/map07_RdYlGn_scaleRev_orientMir_000.png","fearful","1","07","07","RdYlGn","orientMir","scaleRev","000","",""
"","","","","","html-slider-response","134","386160","0.0-130.0","luovmxbv9q","39","NaN","<div style=""width:500px;"">
                            <p style=""font-size:50px; font-weight:bold;""
                            >fearful</p>
                            <div style=""width:240px; margin: auto;"">
                                <img src=""images/map07_coolwarm_scaleDef_orientMir_270.png"" style= ""width:200px""alt=""img"">
                            </div>
                        </div>","-128","","0","","","","images/map07_coolwarm_scaleDef_orientMir_270.png","fearful","1","07","07","coolwarm","orientMir","scaleDef","270","",""
"","","","","","html-slider-response","135","387843","0.0-131.0","luovmxbv9q","39","NaN","<div style=""width:500px;"">
                            <p style=""font-size:50px; font-weight:bold;""
                            >fearful</p>
                            <div style=""width:240px; margin: auto;"">
                                <img src=""images/map02_YlGn_scaleRev_orientMir_000.png"" style= ""width:200px""alt=""img"">
                            </div>
                        </div>","-128","","0","","","","images/map02_YlGn_scaleRev_orientMir_000.png","fearful","1","02","02","YlGn","orientMir","scaleRev","000","",""
"","","","","","html-slider-response","136","389352","0.0-132.0","luovmxbv9q","39","NaN","<div style=""width:500px;"">
                            <p style=""font-size:50px; font-weight:bold;""
                            >fearful</p>
                            <div style=""width:240px; margin: auto;"">
                                <img src=""images/map23_Oranges_scaleDef_orientDef_090.png"" style= ""width:200px""alt=""img"">
                            </div>
                        </div>","-162","","0","","","","images/map23_Oranges_scaleDef_orientDef_090.png","fearful","1","23","23","Oranges","orientDef","scaleDef","090","",""
"","","","","","html-slider-response","137","390448","0.0-133.0","luovmxbv9q","39","NaN","<div style=""width:500px;"">
                            <p style=""font-size:50px; font-weight:bold;""
                            >fearful</p>
                            <div style=""width:240px; margin: auto;"">
                                <img src=""images/map05_PuOr_scaleRev_orientMir_000.png"" style= ""width:200px""alt=""img"">
                            </div>
                        </div>","-130","","0","","","","images/map05_PuOr_scaleRev_orientMir_000.png","fearful","1","05","05","PuOr","orientMir","scaleRev","000","",""
"","","","","","html-slider-response","138","391802","0.0-134.0","luovmxbv9q","39","NaN","<div style=""width:500px;"">
                            <p style=""font-size:50px; font-weight:bold;""
                            >fearful</p>
                            <div style=""width:240px; margin: auto;"">
                                <img src=""images/map27_PuBu_scaleDef_orientDef_270.png"" style= ""width:200px""alt=""img"">
                            </div>
                        </div>","-143","","0","","","","images/map27_PuBu_scaleDef_orientDef_270.png","fearful","1","27","27","PuBu","orientDef","scaleDef","270","",""
"","","","","","html-slider-response","139","393343","0.0-135.0","luovmxbv9q","39","NaN","<div style=""width:500px;"">
                            <p style=""font-size:50px; font-weight:bold;""
                            >fearful</p>
                            <div style=""width:240px; margin: auto;"">
                                <img src=""images/map12_vanimo_scaleRev_orientDef_180.png"" style= ""width:200px""alt=""img"">
                            </div>
                        </div>","-102","","0","","","","images/map12_vanimo_scaleRev_orientDef_180.png","fearful","1","12","12","vanimo","orientDef","scaleRev","180","",""
"","","","","","html-slider-response","140","394626","0.0-136.0","luovmxbv9q","39","NaN","<div style=""width:500px;"">
                            <p style=""font-size:50px; font-weight:bold;""
                            >fearful</p>
                            <div style=""width:240px; margin: auto;"">
                                <img src=""images/map10_coolwarm_scaleRev_orientDef_000.png"" style= ""width:200px""alt=""img"">
                            </div>
                        </div>","-145","","0","","","","images/map10_coolwarm_scaleRev_orientDef_000.png","fearful","1","10","10","coolwarm","orientDef","scaleRev","000","",""
"","","","","","html-button-response","141","396180","0.0-137.0","luovmxbv9q","39","1053","<p>You are doing great!<br></br> You are halway done with the current block. When you are ready to continue, click the 'Continue' button.</p>","0","","","","","","","","","","","","","","","",""
"","","","","","html-slider-response","142","397611","0.0-138.0","luovmxbv9q","39","NaN","<div style=""width:500px;"">
                            <p style=""font-size:50px; font-weight:bold;""
                            >fearful</p>
                            <div style=""width:240px; margin: auto;"">
                                <img src=""images/map23_Reds_scaleRev_orientMir_000.png"" style= ""width:200px""alt=""img"">
                            </div>
                        </div>","-102","","0","","","","images/map23_Reds_scaleRev_orientMir_000.png","fearful","1","23","23","Reds","orientMir","scaleRev","000","",""
"","","","","","html-slider-response","143","399035","0.0-139.0","luovmxbv9q","39","NaN","<div style=""width:500px;"">
                            <p style=""font-size:50px; font-weight:bold;""
                            >fearful</p>
                            <div style=""width:240px; margin: auto;"">
                                <img src=""images/map23_Greens_scaleRev_orientDef_000.png"" style= ""width:200px""alt=""img"">
                            </div>
                        </div>","-117","","0","","","","images/map23_Greens_scaleRev_orientDef_000.png","fearful","1","23","23","Greens","orientDef","scaleRev","000","",""
"","","","","","html-slider-response","144","400345","0.0-140.0","luovmxbv9q","39","NaN","<div style=""width:500px;"">
                            <p style=""font-size:50px; font-weight:bold;""
                            >fearful</p>
                            <div style=""width:240px; margin: auto;"">
                                <img src=""images/map02_YlGn_scaleDef_orientDef_270.png"" style= ""width:200px""alt=""img"">
                            </div>
                        </div>","-93","","0","","","","images/map02_YlGn_scaleDef_orientDef_270.png","fearful","1","02","02","YlGn","orientDef","scaleDef","270","",""
"","","","","","html-slider-response","145","401626","0.0-141.0","luovmxbv9q","39","NaN","<div style=""width:500px;"">
                            <p style=""font-size:50px; font-weight:bold;""
                            >fearful</p>
                            <div style=""width:240px; margin: auto;"">
                                <img src=""images/map05_RdGy_scaleRev_orientMir_180.png"" style= ""width:200px""alt=""img"">
                            </div>
                        </div>","-136","","0","","","","images/map05_RdGy_scaleRev_orientMir_180.png","fearful","1","05","05","RdGy","orientMir","scaleRev","180","",""
"","","","","","html-slider-response","146","403050","0.0-142.0","luovmxbv9q","39","NaN","<div style=""width:500px;"">
                            <p style=""font-size:50px; font-weight:bold;""
                            >fearful</p>
                            <div style=""width:240px; margin: auto;"">
                                <img src=""images/map02_BuGn_scaleRev_orientDef_180.png"" style= ""width:200px""alt=""img"">
                            </div>
                        </div>","-142","","0","","","","images/map02_BuGn_scaleRev_orientDef_180.png","fearful","1","02","02","BuGn","orientDef","scaleRev","180","",""
"","","","","","html-slider-response","147","404509","0.0-143.0","luovmxbv9q","39","NaN","<div style=""width:500px;"">
                            <p style=""font-size:50px; font-weight:bold;""
                            >fearful</p>
                            <div style=""width:240px; margin: auto;"">
                                <img src=""images/map27_GnBu_scaleRev_orientDef_180.png"" style= ""width:200px""alt=""img"">
                            </div>
                        </div>","-156","","0","","","","images/map27_GnBu_scaleRev_orientDef_180.png","fearful","1","27","27","GnBu","orientDef","scaleRev","180","",""
"","","","","","html-slider-response","148","406309","0.0-144.0","luovmxbv9q","39","NaN","<div style=""width:500px;"">
                            <p style=""font-size:50px; font-weight:bold;""
                            >fearful</p>
                            <div style=""width:240px; margin: auto;"">
                                <img src=""images/map05_RdBu_scaleDef_orientMir_270.png"" style= ""width:200px""alt=""img"">
                            </div>
                        </div>","103","","0","","","","images/map05_RdBu_scaleDef_orientMir_270.png","fearful","1","05","05","RdBu","orientMir","scaleDef","270","",""
"","","","","","html-slider-response","149","407578","0.0-145.0","luovmxbv9q","39","NaN","<div style=""width:500px;"">
                            <p style=""font-size:50px; font-weight:bold;""
                            >fearful</p>
                            <div style=""width:240px; margin: auto;"">
                                <img src=""images/map07_RdBu_scaleRev_orientDef_000.png"" style= ""width:200px""alt=""img"">
                            </div>
                        </div>","64","","0","","","","images/map07_RdBu_scaleRev_orientDef_000.png","fearful","1","07","07","RdBu","orientDef","scaleRev","000","",""
"","","","","","html-slider-response","150","408860","0.0-146.0","luovmxbv9q","39","NaN","<div style=""width:500px;"">
                            <p style=""font-size:50px; font-weight:bold;""
                            >fearful</p>
                            <div style=""width:240px; margin: auto;"">
                                <img src=""images/map02_PiYG_scaleDef_orientMir_090.png"" style= ""width:200px""alt=""img"">
                            </div>
                        </div>","-115","","0","","","","images/map02_PiYG_scaleDef_orientMir_090.png","fearful","1","02","02","PiYG","orientMir","scaleDef","090","",""
"","","","","","html-slider-response","151","410292","0.0-147.0","luovmxbv9q","39","NaN","<div style=""width:500px;"">
                            <p style=""font-size:50px; font-weight:bold;""
                            >fearful</p>
                            <div style=""width:240px; margin: auto;"">
                                <img src=""images/map02_PuBuGn_scaleRev_orientDef_000.png"" style= ""width:200px""alt=""img"">
                            </div>
                        </div>","-117","","0","","","","images/map02_PuBuGn_scaleRev_orientDef_000.png","fearful","1","02","02","PuBuGn","orientDef","scaleRev","000","",""
"","","","","","html-slider-response","152","411426","0.0-148.0","luovmxbv9q","39","NaN","<div style=""width:500px;"">
                            <p style=""font-size:50px; font-weight:bold;""
                            >fearful</p>
                            <div style=""width:240px; margin: auto;"">
                                <img src=""images/map12_turbo_scaleRev_orientMir_180.png"" style= ""width:200px""alt=""img"">
                            </div>
                        </div>","-116","","0","","","","images/map12_turbo_scaleRev_orientMir_180.png","fearful","1","12","12","turbo","orientMir","scaleRev","180","",""
"","","","","","html-slider-response","153","412676","0.0-149.0","luovmxbv9q","39","NaN","<div style=""width:500px;"">
                            <p style=""font-size:50px; font-weight:bold;""
                            >fearful</p>
                            <div style=""width:240px; margin: auto;"">
                                <img src=""images/map15_Greys_scaleDef_orientDef_090.png"" style= ""width:200px""alt=""img"">
                            </div>
                        </div>","-136","","0","","","","images/map15_Greys_scaleDef_orientDef_090.png","fearful","1","15","15","Greys","orientDef","scaleDef","090","",""
"","","","","","html-slider-response","154","413760","0.0-150.0","luovmxbv9q","39","NaN","<div style=""width:500px;"">
                            <p style=""font-size:50px; font-weight:bold;""
                            >fearful</p>
                            <div style=""width:240px; margin: auto;"">
                                <img src=""images/map15_Purples_scaleRev_orientMir_000.png"" style= ""width:200px""alt=""img"">
                            </div>
                        </div>","-149","","0","","","","images/map15_Purples_scaleRev_orientMir_000.png","fearful","1","15","15","Purples","orientMir","scaleRev","000","",""
"","","","","","html-slider-response","155","415028","0.0-151.0","luovmxbv9q","39","NaN","<div style=""width:500px;"">
                            <p style=""font-size:50px; font-weight:bold;""
                            >fearful</p>
                            <div style=""width:240px; margin: auto;"">
                                <img src=""images/map23_Oranges_scaleRev_orientDef_180.png"" style= ""width:200px""alt=""img"">
                            </div>
                        </div>","-135","","0","","","","images/map23_Oranges_scaleRev_orientDef_180.png","fearful","1","23","23","Oranges","orientDef","scaleRev","180","",""
"","","","","","html-slider-response","156","416398","0.0-152.0","luovmxbv9q","39","NaN","<div style=""width:500px;"">
                            <p style=""font-size:50px; font-weight:bold;""
                            >fearful</p>
                            <div style=""width:240px; margin: auto;"">
                                <img src=""images/map02_BuGn_scaleDef_orientDef_090.png"" style= ""width:200px""alt=""img"">
                            </div>
                        </div>","-118","","0","","","","images/map02_BuGn_scaleDef_orientDef_090.png","fearful","1","02","02","BuGn","orientDef","scaleDef","090","",""
"","","","","","html-slider-response","157","417509","0.0-153.0","luovmxbv9q","39","NaN","<div style=""width:500px;"">
                            <p style=""font-size:50px; font-weight:bold;""
                            >fearful</p>
                            <div style=""width:240px; margin: auto;"">
                                <img src=""images/map02_PiYG_scaleRev_orientMir_180.png"" style= ""width:200px""alt=""img"">
