"success","timeout","failed_images","failed_audio","failed_video","trial_type","trial_index","time_elapsed","internal_node_id","subject_id","condition_num","rt","stimulus","response","question_order","slider_start","practiceTrial","practiceTrialNum","correct","image_path","concept","repetition","map_id","map_num","scale_name","orientation_code","mapping_code","rotation_code","ishihara_plate","correct_response"
"true","false","[]","[]","[]","preload","0","370","0.0-0.0","mh1vzs93m8","33","","","","","","","","","","","","","","","","","","",""
"","","","","","html-button-response","1","1537","0.0-1.0","mh1vzs93m8","33","1163","Welcome to our experiment!<p>At the bottom of this screen, you will see a button that says ""Begin Experiment"".<br>Please only click that button when you are ready to complete the 30 minute experiment in one sitting.</p><p> Once you click that button, it will not be possible to restart the experiment.","0","","","","","","","","","","","","","","","",""
"true","","","","","fullscreen","2","3406","0.0-2.0","mh1vzs93m8","33","849","","","","","","","","","","","","","","","","","",""
"","","","","","survey-multi-select","3","7047","0.0-3.0","mh1vzs93m8","33","3635","","{""Consent"":[""<strong>I consent</strong>""]}","[0]","","","","","","","","","","","","","","",""
"","","","","","html-button-response","4","8262","0.0-4.0","mh1vzs93m8","33","1213","Welcome! <p> This experiment involves two parts: demographic information, followed by the experimental task.<p> It will take about 30 minutes to complete both parts.","0","","","","","","","","","","","","","","","",""
"","","","","","survey-text","5","31546","0.0-5.0","mh1vzs93m8","33","23266","","{""Age"":""21"",""Gender"":""Male"",""Race/ethnicity"":""Arab"",""Languages"":""English - Arabic""}","","","","","","","","","","","","","","","",""
"","","","","","html-slider-response","6","35366","0.0-6.0","mh1vzs93m8","33","3815","<div style='text-align:left; font-size:20px; line-height:25px; width: 1000px;'>
                                During this experiment you will be asked to rate how much you associate maps with                    different concepts.<br> Below, you can see some examples of the maps you will be asked to rate. Above the maps
                    is the list of concepts.<br>You will be asked                    to rate how much you associate each map with each concept on a scale from 'not at all' to 'very much' like the
                    one below. <br><br>
                    Now, please look at the list of concepts and maps. For each concept, think about the map you associate 'very
                    much' with the concept.<br>                     When you see that map during the experiment, please rate it near the 'very much' endpoint of the
                    scale.<br>Now, please think about which map you associate 'not at all'                     with each concept. When you see that map during the experiment, please rate it near the 'not at all' endpoint
                    of the scale.<br>
                    Please use the full range of the scale. That is, if a map is somewhat associated with the concept, you would
                    click partway between the middle point and right side of the scale.                    You will be asked to rate each map for a given concept before moving on to the next concept.<br>Press the
                    'Continue' button for instructions on how to use the slider.                    <br>
                </div>

                <div style=""width: 500px; margin: 0 auto;"">
                    <!-- Centered text paragraphs -->
                    <div style=""text-align: center; width: 500px;"">
                        <p style=""font-size:25px; line-height:15px;"">
                            sad&nbsp;&nbsp;&nbsp;&nbsp;
                            happy&nbsp;&nbsp;&nbsp;&nbsp;
                            disgust&nbsp;&nbsp;&nbsp;&nbsp;
                            fearful&nbsp;&nbsp;&nbsp;&nbsp;
                            angry
                        </p>
                        <!-- <p style=""font-size:20px; line-height:15px;"">happy</p>
                        <p style=""font-size:20px;line-height:15px;"">disgust</p>
                        <p style=""font-size:20px;line-height:15px;"">fearful</p>
                        <p style=""font-size:20px;line-height:15px;"">angry</p> -->
                    </div>
            

                    <!-- Grid section -->
                   <div style=""display: flex; justify-content: center; padding-top: 15px;"">
                    <div style=""display: grid; grid-template-columns: repeat(10, 55px); grid-gap: 5px; width: auto;"">
                        <img src=""images/map26_RdPu_scaleRev_orientDef_000.png"" alt=""map"" style=""width: 100%;""><img src=""images/map26_PuBu_scaleDef_orientMir_090.png"" alt=""map"" style=""width: 100%;""><img src=""images/map05_RdBu_scaleDef_orientDef_090.png"" alt=""map"" style=""width: 100%;""><img src=""images/map05_RdYlBu_scaleDef_orientDef_270.png"" alt=""map"" style=""width: 100%;""><img src=""images/map26_BuPu_scaleDef_orientDef_090.png"" alt=""map"" style=""width: 100%;""><img src=""images/map02_PRGn_scaleDef_orientDef_090.png"" alt=""map"" style=""width: 100%;""><img src=""images/map02_BrBG_scaleRev_orientMir_000.png"" alt=""map"" style=""width: 100%;""><img src=""images/map26_YlGnBu_scaleDef_orientMir_270.png"" alt=""map"" style=""width: 100%;""><img src=""images/map10_managua_scaleRev_orientDef_180.png"" alt=""map"" style=""width: 100%;""><img src=""images/map23_OrRd_scaleDef_orientDef_270.png"" alt=""map"" style=""width: 100%;""><img src=""images/map23_YlOrBr_scaleRev_orientDef_000.png"" alt=""map"" style=""width: 100%;""><img src=""images/map07_coolwarm_scaleDef_orientDef_090.png"" alt=""map"" style=""width: 100%;""><img src=""images/map13_Blues_scaleDef_orientMir_270.png"" alt=""map"" style=""width: 100%;""><img src=""images/map05_RdYlGn_scaleDef_orientMir_090.png"" alt=""map"" style=""width: 100%;""><img src=""images/map27_YlGn_scaleRev_orientMir_180.png"" alt=""map"" style=""width: 100%;""><img src=""images/map13_Greys_scaleDef_orientDef_270.png"" alt=""map"" style=""width: 100%;""><img src=""images/map13_cividis_scaleDef_orientDef_090.png"" alt=""map"" style=""width: 100%;""><img src=""images/map27_PiYG_scaleDef_orientMir_270.png"" alt=""map"" style=""width: 100%;""><img src=""images/map10_gist_earth_scaleDef_orientMir_090.png"" alt=""map"" style=""width: 100%;""><img src=""images/map15_Oranges_scaleRev_orientMir_000.png"" alt=""map"" style=""width: 100%;""><img src=""images/map02_PuOr_scaleDef_orientMir_090.png"" alt=""map"" style=""width: 100%;""><img src=""images/map07_berlin_scaleDef_orientMir_270.png"" alt=""map"" style=""width: 100%;""><img src=""images/map26_GnBu_scaleRev_orientMir_000.png"" alt=""map"" style=""width: 100%;""><img src=""images/map15_Reds_scaleDef_orientMir_090.png"" alt=""map"" style=""width: 100%;""><img src=""images/map05_Spectral_scaleDef_orientMir_270.png"" alt=""map"" style=""width: 100%;""><img src=""images/map10_vanimo_scaleDef_orientDef_270.png"" alt=""map"" style=""width: 100%;""><img src=""images/map12_viridis_scaleDef_orientDef_090.png"" alt=""map"" style=""width: 100%;""><img src=""images/map12_plasma_scaleDef_orientDef_270.png"" alt=""map"" style=""width: 100%;""><img src=""images/map23_PuRd_scaleRev_orientMir_180.png"" alt=""map"" style=""width: 100%;""><img src=""images/map15_Greens_scaleRev_orientDef_180.png"" alt=""map"" style=""width: 100%;""><img src=""images/map07_seismic_scaleDef_orientMir_090.png"" alt=""map"" style=""width: 100%;""><img src=""images/map13_magma_scaleRev_orientDef_000.png"" alt=""map"" style=""width: 100%;""><img src=""images/map27_BuGn_scaleRev_orientMir_000.png"" alt=""map"" style=""width: 100%;""><img src=""images/map02_RdGy_scaleDef_orientMir_270.png"" alt=""map"" style=""width: 100%;""><img src=""images/map10_turbo_scaleDef_orientMir_270.png"" alt=""map"" style=""width: 100%;""><img src=""images/map13_Purples_scaleRev_orientMir_180.png"" alt=""map"" style=""width: 100%;""><img src=""images/map07_bwr_scaleDef_orientDef_270.png"" alt=""map"" style=""width: 100%;""><img src=""images/map12_inferno_scaleRev_orientMir_180.png"" alt=""map"" style=""width: 100%;""><img src=""images/map23_YlOrRd_scaleDef_orientDef_090.png"" alt=""map"" style=""width: 100%;""><img src=""images/map27_PuBuGn_scaleRev_orientDef_180.png"" alt=""map"" style=""width: 100%;"">
                    </div>
                </div>

                    <!-- Clear floats -->
                    <div style=""clear: both;""></div>
                </div>
                            ","29","","0","true","","","","","","","","","","","","",""
"","","","","","html-button-response","7","36711","0.0-7.0","mh1vzs93m8","33","1345","<div style=""width:800px;""><p style=""text-align:left"">To move the slider, click and drag your cursor to the location of the scale where you would like to make your rating and then let go. When you let go of the slider, your response will be recorded and the next trial will begin. <br>
                    We are interested in your initial impressions of each map for the given concept, so please go with your first intuition. <br>
                    Before you begin the experiment, there will be four training trials for you to practice using the scale. <br>
                     When you are ready to start the training trials, please click ""Continue"".</p><br></div>","0","","","","","","","","","","","","","","","",""
"","","","","","html-slider-response","8","40257","0.0-8.0-0.0","mh1vzs93m8","33","NaN","<div style=""width:500px;"">
                                    <p style=""font-size:25px;"">Please move the slider all the way to the <br> right endpoint of the scale</p>

                                    </div>
                                </div>","196","","0","true","0","true","","","","","","","","","","",""
"","","","","","html-button-response","9","41665","0.0-8.0-1.0","mh1vzs93m8","33","902","<p align='center'><b>Good job!</b> Click on 'Continue' to proceed.</p>","0","","","","","","","","","","","","","","","",""
"","","","","","html-slider-response","10","44798","0.0-9.0-0.0","mh1vzs93m8","33","NaN","<div style=""width:500px;"">
                                    <p style=""font-size:25px;"">Please move the slider all the way to the <br> left endpoint of the scale</p>

                                    </div>
                                </div>","-195","","0","true","1","true","","","","","","","","","","",""
"","","","","","html-button-response","11","46105","0.0-9.0-1.0","mh1vzs93m8","33","801","<p align='center'><b>Good job!</b> Click on 'Continue' to proceed.</p>","0","","","","","","","","","","","","","","","",""
"","","","","","html-slider-response","12","50242","0.0-10.0-0.0","mh1vzs93m8","33","NaN","<div style=""width:500px;"">
                                    <p style=""font-size:25px;"">Please move the slider halfway between the center and right endpoint of the scale</p>

                                    </div>
                                </div>","103","","0","true","2","true","","","","","","","","","","",""
"","","","","","html-button-response","13","51935","0.0-10.0-1.0","mh1vzs93m8","33","1180","<p align='center'><b>Good job!</b> Click on 'Continue' to proceed.</p>","0","","","","","","","","","","","","","","","",""
"","","","","","html-slider-response","14","57575","0.0-11.0-0.0","mh1vzs93m8","33","NaN","<div style=""width:500px;"">
                                    <p style=""font-size:25px;"">Please move the slider halfway between the center and left endpoint of the scale</p>

                                    </div>
                                </div>","-102","","0","true","3","true","","","","","","","","","","",""
"","","","","","html-button-response","15","58871","0.0-11.0-1.0","mh1vzs93m8","33","780","<p align='center'><b>Good job!</b> Click on 'Continue' to proceed.</p>","0","","","","","","","","","","","","","","","",""
"","","","","","html-button-response","16","59402","0.0-12.0","mh1vzs93m8","33","530","<p>Great job! You've completed the practice trials. Now you will begin the main task.</p>","0","","","","","","","","","","","","","","","",""
"","","","","","html-button-response","17","60456","0.0-13.0","mh1vzs93m8","33","1053","<p>In this block of trials, you will be asked to rate how much you associate each map with:</p > <p style = 'font-size:150%; font-weight: bold'>sad</p><br></br>","0","","","","","","","","","","","","","","","",""
"","","","","","html-slider-response","18","62767","0.0-14.0","mh1vzs93m8","33","NaN","<div style=""width:500px;"">
                            <p style=""font-size:50px; font-weight:bold;""
                            >sad</p>
                            <div style=""width:240px; margin: auto;"">
                                <img src=""images/map10_vanimo_scaleDef_orientDef_270.png"" style= ""width:200px""alt=""img"">
                            </div>
                        </div>","90","","0","","","","images/map10_vanimo_scaleDef_orientDef_270.png","sad","1","10","10","vanimo","orientDef","scaleDef","270","",""
"","","","","","html-slider-response","19","63678","0.0-15.0","mh1vzs93m8","33","NaN","<div style=""width:500px;"">
                            <p style=""font-size:50px; font-weight:bold;""
                            >sad</p>
                            <div style=""width:240px; margin: auto;"">
                                <img src=""images/map05_RdYlGn_scaleDef_orientMir_090.png"" style= ""width:200px""alt=""img"">
                            </div>
                        </div>","-80","","0","","","","images/map05_RdYlGn_scaleDef_orientMir_090.png","sad","1","05","05","RdYlGn","orientMir","scaleDef","090","",""
"","","","","","html-slider-response","20","64382","0.0-16.0","mh1vzs93m8","33","NaN","<div style=""width:500px;"">
                            <p style=""font-size:50px; font-weight:bold;""
                            >sad</p>
                            <div style=""width:240px; margin: auto;"">
                                <img src=""images/map13_cividis_scaleDef_orientDef_090.png"" style= ""width:200px""alt=""img"">
                            </div>
                        </div>","51","","0","","","","images/map13_cividis_scaleDef_orientDef_090.png","sad","1","13","13","cividis","orientDef","scaleDef","090","",""
"","","","","","html-slider-response","21","65388","0.0-17.0","mh1vzs93m8","33","NaN","<div style=""width:500px;"">
                            <p style=""font-size:50px; font-weight:bold;""
                            >sad</p>
                            <div style=""width:240px; margin: auto;"">
                                <img src=""images/map07_berlin_scaleDef_orientMir_270.png"" style= ""width:200px""alt=""img"">
                            </div>
                        </div>","-125","","0","","","","images/map07_berlin_scaleDef_orientMir_270.png","sad","1","07","07","berlin","orientMir","scaleDef","270","",""
"","","","","","html-slider-response","22","66026","0.0-18.0","mh1vzs93m8","33","NaN","<div style=""width:500px;"">
                            <p style=""font-size:50px; font-weight:bold;""
                            >sad</p>
                            <div style=""width:240px; margin: auto;"">
                                <img src=""images/map26_BuPu_scaleDef_orientDef_090.png"" style= ""width:200px""alt=""img"">
                            </div>
                        </div>","100","","0","","","","images/map26_BuPu_scaleDef_orientDef_090.png","sad","1","26","26","BuPu","orientDef","scaleDef","090","",""
"","","","","","html-slider-response","23","66852","0.0-19.0","mh1vzs93m8","33","NaN","<div style=""width:500px;"">
                            <p style=""font-size:50px; font-weight:bold;""
                            >sad</p>
                            <div style=""width:240px; margin: auto;"">
                                <img src=""images/map10_gist_earth_scaleRev_orientMir_180.png"" style= ""width:200px""alt=""img"">
                            </div>
                        </div>","-102","","0","","","","images/map10_gist_earth_scaleRev_orientMir_180.png","sad","1","10","10","gist","scaleRev","earth","orientMir","",""
"","","","","","html-slider-response","24","67578","0.0-20.0","mh1vzs93m8","33","NaN","<div style=""width:500px;"">
                            <p style=""font-size:50px; font-weight:bold;""
                            >sad</p>
                            <div style=""width:240px; margin: auto;"">
                                <img src=""images/map05_RdBu_scaleRev_orientDef_180.png"" style= ""width:200px""alt=""img"">
                            </div>
                        </div>","70","","0","","","","images/map05_RdBu_scaleRev_orientDef_180.png","sad","1","05","05","RdBu","orientDef","scaleRev","180","",""
"","","","","","html-slider-response","25","68263","0.0-21.0","mh1vzs93m8","33","NaN","<div style=""width:500px;"">
                            <p style=""font-size:50px; font-weight:bold;""
                            >sad</p>
                            <div style=""width:240px; margin: auto;"">
                                <img src=""images/map07_bwr_scaleRev_orientMir_000.png"" style= ""width:200px""alt=""img"">
                            </div>
                        </div>","-64","","0","","","","images/map07_bwr_scaleRev_orientMir_000.png","sad","1","07","07","bwr","orientMir","scaleRev","000","",""
"","","","","","html-slider-response","26","69148","0.0-22.0","mh1vzs93m8","33","NaN","<div style=""width:500px;"">
                            <p style=""font-size:50px; font-weight:bold;""
                            >sad</p>
                            <div style=""width:240px; margin: auto;"">
                                <img src=""images/map27_BuGn_scaleRev_orientMir_000.png"" style= ""width:200px""alt=""img"">
                            </div>
                        </div>","138","","0","","","","images/map27_BuGn_scaleRev_orientMir_000.png","sad","1","27","27","BuGn","orientMir","scaleRev","000","",""
"","","","","","html-slider-response","27","69924","0.0-23.0","mh1vzs93m8","33","NaN","<div style=""width:500px;"">
                            <p style=""font-size:50px; font-weight:bold;""
                            >sad</p>
                            <div style=""width:240px; margin: auto;"">
                                <img src=""images/map10_managua_scaleRev_orientDef_180.png"" style= ""width:200px""alt=""img"">
                            </div>
                        </div>","-114","","0","","","","images/map10_managua_scaleRev_orientDef_180.png","sad","1","10","10","managua","orientDef","scaleRev","180","",""
"","","","","","html-slider-response","28","70576","0.0-24.0","mh1vzs93m8","33","NaN","<div style=""width:500px;"">
                            <p style=""font-size:50px; font-weight:bold;""
                            >sad</p>
                            <div style=""width:240px; margin: auto;"">
                                <img src=""images/map27_YlGn_scaleRev_orientMir_180.png"" style= ""width:200px""alt=""img"">
                            </div>
                        </div>","186","","0","","","","images/map27_YlGn_scaleRev_orientMir_180.png","sad","1","27","27","YlGn","orientMir","scaleRev","180","",""
"","","","","","html-slider-response","29","71705","0.0-25.0","mh1vzs93m8","33","NaN","<div style=""width:500px;"">
                            <p style=""font-size:50px; font-weight:bold;""
                            >sad</p>
                            <div style=""width:240px; margin: auto;"">
                                <img src=""images/map05_RdGy_scaleRev_orientDef_000.png"" style= ""width:200px""alt=""img"">
                            </div>
                        </div>","-125","","0","","","","images/map05_RdGy_scaleRev_orientDef_000.png","sad","1","05","05","RdGy","orientDef","scaleRev","000","",""
"","","","","","html-slider-response","30","72335","0.0-26.0","mh1vzs93m8","33","NaN","<div style=""width:500px;"">
                            <p style=""font-size:50px; font-weight:bold;""
                            >sad</p>
                            <div style=""width:240px; margin: auto;"">
                                <img src=""images/map12_viridis_scaleDef_orientDef_090.png"" style= ""width:200px""alt=""img"">
                            </div>
                        </div>","69","","0","","","","images/map12_viridis_scaleDef_orientDef_090.png","sad","1","12","12","viridis","orientDef","scaleDef","090","",""
"","","","","","html-slider-response","31","73304","0.0-27.0","mh1vzs93m8","33","NaN","<div style=""width:500px;"">
                            <p style=""font-size:50px; font-weight:bold;""
                            >sad</p>
                            <div style=""width:240px; margin: auto;"">
                                <img src=""images/map12_viridis_scaleRev_orientDef_180.png"" style= ""width:200px""alt=""img"">
                            </div>
                        </div>","80","","0","","","","images/map12_viridis_scaleRev_orientDef_180.png","sad","1","12","12","viridis","orientDef","scaleRev","180","",""
"","","","","","html-slider-response","32","74054","0.0-28.0","mh1vzs93m8","33","NaN","<div style=""width:500px;"">
                            <p style=""font-size:50px; font-weight:bold;""
                            >sad</p>
                            <div style=""width:240px; margin: auto;"">
                                <img src=""images/map15_Reds_scaleRev_orientMir_180.png"" style= ""width:200px""alt=""img"">
                            </div>
                        </div>","74","","0","","","","images/map15_Reds_scaleRev_orientMir_180.png","sad","1","15","15","Reds","orientMir","scaleRev","180","",""
"","","","","","html-slider-response","33","74771","0.0-29.0","mh1vzs93m8","33","NaN","<div style=""width:500px;"">
                            <p style=""font-size:50px; font-weight:bold;""
                            >sad</p>
                            <div style=""width:240px; margin: auto;"">
                                <img src=""images/map23_PuRd_scaleRev_orientMir_180.png"" style= ""width:200px""alt=""img"">
                            </div>
                        </div>","22","","0","","","","images/map23_PuRd_scaleRev_orientMir_180.png","sad","1","23","23","PuRd","orientMir","scaleRev","180","",""
"","","","","","html-slider-response","34","75473","0.0-30.0","mh1vzs93m8","33","NaN","<div style=""width:500px;"">
                            <p style=""font-size:50px; font-weight:bold;""
                            >sad</p>
                            <div style=""width:240px; margin: auto;"">
                                <img src=""images/map23_YlOrRd_scaleRev_orientDef_180.png"" style= ""width:200px""alt=""img"">
                            </div>
                        </div>","-75","","0","","","","images/map23_YlOrRd_scaleRev_orientDef_180.png","sad","1","23","23","YlOrRd","orientDef","scaleRev","180","",""
"","","","","","html-slider-response","35","76219","0.0-31.0","mh1vzs93m8","33","NaN","<div style=""width:500px;"">
                            <p style=""font-size:50px; font-weight:bold;""
                            >sad</p>
                            <div style=""width:240px; margin: auto;"">
                                <img src=""images/map10_turbo_scaleDef_orientMir_270.png"" style= ""width:200px""alt=""img"">
                            </div>
                        </div>","60","","0","","","","images/map10_turbo_scaleDef_orientMir_270.png","sad","1","10","10","turbo","orientMir","scaleDef","270","",""
"","","","","","html-slider-response","36","76948","0.0-32.0","mh1vzs93m8","33","NaN","<div style=""width:500px;"">
                            <p style=""font-size:50px; font-weight:bold;""
                            >sad</p>
                            <div style=""width:240px; margin: auto;"">
                                <img src=""images/map26_GnBu_scaleDef_orientDef_270.png"" style= ""width:200px""alt=""img"">
                            </div>
                        </div>","-22","","0","","","","images/map26_GnBu_scaleDef_orientDef_270.png","sad","1","26","26","GnBu","orientDef","scaleDef","270","",""
"","","","","","html-slider-response","37","77647","0.0-33.0","mh1vzs93m8","33","NaN","<div style=""width:500px;"">
                            <p style=""font-size:50px; font-weight:bold;""
                            >sad</p>
                            <div style=""width:240px; margin: auto;"">
                                <img src=""images/map15_YlOrBr_scaleDef_orientMir_270.png"" style= ""width:200px""alt=""img"">
                            </div>
                        </div>","2","","0","","","","images/map15_YlOrBr_scaleDef_orientMir_270.png","sad","1","15","15","YlOrBr","orientMir","scaleDef","270","",""
"","","","","","html-slider-response","38","78340","0.0-34.0","mh1vzs93m8","33","NaN","<div style=""width:500px;"">
                            <p style=""font-size:50px; font-weight:bold;""
                            >sad</p>
                            <div style=""width:240px; margin: auto;"">
                                <img src=""images/map10_berlin_scaleRev_orientDef_000.png"" style= ""width:200px""alt=""img"">
                            </div>
                        </div>","68","","0","","","","images/map10_berlin_scaleRev_orientDef_000.png","sad","1","10","10","berlin","orientDef","scaleRev","000","",""
"","","","","","html-slider-response","39","79022","0.0-35.0","mh1vzs93m8","33","NaN","<div style=""width:500px;"">
                            <p style=""font-size:50px; font-weight:bold;""
                            >sad</p>
                            <div style=""width:240px; margin: auto;"">
                                <img src=""images/map15_Blues_scaleRev_orientDef_000.png"" style= ""width:200px""alt=""img"">
                            </div>
                        </div>","-58","","0","","","","images/map15_Blues_scaleRev_orientDef_000.png","sad","1","15","15","Blues","orientDef","scaleRev","000","",""
"","","","","","html-slider-response","40","79674","0.0-36.0","mh1vzs93m8","33","NaN","<div style=""width:500px;"">
                            <p style=""font-size:50px; font-weight:bold;""
                            >sad</p>
                            <div style=""width:240px; margin: auto;"">
                                <img src=""images/map13_Greys_scaleDef_orientDef_270.png"" style= ""width:200px""alt=""img"">
                            </div>
                        </div>","82","","0","","","","images/map13_Greys_scaleDef_orientDef_270.png","sad","1","13","13","Greys","orientDef","scaleDef","270","",""
"","","","","","html-slider-response","41","80311","0.0-37.0","mh1vzs93m8","33","NaN","<div style=""width:500px;"">
                            <p style=""font-size:50px; font-weight:bold;""
                            >sad</p>
                            <div style=""width:240px; margin: auto;"">
                                <img src=""images/map27_YlGnBu_scaleRev_orientDef_000.png"" style= ""width:200px""alt=""img"">
                            </div>
                        </div>","-83","","0","","","","images/map27_YlGnBu_scaleRev_orientDef_000.png","sad","1","27","27","YlGnBu","orientDef","scaleRev","000","",""
"","","","","","html-slider-response","42","80940","0.0-38.0","mh1vzs93m8","33","NaN","<div style=""width:500px;"">
                            <p style=""font-size:50px; font-weight:bold;""
                            >sad</p>
                            <div style=""width:240px; margin: auto;"">
                                <img src=""images/map07_seismic_scaleRev_orientMir_180.png"" style= ""width:200px""alt=""img"">
                            </div>
                        </div>","74","","0","","","","images/map07_seismic_scaleRev_orientMir_180.png","sad","1","07","07","seismic","orientMir","scaleRev","180","",""
"","","","","","html-slider-response","43","81537","0.0-39.0","mh1vzs93m8","33","NaN","<div style=""width:500px;"">
                            <p style=""font-size:50px; font-weight:bold;""
                            >sad</p>
                            <div style=""width:240px; margin: auto;"">
                                <img src=""images/map12_plasma_scaleDef_orientDef_270.png"" style= ""width:200px""alt=""img"">
                            </div>
                        </div>","16","","0","","","","images/map12_plasma_scaleDef_orientDef_270.png","sad","1","12","12","plasma","orientDef","scaleDef","270","",""
"","","","","","html-slider-response","44","82402","0.0-40.0","mh1vzs93m8","33","NaN","<div style=""width:500px;"">
                            <p style=""font-size:50px; font-weight:bold;""
                            >sad</p>
                            <div style=""width:240px; margin: auto;"">
                                <img src=""images/map23_OrRd_scaleRev_orientMir_000.png"" style= ""width:200px""alt=""img"">
                            </div>
                        </div>","10","","0","","","","images/map23_OrRd_scaleRev_orientMir_000.png","sad","1","23","23","OrRd","orientMir","scaleRev","000","",""
"","","","","","html-slider-response","45","83013","0.0-41.0","mh1vzs93m8","33","NaN","<div style=""width:500px;"">
                            <p style=""font-size:50px; font-weight:bold;""
                            >sad</p>
                            <div style=""width:240px; margin: auto;"">
                                <img src=""images/map10_managua_scaleDef_orientDef_090.png"" style= ""width:200px""alt=""img"">
                            </div>
                        </div>","6","","0","","","","images/map10_managua_scaleDef_orientDef_090.png","sad","1","10","10","managua","orientDef","scaleDef","090","",""
"","","","","","html-slider-response","46","83795","0.0-42.0","mh1vzs93m8","33","NaN","<div style=""width:500px;"">
                            <p style=""font-size:50px; font-weight:bold;""
                            >sad</p>
                            <div style=""width:240px; margin: auto;"">
                                <img src=""images/map10_gist_earth_scaleDef_orientMir_090.png"" style= ""width:200px""alt=""img"">
                            </div>
                        </div>","-58","","0","","","","images/map10_gist_earth_scaleDef_orientMir_090.png","sad","1","10","10","gist","scaleDef","earth","orientMir","",""
"","","","","","html-slider-response","47","84420","0.0-43.0","mh1vzs93m8","33","NaN","<div style=""width:500px;"">
                            <p style=""font-size:50px; font-weight:bold;""
                            >sad</p>
                            <div style=""width:240px; margin: auto;"">
                                <img src=""images/map12_plasma_scaleRev_orientMir_000.png"" style= ""width:200px""alt=""img"">
                            </div>
                        </div>","3","","0","","","","images/map12_plasma_scaleRev_orientMir_000.png","sad","1","12","12","plasma","orientMir","scaleRev","000","",""
"","","","","","html-slider-response","48","85064","0.0-44.0","mh1vzs93m8","33","NaN","<div style=""width:500px;"">
                            <p style=""font-size:50px; font-weight:bold;""
                            >sad</p>
                            <div style=""width:240px; margin: auto;"">
                                <img src=""images/map26_PuBu_scaleDef_orientMir_090.png"" style= ""width:200px""alt=""img"">
                            </div>
                        </div>","99","","0","","","","images/map26_PuBu_scaleDef_orientMir_090.png","sad","1","26","26","PuBu","orientMir","scaleDef","090","",""
"","","","","","html-slider-response","49","85708","0.0-45.0","mh1vzs93m8","33","NaN","<div style=""width:500px;"">
                            <p style=""font-size:50px; font-weight:bold;""
                            >sad</p>
                            <div style=""width:240px; margin: auto;"">
                                <img src=""images/map02_BrBG_scaleDef_orientDef_270.png"" style= ""width:200px""alt=""img"">
                            </div>
                        </div>","-64","","0","","","","images/map02_BrBG_scaleDef_orientDef_270.png","sad","1","02","02","BrBG","orientDef","scaleDef","270","",""
"","","","","","html-slider-response","50","86373","0.0-46.0","mh1vzs93m8","33","NaN","<div style=""width:500px;"">
                            <p style=""font-size:50px; font-weight:bold;""
                            >sad</p>
                            <div style=""width:240px; margin: auto;"">
                                <img src=""images/map13_Blues_scaleDef_orientMir_270.png"" style= ""width:200px""alt=""img"">
                            </div>
                        </div>","10","","0","","","","images/map13_Blues_scaleDef_orientMir_270.png","sad","1","13","13","Blues","orientMir","scaleDef","270","",""
"","","","","","html-slider-response","51","87024","0.0-47.0","mh1vzs93m8","33","NaN","<div style=""width:500px;"">
                            <p style=""font-size:50px; font-weight:bold;""
                            >sad</p>
                            <div style=""width:240px; margin: auto;"">
                                <img src=""images/map02_BrBG_scaleRev_orientMir_000.png"" style= ""width:200px""alt=""img"">
                            </div>
                        </div>","73","","0","","","","images/map02_BrBG_scaleRev_orientMir_000.png","sad","1","02","02","BrBG","orientMir","scaleRev","000","",""
"","","","","","html-slider-response","52","87612","0.0-48.0","mh1vzs93m8","33","NaN","<div style=""width:500px;"">
                            <p style=""font-size:50px; font-weight:bold;""
                            >sad</p>
                            <div style=""width:240px; margin: auto;"">
                                <img src=""images/map26_RdPu_scaleRev_orientDef_000.png"" style= ""width:200px""alt=""img"">
                            </div>
                        </div>","-22","","0","","","","images/map26_RdPu_scaleRev_orientDef_000.png","sad","1","26","26","RdPu","orientDef","scaleRev","000","",""
"","","","","","html-slider-response","53","88366","0.0-49.0","mh1vzs93m8","33","NaN","<div style=""width:500px;"">
                            <p style=""font-size:50px; font-weight:bold;""
                            >sad</p>
                            <div style=""width:240px; margin: auto;"">
                                <img src=""images/map12_inferno_scaleRev_orientMir_180.png"" style= ""width:200px""alt=""img"">
                            </div>
                        </div>","63","","0","","","","images/map12_inferno_scaleRev_orientMir_180.png","sad","1","12","12","inferno","orientMir","scaleRev","180","",""
"","","","","","html-slider-response","54","89130","0.0-50.0","mh1vzs93m8","33","NaN","<div style=""width:500px;"">
                            <p style=""font-size:50px; font-weight:bold;""
                            >sad</p>
                            <div style=""width:240px; margin: auto;"">
                                <img src=""images/map15_Reds_scaleDef_orientMir_090.png"" style= ""width:200px""alt=""img"">
                            </div>
                        </div>","14","","0","","","","images/map15_Reds_scaleDef_orientMir_090.png","sad","1","15","15","Reds","orientMir","scaleDef","090","",""
"","","","","","html-slider-response","55","89877","0.0-51.0","mh1vzs93m8","33","NaN","<div style=""width:500px;"">
                            <p style=""font-size:50px; font-weight:bold;""
                            >sad</p>
                            <div style=""width:240px; margin: auto;"">
                                <img src=""images/map27_YlGn_scaleDef_orientMir_090.png"" style= ""width:200px""alt=""img"">
                            </div>
                        </div>","-16","","0","","","","images/map27_YlGn_scaleDef_orientMir_090.png","sad","1","27","27","YlGn","orientMir","scaleDef","090","",""
"","","","","","html-slider-response","56","90528","0.0-52.0","mh1vzs93m8","33","NaN","<div style=""width:500px;"">
                            <p style=""font-size:50px; font-weight:bold;""
                            >sad</p>
                            <div style=""width:240px; margin: auto;"">
                                <img src=""images/map02_PuOr_scaleDef_orientMir_090.png"" style= ""width:200px""alt=""img"">
                            </div>
                        </div>","-68","","0","","","","images/map02_PuOr_scaleDef_orientMir_090.png","sad","1","02","02","PuOr","orientMir","scaleDef","090","",""
"","","","","","html-slider-response","57","91162","0.0-53.0","mh1vzs93m8","33","NaN","<div style=""width:500px;"">
                            <p style=""font-size:50px; font-weight:bold;""
                            >sad</p>
                            <div style=""width:240px; margin: auto;"">
                                <img src=""images/map05_RdYlBu_scaleDef_orientDef_270.png"" style= ""width:200px""alt=""img"">
                            </div>
                        </div>","2","","0","","","","images/map05_RdYlBu_scaleDef_orientDef_270.png","sad","1","05","05","RdYlBu","orientDef","scaleDef","270","",""
"","","","","","html-button-response","58","92523","0.0-54.0","mh1vzs93m8","33","851","<p>You are doing great!<br></br> You are halway done with the current block. When you are ready to continue, click the 'Continue' button.</p>","0","","","","","","","","","","","","","","","",""
"","","","","","html-slider-response","59","93214","0.0-55.0","mh1vzs93m8","33","NaN","<div style=""width:500px;"">
                            <p style=""font-size:50px; font-weight:bold;""
                            >sad</p>
                            <div style=""width:240px; margin: auto;"">
                                <img src=""images/map02_RdGy_scaleDef_orientMir_270.png"" style= ""width:200px""alt=""img"">
                            </div>
                        </div>","18","","0","","","","images/map02_RdGy_scaleDef_orientMir_270.png","sad","1","02","02","RdGy","orientMir","scaleDef","270","",""
"","","","","","html-slider-response","60","94253","0.0-56.0","mh1vzs93m8","33","NaN","<div style=""width:500px;"">
                            <p style=""font-size:50px; font-weight:bold;""
                            >sad</p>
                            <div style=""width:240px; margin: auto;"">
                                <img src=""images/map23_PuRd_scaleDef_orientMir_090.png"" style= ""width:200px""alt=""img"">
                            </div>
                        </div>","-14","","0","","","","images/map23_PuRd_scaleDef_orientMir_090.png","sad","1","23","23","PuRd","orientMir","scaleDef","090","",""
"","","","","","html-slider-response","61","94967","0.0-57.0","mh1vzs93m8","33","NaN","<div style=""width:500px;"">
                            <p style=""font-size:50px; font-weight:bold;""
                            >sad</p>
                            <div style=""width:240px; margin: auto;"">
                                <img src=""images/map02_PiYG_scaleRev_orientDef_000.png"" style= ""width:200px""alt=""img"">
                            </div>
                        </div>","24","","0","","","","images/map02_PiYG_scaleRev_orientDef_000.png","sad","1","02","02","PiYG","orientDef","scaleRev","000","",""
"","","","","","html-slider-response","62","95701","0.0-58.0","mh1vzs93m8","33","NaN","<div style=""width:500px;"">
                            <p style=""font-size:50px; font-weight:bold;""
                            >sad</p>
                            <div style=""width:240px; margin: auto;"">
                                <img src=""images/map07_coolwarm_scaleDef_orientDef_090.png"" style= ""width:200px""alt=""img"">
                            </div>
                        </div>","61","","0","","","","images/map07_coolwarm_scaleDef_orientDef_090.png","sad","1","07","07","coolwarm","orientDef","scaleDef","090","",""
"","","","","","html-slider-response","63","96367","0.0-59.0","mh1vzs93m8","33","NaN","<div style=""width:500px;"">
                            <p style=""font-size:50px; font-weight:bold;""
                            >sad</p>
                            <div style=""width:240px; margin: auto;"">
                                <img src=""images/map10_vanimo_scaleRev_orientMir_000.png"" style= ""width:200px""alt=""img"">
                            </div>
                        </div>","0","","0","","","","images/map10_vanimo_scaleRev_orientMir_000.png","sad","1","10","10","vanimo","orientMir","scaleRev","000","",""
"","","","","","html-slider-response","64","97123","0.0-60.0","mh1vzs93m8","33","NaN","<div style=""width:500px;"">
                            <p style=""font-size:50px; font-weight:bold;""
                            >sad</p>
                            <div style=""width:240px; margin: auto;"">
                                <img src=""images/map27_PuBuGn_scaleDef_orientDef_090.png"" style= ""width:200px""alt=""img"">
                            </div>
                        </div>","-48","","0","","","","images/map27_PuBuGn_scaleDef_orientDef_090.png","sad","1","27","27","PuBuGn","orientDef","scaleDef","090","",""
"","","","","","html-slider-response","65","97805","0.0-61.0","mh1vzs93m8","33","NaN","<div style=""width:500px;"">
                            <p style=""font-size:50px; font-weight:bold;""
                            >sad</p>
                            <div style=""width:240px; margin: auto;"">
                                <img src=""images/map26_PuBu_scaleRev_orientMir_180.png"" style= ""width:200px""alt=""img"">
                            </div>
                        </div>","46","","0","","","","images/map26_PuBu_scaleRev_orientMir_180.png","sad","1","26","26","PuBu","orientMir","scaleRev","180","",""
"","","","","","html-slider-response","66","98446","0.0-62.0","mh1vzs93m8","33","NaN","<div style=""width:500px;"">
                            <p style=""font-size:50px; font-weight:bold;""
                            >sad</p>
                            <div style=""width:240px; margin: auto;"">
                                <img src=""images/map26_YlGnBu_scaleDef_orientMir_270.png"" style= ""width:200px""alt=""img"">
                            </div>
                        </div>","-66","","0","","","","images/map26_YlGnBu_scaleDef_orientMir_270.png","sad","1","26","26","YlGnBu","orientMir","scaleDef","270","",""
"","","","","","html-slider-response","67","99578","0.0-63.0","mh1vzs93m8","33","NaN","<div style=""width:500px;"">
                            <p style=""font-size:50px; font-weight:bold;""
                            >sad</p>
                            <div style=""width:240px; margin: auto;"">
                                <img src=""images/map12_turbo_scaleRev_orientDef_000.png"" style= ""width:200px""alt=""img"">
                            </div>
                        </div>","-39","","0","","","","images/map12_turbo_scaleRev_orientDef_000.png","sad","1","12","12","turbo","orientDef","scaleRev","000","",""
"","","","","","html-slider-response","68","100351","0.0-64.0","mh1vzs93m8","33","NaN","<div style=""width:500px;"">
                            <p style=""font-size:50px; font-weight:bold;""
                            >sad</p>
                            <div style=""width:240px; margin: auto;"">
                                <img src=""images/map05_RdYlGn_scaleRev_orientMir_180.png"" style= ""width:200px""alt=""img"">
                            </div>
                        </div>","29","","0","","","","images/map05_RdYlGn_scaleRev_orientMir_180.png","sad","1","05","05","RdYlGn","orientMir","scaleRev","180","",""
"","","","","","html-slider-response","69","101092","0.0-65.0","mh1vzs93m8","33","NaN","<div style=""width:500px;"">
                            <p style=""font-size:50px; font-weight:bold;""
                            >sad</p>
                            <div style=""width:240px; margin: auto;"">
                                <img src=""images/map15_Oranges_scaleDef_orientDef_270.png"" style= ""width:200px""alt=""img"">
                            </div>
                        </div>","3","","0","","","","images/map15_Oranges_scaleDef_orientDef_270.png","sad","1","15","15","Oranges","orientDef","scaleDef","270","",""
"","","","","","html-slider-response","70","101833","0.0-66.0","mh1vzs93m8","33","NaN","<div style=""width:500px;"">
                            <p style=""font-size:50px; font-weight:bold;""
                            >sad</p>
                            <div style=""width:240px; margin: auto;"">
                                <img src=""images/map23_OrRd_scaleDef_orientDef_270.png"" style= ""width:200px""alt=""img"">
                            </div>
                        </div>","-52","","0","","","","images/map23_OrRd_scaleDef_orientDef_270.png","sad","1","23","23","OrRd","orientDef","scaleDef","270","",""
"","","","","","html-slider-response","71","102519","0.0-67.0","mh1vzs93m8","33","NaN","<div style=""width:500px;"">
                            <p style=""font-size:50px; font-weight:bold;""
                            >sad</p>
                            <div style=""width:240px; margin: auto;"">
                                <img src=""images/map05_Spectral_scaleDef_orientMir_270.png"" style= ""width:200px""alt=""img"">
                            </div>
                        </div>","72","","0","","","","images/map05_Spectral_scaleDef_orientMir_270.png","sad","1","05","05","Spectral","orientMir","scaleDef","270","",""
"","","","","","html-slider-response","72","103919","0.0-68.0","mh1vzs93m8","33","NaN","<div style=""width:500px;"">
                            <p style=""font-size:50px; font-weight:bold;""
                            >sad</p>
                            <div style=""width:240px; margin: auto;"">
                                <img src=""images/map13_Purples_scaleDef_orientMir_090.png"" style= ""width:200px""alt=""img"">
                            </div>
                        </div>","-7","","0","","","","images/map13_Purples_scaleDef_orientMir_090.png","sad","1","13","13","Purples","orientMir","scaleDef","090","",""
"","","","","","html-slider-response","73","104624","0.0-69.0","mh1vzs93m8","33","NaN","<div style=""width:500px;"">
                            <p style=""font-size:50px; font-weight:bold;""
                            >sad</p>
                            <div style=""width:240px; margin: auto;"">
                                <img src=""images/map27_BuGn_scaleDef_orientDef_270.png"" style= ""width:200px""alt=""img"">
                            </div>
                        </div>","-74","","0","","","","images/map27_BuGn_scaleDef_orientDef_270.png","sad","1","27","27","BuGn","orientDef","scaleDef","270","",""
"","","","","","html-slider-response","74","105491","0.0-70.0","mh1vzs93m8","33","NaN","<div style=""width:500px;"">
                            <p style=""font-size:50px; font-weight:bold;""
                            >sad</p>
                            <div style=""width:240px; margin: auto;"">
                                <img src=""images/map05_RdYlBu_scaleRev_orientMir_000.png"" style= ""width:200px""alt=""img"">
                            </div>
                        </div>","-54","","0","","","","images/map05_RdYlBu_scaleRev_orientMir_000.png","sad","1","05","05","RdYlBu","orientMir","scaleRev","000","",""
"","","","","","html-slider-response","75","106282","0.0-71.0","mh1vzs93m8","33","NaN","<div style=""width:500px;"">
                            <p style=""font-size:50px; font-weight:bold;""
                            >sad</p>
                            <div style=""width:240px; margin: auto;"">
                                <img src=""images/map07_bwr_scaleDef_orientDef_270.png"" style= ""width:200px""alt=""img"">
                            </div>
                        </div>","10","","0","","","","images/map07_bwr_scaleDef_orientDef_270.png","sad","1","07","07","bwr","orientDef","scaleDef","270","",""
"","","","","","html-slider-response","76","106966","0.0-72.0","mh1vzs93m8","33","NaN","<div style=""width:500px;"">
                            <p style=""font-size:50px; font-weight:bold;""
                            >sad</p>
                            <div style=""width:240px; margin: auto;"">
                                <img src=""images/map07_seismic_scaleDef_orientMir_090.png"" style= ""width:200px""alt=""img"">
                            </div>
                        </div>","-52","","0","","","","images/map07_seismic_scaleDef_orientMir_090.png","sad","1","07","07","seismic","orientMir","scaleDef","090","",""
"","","","","","html-slider-response","77","107658","0.0-73.0","mh1vzs93m8","33","NaN","<div style=""width:500px;"">
                            <p style=""font-size:50px; font-weight:bold;""
                            >sad</p>
                            <div style=""width:240px; margin: auto;"">
                                <img src=""images/map27_PiYG_scaleDef_orientMir_270.png"" style= ""width:200px""alt=""img"">
                            </div>
                        </div>","11","","0","","","","images/map27_PiYG_scaleDef_orientMir_270.png","sad","1","27","27","PiYG","orientMir","scaleDef","270","",""
"","","","","","html-slider-response","78","108316","0.0-74.0","mh1vzs93m8","33","NaN","<div style=""width:500px;"">
                            <p style=""font-size:50px; font-weight:bold;""
                            >sad</p>
                            <div style=""width:240px; margin: auto;"">
                                <img src=""images/map15_Greens_scaleDef_orientDef_090.png"" style= ""width:200px""alt=""img"">
                            </div>
                        </div>","-13","","0","","","","images/map15_Greens_scaleDef_orientDef_090.png","sad","1","15","15","Greens","orientDef","scaleDef","090","",""
"","","","","","html-slider-response","79","109057","0.0-75.0","mh1vzs93m8","33","NaN","<div style=""width:500px;"">
                            <p style=""font-size:50px; font-weight:bold;""
                            >sad</p>
                            <div style=""width:240px; margin: auto;"">
                                <img src=""images/map13_magma_scaleRev_orientDef_000.png"" style= ""width:200px""alt=""img"">
                            </div>
                        </div>","-6","","0","","","","images/map13_magma_scaleRev_orientDef_000.png","sad","1","13","13","magma","orientDef","scaleRev","000","",""
"","","","","","html-slider-response","80","109700","0.0-76.0","mh1vzs93m8","33","NaN","<div style=""width:500px;"">
                            <p style=""font-size:50px; font-weight:bold;""
                            >sad</p>
                            <div style=""width:240px; margin: auto;"">
                                <img src=""images/map07_Spectral_scaleRev_orientDef_000.png"" style= ""width:200px""alt=""img"">
                            </div>
                        </div>","-102","","0","","","","images/map07_Spectral_scaleRev_orientDef_000.png","sad","1","07","07","Spectral","orientDef","scaleRev","000","",""
"","","","","","html-slider-response","81","110381","0.0-77.0","mh1vzs93m8","33","NaN","<div style=""width:500px;"">
                            <p style=""font-size:50px; font-weight:bold;""
                            >sad</p>
                            <div style=""width:240px; margin: auto;"">
                                <img src=""images/map15_Oranges_scaleRev_orientMir_000.png"" style= ""width:200px""alt=""img"">
                            </div>
                        </div>","58","","0","","","","images/map15_Oranges_scaleRev_orientMir_000.png","sad","1","15","15","Oranges","orientMir","scaleRev","000","",""
"","","","","","html-slider-response","82","111066","0.0-78.0","mh1vzs93m8","33","NaN","<div style=""width:500px;"">
                            <p style=""font-size:50px; font-weight:bold;""
                            >sad</p>
                            <div style=""width:240px; margin: auto;"">
                                <img src=""images/map02_PRGn_scaleRev_orientDef_180.png"" style= ""width:200px""alt=""img"">
                            </div>
                        </div>","-22","","0","","","","images/map02_PRGn_scaleRev_orientDef_180.png","sad","1","02","02","PRGn","orientDef","scaleRev","180","",""
"","","","","","html-slider-response","83","111711","0.0-79.0","mh1vzs93m8","33","NaN","<div style=""width:500px;"">
                            <p style=""font-size:50px; font-weight:bold;""
                            >sad</p>
                            <div style=""width:240px; margin: auto;"">
                                <img src=""images/map15_Greens_scaleRev_orientDef_180.png"" style= ""width:200px""alt=""img"">
                            </div>
                        </div>","9","","0","","","","images/map15_Greens_scaleRev_orientDef_180.png","sad","1","15","15","Greens","orientDef","scaleRev","180","",""
"","","","","","html-slider-response","84","112853","0.0-80.0","mh1vzs93m8","33","NaN","<div style=""width:500px;"">
                            <p style=""font-size:50px; font-weight:bold;""
                            >sad</p>
                            <div style=""width:240px; margin: auto;"">
                                <img src=""images/map02_PRGn_scaleDef_orientDef_090.png"" style= ""width:200px""alt=""img"">
                            </div>
                        </div>","-5","","0","","","","images/map02_PRGn_scaleDef_orientDef_090.png","sad","1","02","02","PRGn","orientDef","scaleDef","090","",""
"","","","","","html-slider-response","85","113534","0.0-81.0","mh1vzs93m8","33","NaN","<div style=""width:500px;"">
                            <p style=""font-size:50px; font-weight:bold;""
                            >sad</p>
                            <div style=""width:240px; margin: auto;"">
                                <img src=""images/map23_RdPu_scaleDef_orientMir_270.png"" style= ""width:200px""alt=""img"">
                            </div>
                        </div>","-35","","0","","","","images/map23_RdPu_scaleDef_orientMir_270.png","sad","1","23","23","RdPu","orientMir","scaleDef","270","",""
"","","","","","html-slider-response","86","114184","0.0-82.0","mh1vzs93m8","33","NaN","<div style=""width:500px;"">
                            <p style=""font-size:50px; font-weight:bold;""
                            >sad</p>
                            <div style=""width:240px; margin: auto;"">
                                <img src=""images/map13_Greys_scaleRev_orientMir_000.png"" style= ""width:200px""alt=""img"">
                            </div>
                        </div>","58","","0","","","","images/map13_Greys_scaleRev_orientMir_000.png","sad","1","13","13","Greys","orientMir","scaleRev","000","",""
"","","","","","html-slider-response","87","115036","0.0-83.0","mh1vzs93m8","33","NaN","<div style=""width:500px;"">
                            <p style=""font-size:50px; font-weight:bold;""
                            >sad</p>
                            <div style=""width:240px; margin: auto;"">
                                <img src=""images/map23_YlOrBr_scaleRev_orientDef_000.png"" style= ""width:200px""alt=""img"">
                            </div>
                        </div>","-10","","0","","","","images/map23_YlOrBr_scaleRev_orientDef_000.png","sad","1","23","23","YlOrBr","orientDef","scaleRev","000","",""
"","","","","","html-slider-response","88","115917","0.0-84.0","mh1vzs93m8","33","NaN","<div style=""width:500px;"">
                            <p style=""font-size:50px; font-weight:bold;""
                            >sad</p>
                            <div style=""width:240px; margin: auto;"">
                                <img src=""images/map13_Purples_scaleRev_orientMir_180.png"" style= ""width:200px""alt=""img"">
                            </div>
                        </div>","-74","","0","","","","images/map13_Purples_scaleRev_orientMir_180.png","sad","1","13","13","Purples","orientMir","scaleRev","180","",""
"","","","","","html-slider-response","89","116630","0.0-85.0","mh1vzs93m8","33","NaN","<div style=""width:500px;"">
                            <p style=""font-size:50px; font-weight:bold;""
                            >sad</p>
                            <div style=""width:240px; margin: auto;"">
                                <img src=""images/map26_GnBu_scaleRev_orientMir_000.png"" style= ""width:200px""alt=""img"">
                            </div>
                        </div>","57","","0","","","","images/map26_GnBu_scaleRev_orientMir_000.png","sad","1","26","26","GnBu","orientMir","scaleRev","000","",""
"","","","","","html-slider-response","90","117397","0.0-86.0","mh1vzs93m8","33","NaN","<div style=""width:500px;"">
                            <p style=""font-size:50px; font-weight:bold;""
                            >sad</p>
                            <div style=""width:240px; margin: auto;"">
                                <img src=""images/map26_BuPu_scaleRev_orientDef_180.png"" style= ""width:200px""alt=""img"">
                            </div>
                        </div>","-45","","0","","","","images/map26_BuPu_scaleRev_orientDef_180.png","sad","1","26","26","BuPu","orientDef","scaleRev","180","",""
"","","","","","html-slider-response","91","118152","0.0-87.0","mh1vzs93m8","33","NaN","<div style=""width:500px;"">
                            <p style=""font-size:50px; font-weight:bold;""
                            >sad</p>
                            <div style=""width:240px; margin: auto;"">
                                <img src=""images/map02_PuOr_scaleRev_orientMir_180.png"" style= ""width:200px""alt=""img"">
                            </div>
                        </div>","-5","","0","","","","images/map02_PuOr_scaleRev_orientMir_180.png","sad","1","02","02","PuOr","orientMir","scaleRev","180","",""
"","","","","","html-slider-response","92","118846","0.0-88.0","mh1vzs93m8","33","NaN","<div style=""width:500px;"">
                            <p style=""font-size:50px; font-weight:bold;""
                            >sad</p>
                            <div style=""width:240px; margin: auto;"">
                                <img src=""images/map05_RdBu_scaleDef_orientDef_090.png"" style= ""width:200px""alt=""img"">
                            </div>
                        </div>","24","","0","","","","images/map05_RdBu_scaleDef_orientDef_090.png","sad","1","05","05","RdBu","orientDef","scaleDef","090","",""
"","","","","","html-slider-response","93","119627","0.0-89.0","mh1vzs93m8","33","NaN","<div style=""width:500px;"">
                            <p style=""font-size:50px; font-weight:bold;""
                            >sad</p>
                            <div style=""width:240px; margin: auto;"">
                                <img src=""images/map07_coolwarm_scaleRev_orientDef_180.png"" style= ""width:200px""alt=""img"">
                            </div>
                        </div>","-4","","0","","","","images/map07_coolwarm_scaleRev_orientDef_180.png","sad","1","07","07","coolwarm","orientDef","scaleRev","180","",""
"","","","","","html-slider-response","94","120301","0.0-90.0","mh1vzs93m8","33","NaN","<div style=""width:500px;"">
                            <p style=""font-size:50px; font-weight:bold;""
                            >sad</p>
                            <div style=""width:240px; margin: auto;"">
                                <img src=""images/map23_YlOrRd_scaleDef_orientDef_090.png"" style= ""width:200px""alt=""img"">
                            </div>
                        </div>","-70","","0","","","","images/map23_YlOrRd_scaleDef_orientDef_090.png","sad","1","23","23","YlOrRd","orientDef","scaleDef","090","",""
"","","","","","html-slider-response","95","121007","0.0-91.0","mh1vzs93m8","33","NaN","<div style=""width:500px;"">
                            <p style=""font-size:50px; font-weight:bold;""
                            >sad</p>
                            <div style=""width:240px; margin: auto;"">
                                <img src=""images/map13_cividis_scaleRev_orientDef_180.png"" style= ""width:200px""alt=""img"">
                            </div>
                        </div>","30","","0","","","","images/map13_cividis_scaleRev_orientDef_180.png","sad","1","13","13","cividis","orientDef","scaleRev","180","",""
"","","","","","html-slider-response","96","121679","0.0-92.0","mh1vzs93m8","33","NaN","<div style=""width:500px;"">
                            <p style=""font-size:50px; font-weight:bold;""
                            >sad</p>
                            <div style=""width:240px; margin: auto;"">
                                <img src=""images/map12_inferno_scaleDef_orientMir_090.png"" style= ""width:200px""alt=""img"">
                            </div>
                        </div>","10","","0","","","","images/map12_inferno_scaleDef_orientMir_090.png","sad","1","12","12","inferno","orientMir","scaleDef","090","",""
"","","","","","html-slider-response","97","122464","0.0-93.0","mh1vzs93m8","33","NaN","<div style=""width:500px;"">
                            <p style=""font-size:50px; font-weight:bold;""
                            >sad</p>
                            <div style=""width:240px; margin: auto;"">
                                <img src=""images/map27_PuBuGn_scaleRev_orientDef_180.png"" style= ""width:200px""alt=""img"">
                            </div>
                        </div>","-6","","0","","","","images/map27_PuBuGn_scaleRev_orientDef_180.png","sad","1","27","27","PuBuGn","orientDef","scaleRev","180","",""
"","","","","","html-slider-response","98","123275","0.0-94.0","mh1vzs93m8","33","NaN","<div style=""width:500px;"">
                            <p style=""font-size:50px; font-weight:bold;""
                            >sad</p>
                            <div style=""width:240px; margin: auto;"">
                                <img src=""images/map12_magma_scaleDef_orientMir_270.png"" style= ""width:200px""alt=""img"">
                            </div>
                        </div>","-58","","0","","","","images/map12_magma_scaleDef_orientMir_270.png","sad","1","12","12","magma","orientMir","scaleDef","270","",""
"","","","","","html-button-response","99","124697","0.0-95.0","mh1vzs93m8","33","907","<p>Great Job! You've finished block 1.<br></br> You have 4 block(s) left to go.<br></br></p>","0","","","","","","","","","","","","","","","",""
"","","","","","html-button-response","100","125215","0.0-96.0","mh1vzs93m8","33","517","<p>In this block of trials, you will be asked to rate how much you associate each map with:</p > <p style = 'font-size:150%; font-weight: bold'>happy</p><br></br>","0","","","","","","","","","","","","","","","",""
"","","","","","html-slider-response","101","125968","0.0-97.0","mh1vzs93m8","33","NaN","<div style=""width:500px;"">
                            <p style=""font-size:50px; font-weight:bold;""
                            >happy</p>
                            <div style=""width:240px; margin: auto;"">
                                <img src=""images/map05_Spectral_scaleDef_orientMir_270.png"" style= ""width:200px""alt=""img"">
                            </div>
                        </div>","43","","0","","","","images/map05_Spectral_scaleDef_orientMir_270.png","happy","1","05","05","Spectral","orientMir","scaleDef","270","",""
"","","","","","html-slider-response","102","126959","0.0-98.0","mh1vzs93m8","33","NaN","<div style=""width:500px;"">
                            <p style=""font-size:50px; font-weight:bold;""
                            >happy</p>
                            <div style=""width:240px; margin: auto;"">
                                <img src=""images/map12_inferno_scaleDef_orientMir_090.png"" style= ""width:200px""alt=""img"">
                            </div>
                        </div>","98","","0","","","","images/map12_inferno_scaleDef_orientMir_090.png","happy","1","12","12","inferno","orientMir","scaleDef","090","",""
"","","","","","html-slider-response","103","127864","0.0-99.0","mh1vzs93m8","33","NaN","<div style=""width:500px;"">
                            <p style=""font-size:50px; font-weight:bold;""
                            >happy</p>
                            <div style=""width:240px; margin: auto;"">
                                <img src=""images/map12_plasma_scaleRev_orientMir_000.png"" style= ""width:200px""alt=""img"">
                            </div>
                        </div>","98","","0","","","","images/map12_plasma_scaleRev_orientMir_000.png","happy","1","12","12","plasma","orientMir","scaleRev","000","",""
"","","","","","html-slider-response","104","129429","0.0-100.0","mh1vzs93m8","33","NaN","<div style=""width:500px;"">
                            <p style=""font-size:50px; font-weight:bold;""
                            >happy</p>
                            <div style=""width:240px; margin: auto;"">
                                <img src=""images/map02_PiYG_scaleRev_orientDef_000.png"" style= ""width:200px""alt=""img"">
                            </div>
                        </div>","98","","0","","","","images/map02_PiYG_scaleRev_orientDef_000.png","happy","1","02","02","PiYG","orientDef","scaleRev","000","",""
"","","","","","html-slider-response","105","131040","0.0-101.0","mh1vzs93m8","33","NaN","<div style=""width:500px;"">
                            <p style=""font-size:50px; font-weight:bold;""
                            >happy</p>
                            <div style=""width:240px; margin: auto;"">
                                <img src=""images/map15_Oranges_scaleRev_orientMir_000.png"" style= ""width:200px""alt=""img"">
                            </div>
                        </div>","125","","0","","","","images/map15_Oranges_scaleRev_orientMir_000.png","happy","1","15","15","Oranges","orientMir","scaleRev","000","",""
"","","","","","html-slider-response","106","132295","0.0-102.0","mh1vzs93m8","33","NaN","<div style=""width:500px;"">
                            <p style=""font-size:50px; font-weight:bold;""
                            >happy</p>
                            <div style=""width:240px; margin: auto;"">
                                <img src=""images/map02_PuOr_scaleRev_orientMir_180.png"" style= ""width:200px""alt=""img"">
                            </div>
                        </div>","118","","0","","","","images/map02_PuOr_scaleRev_orientMir_180.png","happy","1","02","02","PuOr","orientMir","scaleRev","180","",""
"","","","","","html-slider-response","107","133888","0.0-103.0","mh1vzs93m8","33","NaN","<div style=""width:500px;"">
                            <p style=""font-size:50px; font-weight:bold;""
                            >happy</p>
                            <div style=""width:240px; margin: auto;"">
                                <img src=""images/map10_managua_scaleRev_orientDef_180.png"" style= ""width:200px""alt=""img"">
                            </div>
                        </div>","-96","","0","","","","images/map10_managua_scaleRev_orientDef_180.png","happy","1","10","10","managua","orientDef","scaleRev","180","",""
"","","","","","html-slider-response","108","134920","0.0-104.0","mh1vzs93m8","33","NaN","<div style=""width:500px;"">
                            <p style=""font-size:50px; font-weight:bold;""
                            >happy</p>
                            <div style=""width:240px; margin: auto;"">
                                <img src=""images/map26_BuPu_scaleDef_orientDef_090.png"" style= ""width:200px""alt=""img"">
                            </div>
                        </div>","-96","","0","","","","images/map26_BuPu_scaleDef_orientDef_090.png","happy","1","26","26","BuPu","orientDef","scaleDef","090","",""
"","","","","","html-slider-response","109","136253","0.0-105.0","mh1vzs93m8","33","NaN","<div style=""width:500px;"">
                            <p style=""font-size:50px; font-weight:bold;""
                            >happy</p>
                            <div style=""width:240px; margin: auto;"">
                                <img src=""images/map10_gist_earth_scaleDef_orientMir_090.png"" style= ""width:200px""alt=""img"">
                            </div>
                        </div>","16","","0","","","","images/map10_gist_earth_scaleDef_orientMir_090.png","happy","1","10","10","gist","scaleDef","earth","orientMir","",""
"","","","","","html-slider-response","110","137117","0.0-106.0","mh1vzs93m8","33","NaN","<div style=""width:500px;"">
                            <p style=""font-size:50px; font-weight:bold;""
                            >happy</p>
                            <div style=""width:240px; margin: auto;"">
                                <img src=""images/map27_BuGn_scaleDef_orientDef_270.png"" style= ""width:200px""alt=""img"">
                            </div>
                        </div>","-38","","0","","","","images/map27_BuGn_scaleDef_orientDef_270.png","happy","1","27","27","BuGn","orientDef","scaleDef","270","",""
"","","","","","html-slider-response","111","137970","0.0-107.0","mh1vzs93m8","33","NaN","<div style=""width:500px;"">
                            <p style=""font-size:50px; font-weight:bold;""
                            >happy</p>
                            <div style=""width:240px; margin: auto;"">
                                <img src=""images/map05_RdYlGn_scaleDef_orientMir_090.png"" style= ""width:200px""alt=""img"">
                            </div>
                        </div>","6","","0","","","","images/map05_RdYlGn_scaleDef_orientMir_090.png","happy","1","05","05","RdYlGn","orientMir","scaleDef","090","",""
"","","","","","html-slider-response","112","138747","0.0-108.0","mh1vzs93m8","33","NaN","<div style=""width:500px;"">
                            <p style=""font-size:50px; font-weight:bold;""
                            >happy</p>
                            <div style=""width:240px; margin: auto;"">
                                <img src=""images/map02_PuOr_scaleDef_orientMir_090.png"" style= ""width:200px""alt=""img"">
                            </div>
                        </div>","-17","","0","","","","images/map02_PuOr_scaleDef_orientMir_090.png","happy","1","02","02","PuOr","orientMir","scaleDef","090","",""
"","","","","","html-slider-response","113","139502","0.0-109.0","mh1vzs93m8","33","NaN","<div style=""width:500px;"">
                            <p style=""font-size:50px; font-weight:bold;""
                            >happy</p>
                            <div style=""width:240px; margin: auto;"">
                                <img src=""images/map27_BuGn_scaleRev_orientMir_000.png"" style= ""width:200px""alt=""img"">
                            </div>
                        </div>","52","","0","","","","images/map27_BuGn_scaleRev_orientMir_000.png","happy","1","27","27","BuGn","orientMir","scaleRev","000","",""
"","","","","","html-slider-response","114","140180","0.0-110.0","mh1vzs93m8","33","NaN","<div style=""width:500px;"">
                            <p style=""font-size:50px; font-weight:bold;""
                            >happy</p>
                            <div style=""width:240px; margin: auto;"">
                                <img src=""images/map10_managua_scaleDef_orientDef_090.png"" style= ""width:200px""alt=""img"">
                            </div>
                        </div>","-98","","0","","","","images/map10_managua_scaleDef_orientDef_090.png","happy","1","10","10","managua","orientDef","scaleDef","090","",""
"","","","","","html-slider-response","115","140943","0.0-111.0","mh1vzs93m8","33","NaN","<div style=""width:500px;"">
                            <p style=""font-size:50px; font-weight:bold;""
                            >happy</p>
                            <div style=""width:240px; margin: auto;"">
                                <img src=""images/map15_Greens_scaleRev_orientDef_180.png"" style= ""width:200px""alt=""img"">
                            </div>
                        </div>","19","","0","","","","images/map15_Greens_scaleRev_orientDef_180.png","happy","1","15","15","Greens","orientDef","scaleRev","180","",""
"","","","","","html-slider-response","116","142402","0.0-112.0","mh1vzs93m8","33","NaN","<div style=""width:500px;"">
                            <p style=""font-size:50px; font-weight:bold;""
                            >happy</p>
                            <div style=""width:240px; margin: auto;"">
                                <img src=""images/map07_coolwarm_scaleDef_orientDef_090.png"" style= ""width:200px""alt=""img"">
                            </div>
                        </div>","34","","0","","","","images/map07_coolwarm_scaleDef_orientDef_090.png","happy","1","07","07","coolwarm","orientDef","scaleDef","090","",""
"","","","","","html-slider-response","117","143093","0.0-113.0","mh1vzs93m8","33","NaN","<div style=""width:500px;"">
                            <p style=""font-size:50px; font-weight:bold;""
                            >happy</p>
                            <div style=""width:240px; margin: auto;"">
                                <img src=""images/map12_turbo_scaleRev_orientDef_000.png"" style= ""width:200px""alt=""img"">
                            </div>
                        </div>","-42","","0","","","","images/map12_turbo_scaleRev_orientDef_000.png","happy","1","12","12","turbo","orientDef","scaleRev","000","",""
"","","","","","html-slider-response","118","143716","0.0-114.0","mh1vzs93m8","33","NaN","<div style=""width:500px;"">
                            <p style=""font-size:50px; font-weight:bold;""
                            >happy</p>
                            <div style=""width:240px; margin: auto;"">
                                <img src=""images/map05_RdYlBu_scaleDef_orientDef_270.png"" style= ""width:200px""alt=""img"">
                            </div>
                        </div>","80","","0","","","","images/map05_RdYlBu_scaleDef_orientDef_270.png","happy","1","05","05","RdYlBu","orientDef","scaleDef","270","",""
"","","","","","html-slider-response","119","144493","0.0-115.0","mh1vzs93m8","33","NaN","<div style=""width:500px;"">
                            <p style=""font-size:50px; font-weight:bold;""
                            >happy</p>
                            <div style=""width:240px; margin: auto;"">
                                <img src=""images/map12_plasma_scaleDef_orientDef_270.png"" style= ""width:200px""alt=""img"">
                            </div>
                        </div>","-107","","0","","","","images/map12_plasma_scaleDef_orientDef_270.png","happy","1","12","12","plasma","orientDef","scaleDef","270","",""
"","","","","","html-slider-response","120","145642","0.0-116.0","mh1vzs93m8","33","NaN","<div style=""width:500px;"">
                            <p style=""font-size:50px; font-weight:bold;""
                            >happy</p>
                            <div style=""width:240px; margin: auto;"">
                                <img src=""images/map26_GnBu_scaleDef_orientDef_270.png"" style= ""width:200px""alt=""img"">
                            </div>
                        </div>","46","","0","","","","images/map26_GnBu_scaleDef_orientDef_270.png","happy","1","26","26","GnBu","orientDef","scaleDef","270","",""
"","","","","","html-slider-response","121","146357","0.0-117.0","mh1vzs93m8","33","NaN","<div style=""width:500px;"">
                            <p style=""font-size:50px; font-weight:bold;""
                            >happy</p>
                            <div style=""width:240px; margin: auto;"">
                                <img src=""images/map23_OrRd_scaleDef_orientDef_270.png"" style= ""width:200px""alt=""img"">
                            </div>
                        </div>","-42","","0","","","","images/map23_OrRd_scaleDef_orientDef_270.png","happy","1","23","23","OrRd","orientDef","scaleDef","270","",""
"","","","","","html-slider-response","122","147008","0.0-118.0","mh1vzs93m8","33","NaN","<div style=""width:500px;"">
                            <p style=""font-size:50px; font-weight:bold;""
                            >happy</p>
                            <div style=""width:240px; margin: auto;"">
                                <img src=""images/map10_vanimo_scaleRev_orientMir_000.png"" style= ""width:200px""alt=""img"">
                            </div>
                        </div>","-44","","0","","","","images/map10_vanimo_scaleRev_orientMir_000.png","happy","1","10","10","vanimo","orientMir","scaleRev","000","",""
"","","","","","html-slider-response","123","147704","0.0-119.0","mh1vzs93m8","33","NaN","<div style=""width:500px;"">
                            <p style=""font-size:50px; font-weight:bold;""
                            >happy</p>
                            <div style=""width:240px; margin: auto;"">
                                <img src=""images/map23_PuRd_scaleDef_orientMir_090.png"" style= ""width:200px""alt=""img"">
                            </div>
                        </div>","-44","","0","","","","images/map23_PuRd_scaleDef_orientMir_090.png","happy","1","23","23","PuRd","orientMir","scaleDef","090","",""
"","","","","","html-slider-response","124","148317","0.0-120.0","mh1vzs93m8","33","NaN","<div style=""width:500px;"">
                            <p style=""font-size:50px; font-weight:bold;""
                            >happy</p>
                            <div style=""width:240px; margin: auto;"">
                                <img src=""images/map13_cividis_scaleRev_orientDef_180.png"" style= ""width:200px""alt=""img"">
                            </div>
                        </div>","-44","","0","","","","images/map13_cividis_scaleRev_orientDef_180.png","happy","1","13","13","cividis","orientDef","scaleRev","180","",""
"","","","","","html-slider-response","125","149015","0.0-121.0","mh1vzs93m8","33","NaN","<div style=""width:500px;"">
                            <p style=""font-size:50px; font-weight:bold;""
                            >happy</p>
                            <div style=""width:240px; margin: auto;"">
                                <img src=""images/map23_YlOrRd_scaleDef_orientDef_090.png"" style= ""width:200px""alt=""img"">
                            </div>
                        </div>","79","","0","","","","images/map23_YlOrRd_scaleDef_orientDef_090.png","happy","1","23","23","YlOrRd","orientDef","scaleDef","090","",""
"","","","","","html-slider-response","126","149751","0.0-122.0","mh1vzs93m8","33","NaN","<div style=""width:500px;"">
                            <p style=""font-size:50px; font-weight:bold;""
                            >happy</p>
                            <div style=""width:240px; margin: auto;"">
                                <img src=""images/map07_bwr_scaleDef_orientDef_270.png"" style= ""width:200px""alt=""img"">
                            </div>
                        </div>","-14","","0","","","","images/map07_bwr_scaleDef_orientDef_270.png","happy","1","07","07","bwr","orientDef","scaleDef","270","",""
"","","","","","html-slider-response","127","150368","0.0-123.0","mh1vzs93m8","33","NaN","<div style=""width:500px;"">
                            <p style=""font-size:50px; font-weight:bold;""
                            >happy</p>
                            <div style=""width:240px; margin: auto;"">
                                <img src=""images/map10_berlin_scaleRev_orientDef_000.png"" style= ""width:200px""alt=""img"">
                            </div>
                        </div>","6","","0","","","","images/map10_berlin_scaleRev_orientDef_000.png","happy","1","10","10","berlin","orientDef","scaleRev","000","",""
"","","","","","html-slider-response","128","151092","0.0-124.0","mh1vzs93m8","33","NaN","<div style=""width:500px;"">
                            <p style=""font-size:50px; font-weight:bold;""
                            >happy</p>
                            <div style=""width:240px; margin: auto;"">
                                <img src=""images/map05_RdBu_scaleRev_orientDef_180.png"" style= ""width:200px""alt=""img"">
                            </div>
                        </div>","-58","","0","","","","images/map05_RdBu_scaleRev_orientDef_180.png","happy","1","05","05","RdBu","orientDef","scaleRev","180","",""
"","","","","","html-slider-response","129","151706","0.0-125.0","mh1vzs93m8","33","NaN","<div style=""width:500px;"">
                            <p style=""font-size:50px; font-weight:bold;""
                            >happy</p>
                            <div style=""width:240px; margin: auto;"">
                                <img src=""images/map07_Spectral_scaleRev_orientDef_000.png"" style= ""width:200px""alt=""img"">
                            </div>
                        </div>","40","","0","","","","images/map07_Spectral_scaleRev_orientDef_000.png","happy","1","07","07","Spectral","orientDef","scaleRev","000","",""
"","","","","","html-slider-response","130","152523","0.0-126.0","mh1vzs93m8","33","NaN","<div style=""width:500px;"">
                            <p style=""font-size:50px; font-weight:bold;""
                            >happy</p>
                            <div style=""width:240px; margin: auto;"">
                                <img src=""images/map15_Greens_scaleDef_orientDef_090.png"" style= ""width:200px""alt=""img"">
                            </div>
                        </div>","5","","0","","","","images/map15_Greens_scaleDef_orientDef_090.png","happy","1","15","15","Greens","orientDef","scaleDef","090","",""
"","","","","","html-slider-response","131","153169","0.0-127.0","mh1vzs93m8","33","NaN","<div style=""width:500px;"">
                            <p style=""font-size:50px; font-weight:bold;""
                            >happy</p>
                            <div style=""width:240px; margin: auto;"">
                                <img src=""images/map23_PuRd_scaleRev_orientMir_180.png"" style= ""width:200px""alt=""img"">
                            </div>
                        </div>","-2","","0","","","","images/map23_PuRd_scaleRev_orientMir_180.png","happy","1","23","23","PuRd","orientMir","scaleRev","180","",""
"","","","","","html-slider-response","132","153935","0.0-128.0","mh1vzs93m8","33","NaN","<div style=""width:500px;"">
                            <p style=""font-size:50px; font-weight:bold;""
                            >happy</p>
                            <div style=""width:240px; margin: auto;"">
                                <img src=""images/map07_berlin_scaleDef_orientMir_270.png"" style= ""width:200px""alt=""img"">
                            </div>
                        </div>","-2","","0","","","","images/map07_berlin_scaleDef_orientMir_270.png","happy","1","07","07","berlin","orientMir","scaleDef","270","",""
"","","","","","html-slider-response","133","154710","0.0-129.0","mh1vzs93m8","33","NaN","<div style=""width:500px;"">
                            <p style=""font-size:50px; font-weight:bold;""
                            >happy</p>
                            <div style=""width:240px; margin: auto;"">
                                <img src=""images/map02_PRGn_scaleRev_orientDef_180.png"" style= ""width:200px""alt=""img"">
                            </div>
                        </div>","-44","","0","","","","images/map02_PRGn_scaleRev_orientDef_180.png","happy","1","02","02","PRGn","orientDef","scaleRev","180","",""
"","","","","","html-slider-response","134","155485","0.0-130.0","mh1vzs93m8","33","NaN","<div style=""width:500px;"">
                            <p style=""font-size:50px; font-weight:bold;""
                            >happy</p>
                            <div style=""width:240px; margin: auto;"">
                                <img src=""images/map13_Purples_scaleDef_orientMir_090.png"" style= ""width:200px""alt=""img"">
                            </div>
                        </div>","19","","0","","","","images/map13_Purples_scaleDef_orientMir_090.png","happy","1","13","13","Purples","orientMir","scaleDef","090","",""
"","","","","","html-slider-response","135","156684","0.0-131.0","mh1vzs93m8","33","NaN","<div style=""width:500px;"">
                            <p style=""font-size:50px; font-weight:bold;""
                            >happy</p>
                            <div style=""width:240px; margin: auto;"">
                                <img src=""images/map07_seismic_scaleRev_orientMir_180.png"" style= ""width:200px""alt=""img"">
                            </div>
                        </div>","58","","0","","","","images/map07_seismic_scaleRev_orientMir_180.png","happy","1","07","07","seismic","orientMir","scaleRev","180","",""
"","","","","","html-slider-response","136","157521","0.0-132.0","mh1vzs93m8","33","NaN","<div style=""width:500px;"">
                            <p style=""font-size:50px; font-weight:bold;""
                            >happy</p>
                            <div style=""width:240px; margin: auto;"">
                                <img src=""images/map05_RdBu_scaleDef_orientDef_090.png"" style= ""width:200px""alt=""img"">
                            </div>
                        </div>","-94","","0","","","","images/map05_RdBu_scaleDef_orientDef_090.png","happy","1","05","05","RdBu","orientDef","scaleDef","090","",""
"","","","","","html-slider-response","137","158360","0.0-133.0","mh1vzs93m8","33","NaN","<div style=""width:500px;"">
                            <p style=""font-size:50px; font-weight:bold;""
                            >happy</p>
                            <div style=""width:240px; margin: auto;"">
                                <img src=""images/map15_Reds_scaleRev_orientMir_180.png"" style= ""width:200px""alt=""img"">
                            </div>
                        </div>","-10","","0","","","","images/map15_Reds_scaleRev_orientMir_180.png","happy","1","15","15","Reds","orientMir","scaleRev","180","",""
"","","","","","html-slider-response","138","159490","0.0-134.0","mh1vzs93m8","33","NaN","<div style=""width:500px;"">
                            <p style=""font-size:50px; font-weight:bold;""
                            >happy</p>
                            <div style=""width:240px; margin: auto;"">
                                <img src=""images/map05_RdGy_scaleRev_orientDef_000.png"" style= ""width:200px""alt=""img"">
                            </div>
                        </div>","43","","0","","","","images/map05_RdGy_scaleRev_orientDef_000.png","happy","1","05","05","RdGy","orientDef","scaleRev","000","",""
"","","","","","html-slider-response","139","160218","0.0-135.0","mh1vzs93m8","33","NaN","<div style=""width:500px;"">
                            <p style=""font-size:50px; font-weight:bold;""
                            >happy</p>
                            <div style=""width:240px; margin: auto;"">
                                <img src=""images/map07_seismic_scaleDef_orientMir_090.png"" style= ""width:200px""alt=""img"">
                            </div>
                        </div>","-8","","0","","","","images/map07_seismic_scaleDef_orientMir_090.png","happy","1","07","07","seismic","orientMir","scaleDef","090","",""
"","","","","","html-slider-response","140","160870","0.0-136.0","mh1vzs93m8","33","NaN","<div style=""width:500px;"">
                            <p style=""font-size:50px; font-weight:bold;""
                            >happy</p>
                            <div style=""width:240px; margin: auto;"">
                                <img src=""images/map27_PuBuGn_scaleRev_orientDef_180.png"" style= ""width:200px""alt=""img"">
                            </div>
                        </div>","27","","0","","","","images/map27_PuBuGn_scaleRev_orientDef_180.png","happy","1","27","27","PuBuGn","orientDef","scaleRev","180","",""
"","","","","","html-button-response","141","162626","0.0-137.0","mh1vzs93m8","33","1250","<p>You are doing great!<br></br> You are halway done with the current block. When you are ready to continue, click the 'Continue' button.</p>","0","","","","","","","","","","","","","","","",""
"","","","","","html-slider-response","142","163509","0.0-138.0","mh1vzs93m8","33","NaN","<div style=""width:500px;"">
                            <p style=""font-size:50px; font-weight:bold;""
                            >happy</p>
                            <div style=""width:240px; margin: auto;"">
                                <img src=""images/map12_magma_scaleDef_orientMir_270.png"" style= ""width:200px""alt=""img"">
                            </div>
                        </div>","42","","0","","","","images/map12_magma_scaleDef_orientMir_270.png","happy","1","12","12","magma","orientMir","scaleDef","270","",""
"","","","","","html-slider-response","143","164483","0.0-139.0","mh1vzs93m8","33","NaN","<div style=""width:500px;"">
                            <p style=""font-size:50px; font-weight:bold;""
                            >happy</p>
                            <div style=""width:240px; margin: auto;"">
                                <img src=""images/map12_viridis_scaleDef_orientDef_090.png"" style= ""width:200px""alt=""img"">
                            </div>
                        </div>","-51","","0","","","","images/map12_viridis_scaleDef_orientDef_090.png","happy","1","12","12","viridis","orientDef","scaleDef","090","",""
"","","","","","html-slider-response","144","165336","0.0-140.0","mh1vzs93m8","33","NaN","<div style=""width:500px;"">
                            <p style=""font-size:50px; font-weight:bold;""
                            >happy</p>
                            <div style=""width:240px; margin: auto;"">
                                <img src=""images/map02_RdGy_scaleDef_orientMir_270.png"" style= ""width:200px""alt=""img"">
                            </div>
                        </div>","48","","0","","","","images/map02_RdGy_scaleDef_orientMir_270.png","happy","1","02","02","RdGy","orientMir","scaleDef","270","",""
"","","","","","html-slider-response","145","166653","0.0-141.0","mh1vzs93m8","33","NaN","<div style=""width:500px;"">
                            <p style=""font-size:50px; font-weight:bold;""
                            >happy</p>
                            <div style=""width:240px; margin: auto;"">
                                <img src=""images/map05_RdYlGn_scaleRev_orientMir_180.png"" style= ""width:200px""alt=""img"">
                            </div>
                        </div>","22","","0","","","","images/map05_RdYlGn_scaleRev_orientMir_180.png","happy","1","05","05","RdYlGn","orientMir","scaleRev","180","",""
"","","","","","html-slider-response","146","167331","0.0-142.0","mh1vzs93m8","33","NaN","<div style=""width:500px;"">
                            <p style=""font-size:50px; font-weight:bold;""
                            >happy</p>
                            <div style=""width:240px; margin: auto;"">
                                <img src=""images/map26_YlGnBu_scaleDef_orientMir_270.png"" style= ""width:200px""alt=""img"">
                            </div>
                        </div>","0","","0","","","","images/map26_YlGnBu_scaleDef_orientMir_270.png","happy","1","26","26","YlGnBu","orientMir","scaleDef","270","",""
"","","","","","html-slider-response","147","168051","0.0-143.0","mh1vzs93m8","33","NaN","<div style=""width:500px;"">
                            <p style=""font-size:50px; font-weight:bold;""
                            >happy</p>
                            <div style=""width:240px; margin: auto;"">
                                <img src=""images/map13_Purples_scaleRev_orientMir_180.png"" style= ""width:200px""alt=""img"">
                            </div>
                        </div>","0","","0","","","","images/map13_Purples_scaleRev_orientMir_180.png","happy","1","13","13","Purples","orientMir","scaleRev","180","",""
"","","","","","html-slider-response","148","168791","0.0-144.0","mh1vzs93m8","33","NaN","<div style=""width:500px;"">
                            <p style=""font-size:50px; font-weight:bold;""
                            >happy</p>
                            <div style=""width:240px; margin: auto;"">
                                <img src=""images/map07_coolwarm_scaleRev_orientDef_180.png"" style= ""width:200px""alt=""img"">
                            </div>
                        </div>","-51","","0","","","","images/map07_coolwarm_scaleRev_orientDef_180.png","happy","1","07","07","coolwarm","orientDef","scaleRev","180","",""
"","","","","","html-slider-response","149","169490","0.0-145.0","mh1vzs93m8","33","NaN","<div style=""width:500px;"">
                            <p style=""font-size:50px; font-weight:bold;""
                            >happy</p>
                            <div style=""width:240px; margin: auto;"">
                                <img src=""images/map02_BrBG_scaleDef_orientDef_270.png"" style= ""width:200px""alt=""img"">
                            </div>
                        </div>","44","","0","","","","images/map02_BrBG_scaleDef_orientDef_270.png","happy","1","02","02","BrBG","orientDef","scaleDef","270","",""
"","","","","","html-slider-response","150","170308","0.0-146.0","mh1vzs93m8","33","NaN","<div style=""width:500px;"">
                            <p style=""font-size:50px; font-weight:bold;""
                            >happy</p>
                            <div style=""width:240px; margin: auto;"">
                                <img src=""images/map27_PiYG_scaleDef_orientMir_270.png"" style= ""width:200px""alt=""img"">
                            </div>
                        </div>","-35","","0","","","","images/map27_PiYG_scaleDef_orientMir_270.png","happy","1","27","27","PiYG","orientMir","scaleDef","270","",""
"","","","","","html-slider-response","151","171633","0.0-147.0","mh1vzs93m8","33","NaN","<div style=""width:500px;"">
                            <p style=""font-size:50px; font-weight:bold;""
                            >happy</p>
                            <div style=""width:240px; margin: auto;"">
                                <img src=""images/map27_YlGnBu_scaleRev_orientDef_000.png"" style= ""width:200px""alt=""img"">
                            </div>
                        </div>","50","","0","","","","images/map27_YlGnBu_scaleRev_orientDef_000.png","happy","1","27","27","YlGnBu","orientDef","scaleRev","000","",""
"","","","","","html-slider-response","152","172377","0.0-148.0","mh1vzs93m8","33","NaN","<div style=""width:500px;"">
                            <p style=""font-size:50px; font-weight:bold;""
                            >happy</p>
                            <div style=""width:240px; margin: auto;"">
                                <img src=""images/map26_PuBu_scaleDef_orientMir_090.png"" style= ""width:200px""alt=""img"">
                            </div>
                        </div>","50","","0","","","","images/map26_PuBu_scaleDef_orientMir_090.png","happy","1","26","26","PuBu","orientMir","scaleDef","090","",""
"","","","","","html-slider-response","153","173136","0.0-149.0","mh1vzs93m8","33","NaN","<div style=""width:500px;"">
                            <p style=""font-size:50px; font-weight:bold;""
                            >happy</p>
                            <div style=""width:240px; margin: auto;"">
                                <img src=""images/map13_Blues_scaleDef_orientMir_270.png"" style= ""width:200px""alt=""img"">
                            </div>
                        </div>","-67","","0","","","","images/map13_Blues_scaleDef_orientMir_270.png","happy","1","13","13","Blues","orientMir","scaleDef","270","",""
"","","","","","html-slider-response","154","173809","0.0-150.0","mh1vzs93m8","33","NaN","<div style=""width:500px;"">
                            <p style=""font-size:50px; font-weight:bold;""
                            >happy</p>
                            <div style=""width:240px; margin: auto;"">
                                <img src=""images/map26_PuBu_scaleRev_orientMir_180.png"" style= ""width:200px""alt=""img"">
                            </div>
                        </div>","34","","0","","","","images/map26_PuBu_scaleRev_orientMir_180.png","happy","1","26","26","PuBu","orientMir","scaleRev","180","",""
"","","","","","html-slider-response","155","174523","0.0-151.0","mh1vzs93m8","33","NaN","<div style=""width:500px;"">
                            <p style=""font-size:50px; font-weight:bold;""
                            >happy</p>
                            <div style=""width:240px; margin: auto;"">
                                <img src=""images/map12_inferno_scaleRev_orientMir_180.png"" style= ""width:200px""alt=""img"">
                            </div>
                        </div>","-2","","0","","","","images/map12_inferno_scaleRev_orientMir_180.png","happy","1","12","12","inferno","orientMir","scaleRev","180","",""
"","","","","","html-slider-response","156","175187","0.0-152.0","mh1vzs93m8","33","NaN","<div style=""width:500px;"">
                            <p style=""font-size:50px; font-weight:bold;""
                            >happy</p>
                            <div style=""width:240px; margin: auto;"">
                                <img src=""images/map15_YlOrBr_scaleDef_orientMir_270.png"" style= ""width:200px""alt=""img"">
                            </div>
                        </div>","-83","","0","","","","images/map15_YlOrBr_scaleDef_orientMir_270.png","happy","1","15","15","YlOrBr","orientMir","scaleDef","270","",""
"","","","","","html-slider-response","157","175907","0.0-153.0","mh1vzs93m8","33","NaN","<div style=""width:500px;"">
                            <p style=""font-size:50px; font-weight:bold;""
                            >happy</p>
                            <div style=""width:240px; margin: auto;"">
                                <img src=""images/map23_YlOrBr_scaleRev_orientDef_000.png"" style= ""width:200px""alt=""img"">
                            </div>
                        </div>","58","","0","","","","images/map23_YlOrBr_scaleRev_orientDef_000.png","happy","1","23","23","YlOrBr","orientDef","scaleRev","000","",""
"","","","","","html-slider-response","158","176640","0.0-154.0","mh1vzs93m8","33","NaN","<div style=""width:500px;"">
                            <p style=""font-size:50px; font-weight:bold;""
                            >happy</p>
                            <div style=""width:240px; margin: auto;"">
                                <img src=""images/map23_YlOrRd_scaleRev_orientDef_180.png"" style= ""width:200px""alt=""img"">
                            </div>
