"success","timeout","failed_images","failed_audio","failed_video","trial_type","trial_index","time_elapsed","internal_node_id","subject_id","condition_num","rt","stimulus","response","question_order","slider_start","practiceTrial","practiceTrialNum","correct","image_path","concept","repetition","map_id","map_num","scale_name","orientation_code","mapping_code","rotation_code","ishihara_plate","correct_response"
"true","false","[]","[]","[]","preload","0","783","0.0-0.0","mlnkb1dw4u","36","","","","","","","","","","","","","","","","","","",""
"","","","","","html-button-response","1","5588","0.0-1.0","mlnkb1dw4u","36","4805","Welcome to our experiment!<p>At the bottom of this screen, you will see a button that says ""Begin Experiment"".<br>Please only click that button when you are ready to complete the 30 minute experiment in one sitting.</p><p> Once you click that button, it will not be possible to restart the experiment.","0","","","","","","","","","","","","","","","",""
"true","","","","","fullscreen","2","8359","0.0-2.0","mlnkb1dw4u","36","1757","","","","","","","","","","","","","","","","","",""
"","","","","","survey-multi-select","3","23866","0.0-3.0","mlnkb1dw4u","36","15505","","{""Consent"":[""<strong>I consent</strong>""]}","[0]","","","","","","","","","","","","","","",""
"","","","","","html-button-response","4","24980","0.0-4.0","mlnkb1dw4u","36","1114","Welcome! <p> This experiment involves two parts: demographic information, followed by the experimental task.<p> It will take about 30 minutes to complete both parts.","0","","","","","","","","","","","","","","","",""
"","","","","","survey-text","5","38414","0.0-5.0","mlnkb1dw4u","36","13431","","{""Age"":""22"",""Gender"":""male"",""Race/ethnicity"":""white"",""Languages"":""Lithuanian, English, Russian""}","","","","","","","","","","","","","","","",""
"","","","","","html-slider-response","6","76453","0.0-6.0","mlnkb1dw4u","36","38038","<div style='text-align:left; font-size:20px; line-height:25px; width: 1000px;'>
                                During this experiment you will be asked to rate how much you associate maps with                    different concepts.<br> Below, you can see some examples of the maps you will be asked to rate. Above the maps
                    is the list of concepts.<br>You will be asked                    to rate how much you associate each map with each concept on a scale from 'not at all' to 'very much' like the
                    one below. <br><br>
                    Now, please look at the list of concepts and maps. For each concept, think about the map you associate 'very
                    much' with the concept.<br>                     When you see that map during the experiment, please rate it near the 'very much' endpoint of the
                    scale.<br>Now, please think about which map you associate 'not at all'                     with each concept. When you see that map during the experiment, please rate it near the 'not at all' endpoint
                    of the scale.<br>
                    Please use the full range of the scale. That is, if a map is somewhat associated with the concept, you would
                    click partway between the middle point and right side of the scale.                    You will be asked to rate each map for a given concept before moving on to the next concept.<br>Press the
                    'Continue' button for instructions on how to use the slider.                    <br>
                </div>

                <div style=""width: 500px; margin: 0 auto;"">
                    <!-- Centered text paragraphs -->
                    <div style=""text-align: center; width: 500px;"">
                        <p style=""font-size:25px; line-height:15px;"">
                            sad&nbsp;&nbsp;&nbsp;&nbsp;
                            angry&nbsp;&nbsp;&nbsp;&nbsp;
                            fearful&nbsp;&nbsp;&nbsp;&nbsp;
                            happy&nbsp;&nbsp;&nbsp;&nbsp;
                            disgust
                        </p>
                        <!-- <p style=""font-size:20px; line-height:15px;"">angry</p>
                        <p style=""font-size:20px;line-height:15px;"">fearful</p>
                        <p style=""font-size:20px;line-height:15px;"">happy</p>
                        <p style=""font-size:20px;line-height:15px;"">disgust</p> -->
                    </div>
            

                    <!-- Grid section -->
                   <div style=""display: flex; justify-content: center; padding-top: 15px;"">
                    <div style=""display: grid; grid-template-columns: repeat(10, 55px); grid-gap: 5px; width: auto;"">
                        <img src=""images/map12_turbo_scaleDef_orientDef_180.png"" alt=""map"" style=""width: 100%;""><img src=""images/map13_magma_scaleRev_orientDef_270.png"" alt=""map"" style=""width: 100%;""><img src=""images/map27_BuGn_scaleDef_orientMir_180.png"" alt=""map"" style=""width: 100%;""><img src=""images/map15_Purples_scaleDef_orientDef_000.png"" alt=""map"" style=""width: 100%;""><img src=""images/map27_YlGnBu_scaleRev_orientDef_270.png"" alt=""map"" style=""width: 100%;""><img src=""images/map02_BrBG_scaleRev_orientMir_270.png"" alt=""map"" style=""width: 100%;""><img src=""images/map23_OrRd_scaleDef_orientMir_180.png"" alt=""map"" style=""width: 100%;""><img src=""images/map27_PuBuGn_scaleRev_orientMir_090.png"" alt=""map"" style=""width: 100%;""><img src=""images/map07_coolwarm_scaleDef_orientMir_000.png"" alt=""map"" style=""width: 100%;""><img src=""images/map05_RdGy_scaleRev_orientDef_270.png"" alt=""map"" style=""width: 100%;""><img src=""images/map23_YlOrRd_scaleDef_orientMir_000.png"" alt=""map"" style=""width: 100%;""><img src=""images/map10_managua_scaleDef_orientMir_000.png"" alt=""map"" style=""width: 100%;""><img src=""images/map26_BuPu_scaleRev_orientMir_090.png"" alt=""map"" style=""width: 100%;""><img src=""images/map05_RdYlBu_scaleRev_orientMir_270.png"" alt=""map"" style=""width: 100%;""><img src=""images/map27_PuBu_scaleDef_orientDef_000.png"" alt=""map"" style=""width: 100%;""><img src=""images/map23_YlOrBr_scaleDef_orientDef_180.png"" alt=""map"" style=""width: 100%;""><img src=""images/map23_Reds_scaleRev_orientDef_090.png"" alt=""map"" style=""width: 100%;""><img src=""images/map05_RdBu_scaleDef_orientMir_000.png"" alt=""map"" style=""width: 100%;""><img src=""images/map15_Greens_scaleRev_orientMir_090.png"" alt=""map"" style=""width: 100%;""><img src=""images/map13_inferno_scaleDef_orientDef_000.png"" alt=""map"" style=""width: 100%;""><img src=""images/map02_PiYG_scaleDef_orientDef_180.png"" alt=""map"" style=""width: 100%;""><img src=""images/map12_plasma_scaleRev_orientMir_270.png"" alt=""map"" style=""width: 100%;""><img src=""images/map07_RdYlGn_scaleRev_orientDef_090.png"" alt=""map"" style=""width: 100%;""><img src=""images/map26_GnBu_scaleDef_orientMir_180.png"" alt=""map"" style=""width: 100%;""><img src=""images/map13_Greys_scaleDef_orientMir_180.png"" alt=""map"" style=""width: 100%;""><img src=""images/map15_Oranges_scaleDef_orientMir_180.png"" alt=""map"" style=""width: 100%;""><img src=""images/map12_viridis_scaleDef_orientMir_000.png"" alt=""map"" style=""width: 100%;""><img src=""images/map02_PRGn_scaleDef_orientMir_000.png"" alt=""map"" style=""width: 100%;""><img src=""images/map15_Blues_scaleRev_orientDef_270.png"" alt=""map"" style=""width: 100%;""><img src=""images/map10_berlin_scaleRev_orientDef_270.png"" alt=""map"" style=""width: 100%;""><img src=""images/map10_vanimo_scaleRev_orientMir_270.png"" alt=""map"" style=""width: 100%;""><img src=""images/map26_RdPu_scaleDef_orientDef_180.png"" alt=""map"" style=""width: 100%;""><img src=""images/map05_PuOr_scaleDef_orientDef_000.png"" alt=""map"" style=""width: 100%;""><img src=""images/map07_Spectral_scaleDef_orientDef_180.png"" alt=""map"" style=""width: 100%;""><img src=""images/map13_cividis_scaleDef_orientMir_000.png"" alt=""map"" style=""width: 100%;""><img src=""images/map02_YlGn_scaleDef_orientDef_000.png"" alt=""map"" style=""width: 100%;""><img src=""images/map07_bwr_scaleDef_orientMir_180.png"" alt=""map"" style=""width: 100%;""><img src=""images/map12_gist_earth_scaleDef_orientDef_000.png"" alt=""map"" style=""width: 100%;""><img src=""images/map10_seismic_scaleDef_orientDef_000.png"" alt=""map"" style=""width: 100%;""><img src=""images/map26_PuRd_scaleRev_orientDef_090.png"" alt=""map"" style=""width: 100%;"">
                    </div>
                </div>

                    <!-- Clear floats -->
                    <div style=""clear: both;""></div>
                </div>
                            ","-2","","0","true","","","","","","","","","","","","",""
"","","","","","html-button-response","7","79487","0.0-7.0","mlnkb1dw4u","36","3033","<div style=""width:800px;""><p style=""text-align:left"">To move the slider, click and drag your cursor to the location of the scale where you would like to make your rating and then let go. When you let go of the slider, your response will be recorded and the next trial will begin. <br>
                    We are interested in your initial impressions of each map for the given concept, so please go with your first intuition. <br>
                    Before you begin the experiment, there will be four training trials for you to practice using the scale. <br>
                     When you are ready to start the training trials, please click ""Continue"".</p><br></div>","0","","","","","","","","","","","","","","","",""
"","","","","","html-slider-response","8","82471","0.0-8.0-0.0","mlnkb1dw4u","36","NaN","<div style=""width:500px;"">
                                    <p style=""font-size:25px;"">Please move the slider all the way to the <br> right endpoint of the scale</p>

                                    </div>
                                </div>","200","","0","true","0","true","","","","","","","","","","",""
"","","","","","html-button-response","9","83732","0.0-8.0-1.0","mlnkb1dw4u","36","757","<p align='center'><b>Good job!</b> Click on 'Continue' to proceed.</p>","0","","","","","","","","","","","","","","","",""
"","","","","","html-slider-response","10","85072","0.0-9.0-0.0","mlnkb1dw4u","36","NaN","<div style=""width:500px;"">
                                    <p style=""font-size:25px;"">Please move the slider all the way to the <br> left endpoint of the scale</p>

                                    </div>
                                </div>","-200","","0","true","1","true","","","","","","","","","","",""
"","","","","","html-button-response","11","86064","0.0-9.0-1.0","mlnkb1dw4u","36","485","<p align='center'><b>Good job!</b> Click on 'Continue' to proceed.</p>","0","","","","","","","","","","","","","","","",""
"","","","","","html-slider-response","12","87472","0.0-10.0-0.0","mlnkb1dw4u","36","NaN","<div style=""width:500px;"">
                                    <p style=""font-size:25px;"">Please move the slider halfway between the center and right endpoint of the scale</p>

                                    </div>
                                </div>","2","","0","true","2","false","","","","","","","","","","",""
"","","","","","html-button-response","13","88851","0.0-10.0-1.0","mlnkb1dw4u","36","879","<p align='center'><b>Not quite!</b> The slider was not placed near the instructed located. Click on 'Continue' to try again. </p>","0","","","","","","","","","","","","","","","",""
"","","","","","html-slider-response","14","89556","0.0-10.1-0.1","mlnkb1dw4u","36","NaN","<div style=""width:500px;"">
                                    <p style=""font-size:25px;"">Please move the slider halfway between the center and right endpoint of the scale</p>

                                    </div>
                                </div>","2","","0","true","2","false","","","","","","","","","","",""
"","","","","","html-button-response","15","90610","0.0-10.1-1.1","mlnkb1dw4u","36","542","<p align='center'><b>Not quite!</b> The slider was not placed near the instructed located. Click on 'Continue' to try again. </p>","0","","","","","","","","","","","","","","","",""
"","","","","","html-slider-response","16","92379","0.0-10.2-0.2","mlnkb1dw4u","36","NaN","<div style=""width:500px;"">
                                    <p style=""font-size:25px;"">Please move the slider halfway between the center and right endpoint of the scale</p>

                                    </div>
                                </div>","0","","0","true","2","false","","","","","","","","","","",""
"","","","","","html-button-response","17","95748","0.0-10.2-1.2","mlnkb1dw4u","36","2860","<p align='center'><b>Not quite!</b> The slider was not placed near the instructed located. Click on 'Continue' to try again. </p>","0","","","","","","","","","","","","","","","",""
"","","","","","html-slider-response","18","98143","0.0-10.3-0.3","mlnkb1dw4u","36","NaN","<div style=""width:500px;"">
                                    <p style=""font-size:25px;"">Please move the slider halfway between the center and right endpoint of the scale</p>

                                    </div>
                                </div>","95","","0","true","2","true","","","","","","","","","","",""
"","","","","","html-button-response","19","99221","0.0-10.3-1.3","mlnkb1dw4u","36","577","<p align='center'><b>Good job!</b> Click on 'Continue' to proceed.</p>","0","","","","","","","","","","","","","","","",""
"","","","","","html-slider-response","20","100704","0.0-11.0-0.0","mlnkb1dw4u","36","NaN","<div style=""width:500px;"">
                                    <p style=""font-size:25px;"">Please move the slider halfway between the center and left endpoint of the scale</p>

                                    </div>
                                </div>","-106","","0","true","3","true","","","","","","","","","","",""
"","","","","","html-button-response","21","101931","0.0-11.0-1.0","mlnkb1dw4u","36","720","<p align='center'><b>Good job!</b> Click on 'Continue' to proceed.</p>","0","","","","","","","","","","","","","","","",""
"","","","","","html-button-response","22","103080","0.0-12.0","mlnkb1dw4u","36","1149","<p>Great job! You've completed the practice trials. Now you will begin the main task.</p>","0","","","","","","","","","","","","","","","",""
"","","","","","html-button-response","23","105869","0.0-13.0","mlnkb1dw4u","36","2788","<p>In this block of trials, you will be asked to rate how much you associate each map with:</p > <p style = 'font-size:150%; font-weight: bold'>sad</p><br></br>","0","","","","","","","","","","","","","","","",""
"","","","","","html-slider-response","24","108299","0.0-14.0","mlnkb1dw4u","36","NaN","<div style=""width:500px;"">
                            <p style=""font-size:50px; font-weight:bold;""
                            >sad</p>
                            <div style=""width:240px; margin: auto;"">
                                <img src=""images/map26_GnBu_scaleDef_orientMir_180.png"" style= ""width:200px""alt=""img"">
                            </div>
                        </div>","86","","0","","","","images/map26_GnBu_scaleDef_orientMir_180.png","sad","1","26","26","GnBu","orientMir","scaleDef","180","",""
"","","","","","html-slider-response","25","113469","0.0-15.0","mlnkb1dw4u","36","NaN","<div style=""width:500px;"">
                            <p style=""font-size:50px; font-weight:bold;""
                            >sad</p>
                            <div style=""width:240px; margin: auto;"">
                                <img src=""images/map07_RdYlGn_scaleDef_orientDef_000.png"" style= ""width:200px""alt=""img"">
                            </div>
                        </div>","24","","0","","","","images/map07_RdYlGn_scaleDef_orientDef_000.png","sad","1","07","07","RdYlGn","orientDef","scaleDef","000","",""
"","","","","","html-slider-response","26","116194","0.0-16.0","mlnkb1dw4u","36","NaN","<div style=""width:500px;"">
                            <p style=""font-size:50px; font-weight:bold;""
                            >sad</p>
                            <div style=""width:240px; margin: auto;"">
                                <img src=""images/map12_viridis_scaleRev_orientMir_090.png"" style= ""width:200px""alt=""img"">
                            </div>
                        </div>","-140","","0","","","","images/map12_viridis_scaleRev_orientMir_090.png","sad","1","12","12","viridis","orientMir","scaleRev","090","",""
"","","","","","html-slider-response","27","120877","0.0-17.0","mlnkb1dw4u","36","NaN","<div style=""width:500px;"">
                            <p style=""font-size:50px; font-weight:bold;""
                            >sad</p>
                            <div style=""width:240px; margin: auto;"">
                                <img src=""images/map27_BuGn_scaleRev_orientMir_270.png"" style= ""width:200px""alt=""img"">
                            </div>
                        </div>","52","","0","","","","images/map27_BuGn_scaleRev_orientMir_270.png","sad","1","27","27","BuGn","orientMir","scaleRev","270","",""
"","","","","","html-slider-response","28","123190","0.0-18.0","mlnkb1dw4u","36","NaN","<div style=""width:500px;"">
                            <p style=""font-size:50px; font-weight:bold;""
                            >sad</p>
                            <div style=""width:240px; margin: auto;"">
                                <img src=""images/map07_coolwarm_scaleDef_orientMir_000.png"" style= ""width:200px""alt=""img"">
                            </div>
                        </div>","43","","0","","","","images/map07_coolwarm_scaleDef_orientMir_000.png","sad","1","07","07","coolwarm","orientMir","scaleDef","000","",""
"","","","","","html-slider-response","29","126678","0.0-19.0","mlnkb1dw4u","36","NaN","<div style=""width:500px;"">
                            <p style=""font-size:50px; font-weight:bold;""
                            >sad</p>
                            <div style=""width:240px; margin: auto;"">
                                <img src=""images/map12_plasma_scaleRev_orientMir_270.png"" style= ""width:200px""alt=""img"">
                            </div>
                        </div>","-125","","0","","","","images/map12_plasma_scaleRev_orientMir_270.png","sad","1","12","12","plasma","orientMir","scaleRev","270","",""
"","","","","","html-slider-response","30","129387","0.0-20.0","mlnkb1dw4u","36","NaN","<div style=""width:500px;"">
                            <p style=""font-size:50px; font-weight:bold;""
                            >sad</p>
                            <div style=""width:240px; margin: auto;"">
                                <img src=""images/map10_vanimo_scaleRev_orientMir_270.png"" style= ""width:200px""alt=""img"">
                            </div>
                        </div>","-117","","0","","","","images/map10_vanimo_scaleRev_orientMir_270.png","sad","1","10","10","vanimo","orientMir","scaleRev","270","",""
"","","","","","html-slider-response","31","133018","0.0-21.0","mlnkb1dw4u","36","NaN","<div style=""width:500px;"">
                            <p style=""font-size:50px; font-weight:bold;""
                            >sad</p>
                            <div style=""width:240px; margin: auto;"">
                                <img src=""images/map10_berlin_scaleRev_orientDef_270.png"" style= ""width:200px""alt=""img"">
                            </div>
                        </div>","-70","","0","","","","images/map10_berlin_scaleRev_orientDef_270.png","sad","1","10","10","berlin","orientDef","scaleRev","270","",""
"","","","","","html-slider-response","32","138511","0.0-22.0","mlnkb1dw4u","36","NaN","<div style=""width:500px;"">
                            <p style=""font-size:50px; font-weight:bold;""
                            >sad</p>
                            <div style=""width:240px; margin: auto;"">
                                <img src=""images/map02_PRGn_scaleRev_orientMir_090.png"" style= ""width:200px""alt=""img"">
                            </div>
                        </div>","-100","","0","","","","images/map02_PRGn_scaleRev_orientMir_090.png","sad","1","02","02","PRGn","orientMir","scaleRev","090","",""
"","","","","","html-slider-response","33","140145","0.0-23.0","mlnkb1dw4u","36","NaN","<div style=""width:500px;"">
                            <p style=""font-size:50px; font-weight:bold;""
                            >sad</p>
                            <div style=""width:240px; margin: auto;"">
                                <img src=""images/map26_RdPu_scaleDef_orientDef_180.png"" style= ""width:200px""alt=""img"">
                            </div>
                        </div>","-200","","0","","","","images/map26_RdPu_scaleDef_orientDef_180.png","sad","1","26","26","RdPu","orientDef","scaleDef","180","",""
"","","","","","html-slider-response","34","142415","0.0-24.0","mlnkb1dw4u","36","NaN","<div style=""width:500px;"">
                            <p style=""font-size:50px; font-weight:bold;""
                            >sad</p>
                            <div style=""width:240px; margin: auto;"">
                                <img src=""images/map23_Reds_scaleDef_orientDef_000.png"" style= ""width:200px""alt=""img"">
                            </div>
                        </div>","71","","0","","","","images/map23_Reds_scaleDef_orientDef_000.png","sad","1","23","23","Reds","orientDef","scaleDef","000","",""
"","","","","","html-slider-response","35","145304","0.0-25.0","mlnkb1dw4u","36","NaN","<div style=""width:500px;"">
                            <p style=""font-size:50px; font-weight:bold;""
                            >sad</p>
                            <div style=""width:240px; margin: auto;"">
                                <img src=""images/map13_cividis_scaleRev_orientMir_090.png"" style= ""width:200px""alt=""img"">
                            </div>
                        </div>","200","","0","","","","images/map13_cividis_scaleRev_orientMir_090.png","sad","1","13","13","cividis","orientMir","scaleRev","090","",""
"","","","","","html-slider-response","36","147266","0.0-26.0","mlnkb1dw4u","36","NaN","<div style=""width:500px;"">
                            <p style=""font-size:50px; font-weight:bold;""
                            >sad</p>
                            <div style=""width:240px; margin: auto;"">
                                <img src=""images/map12_plasma_scaleDef_orientMir_180.png"" style= ""width:200px""alt=""img"">
                            </div>
                        </div>","30","","0","","","","images/map12_plasma_scaleDef_orientMir_180.png","sad","1","12","12","plasma","orientMir","scaleDef","180","",""
"","","","","","html-slider-response","37","149304","0.0-27.0","mlnkb1dw4u","36","NaN","<div style=""width:500px;"">
                            <p style=""font-size:50px; font-weight:bold;""
                            >sad</p>
                            <div style=""width:240px; margin: auto;"">
                                <img src=""images/map02_YlGn_scaleDef_orientDef_000.png"" style= ""width:200px""alt=""img"">
                            </div>
                        </div>","-200","","0","","","","images/map02_YlGn_scaleDef_orientDef_000.png","sad","1","02","02","YlGn","orientDef","scaleDef","000","",""
"","","","","","html-slider-response","38","151953","0.0-28.0","mlnkb1dw4u","36","NaN","<div style=""width:500px;"">
                            <p style=""font-size:50px; font-weight:bold;""
                            >sad</p>
                            <div style=""width:240px; margin: auto;"">
                                <img src=""images/map15_Purples_scaleRev_orientDef_090.png"" style= ""width:200px""alt=""img"">
                            </div>
                        </div>","30","","0","","","","images/map15_Purples_scaleRev_orientDef_090.png","sad","1","15","15","Purples","orientDef","scaleRev","090","",""
"","","","","","html-slider-response","39","157676","0.0-29.0","mlnkb1dw4u","36","NaN","<div style=""width:500px;"">
                            <p style=""font-size:50px; font-weight:bold;""
                            >sad</p>
                            <div style=""width:240px; margin: auto;"">
                                <img src=""images/map10_managua_scaleRev_orientMir_090.png"" style= ""width:200px""alt=""img"">
                            </div>
                        </div>","-60","","0","","","","images/map10_managua_scaleRev_orientMir_090.png","sad","1","10","10","managua","orientMir","scaleRev","090","",""
"","","","","","html-slider-response","40","160020","0.0-30.0","mlnkb1dw4u","36","NaN","<div style=""width:500px;"">
                            <p style=""font-size:50px; font-weight:bold;""
                            >sad</p>
                            <div style=""width:240px; margin: auto;"">
                                <img src=""images/map26_PuRd_scaleRev_orientDef_090.png"" style= ""width:200px""alt=""img"">
                            </div>
                        </div>","-60","","0","","","","images/map26_PuRd_scaleRev_orientDef_090.png","sad","1","26","26","PuRd","orientDef","scaleRev","090","",""
"","","","","","html-slider-response","41","162291","0.0-31.0","mlnkb1dw4u","36","NaN","<div style=""width:500px;"">
                            <p style=""font-size:50px; font-weight:bold;""
                            >sad</p>
                            <div style=""width:240px; margin: auto;"">
                                <img src=""images/map05_RdGy_scaleRev_orientDef_270.png"" style= ""width:200px""alt=""img"">
                            </div>
                        </div>","-58","","0","","","","images/map05_RdGy_scaleRev_orientDef_270.png","sad","1","05","05","RdGy","orientDef","scaleRev","270","",""
"","","","","","html-slider-response","42","166074","0.0-32.0","mlnkb1dw4u","36","NaN","<div style=""width:500px;"">
                            <p style=""font-size:50px; font-weight:bold;""
                            >sad</p>
                            <div style=""width:240px; margin: auto;"">
                                <img src=""images/map10_berlin_scaleDef_orientDef_180.png"" style= ""width:200px""alt=""img"">
                            </div>
                        </div>","-57","","0","","","","images/map10_berlin_scaleDef_orientDef_180.png","sad","1","10","10","berlin","orientDef","scaleDef","180","",""
"","","","","","html-slider-response","43","169885","0.0-33.0","mlnkb1dw4u","36","NaN","<div style=""width:500px;"">
                            <p style=""font-size:50px; font-weight:bold;""
                            >sad</p>
                            <div style=""width:240px; margin: auto;"">
                                <img src=""images/map27_BuGn_scaleDef_orientMir_180.png"" style= ""width:200px""alt=""img"">
                            </div>
                        </div>","-79","","0","","","","images/map27_BuGn_scaleDef_orientMir_180.png","sad","1","27","27","BuGn","orientMir","scaleDef","180","",""
"","","","","","html-slider-response","44","171878","0.0-34.0","mlnkb1dw4u","36","NaN","<div style=""width:500px;"">
                            <p style=""font-size:50px; font-weight:bold;""
                            >sad</p>
                            <div style=""width:240px; margin: auto;"">
                                <img src=""images/map26_GnBu_scaleRev_orientMir_270.png"" style= ""width:200px""alt=""img"">
                            </div>
                        </div>","-89","","0","","","","images/map26_GnBu_scaleRev_orientMir_270.png","sad","1","26","26","GnBu","orientMir","scaleRev","270","",""
"","","","","","html-slider-response","45","173595","0.0-35.0","mlnkb1dw4u","36","NaN","<div style=""width:500px;"">
                            <p style=""font-size:50px; font-weight:bold;""
                            >sad</p>
                            <div style=""width:240px; margin: auto;"">
                                <img src=""images/map27_PuBuGn_scaleDef_orientMir_000.png"" style= ""width:200px""alt=""img"">
                            </div>
                        </div>","-83","","0","","","","images/map27_PuBuGn_scaleDef_orientMir_000.png","sad","1","27","27","PuBuGn","orientMir","scaleDef","000","",""
"","","","","","html-slider-response","46","175637","0.0-36.0","mlnkb1dw4u","36","NaN","<div style=""width:500px;"">
                            <p style=""font-size:50px; font-weight:bold;""
                            >sad</p>
                            <div style=""width:240px; margin: auto;"">
                                <img src=""images/map12_gist_earth_scaleRev_orientDef_090.png"" style= ""width:200px""alt=""img"">
                            </div>
                        </div>","-170","","0","","","","images/map12_gist_earth_scaleRev_orientDef_090.png","sad","1","12","12","gist","scaleRev","earth","orientDef","",""
"","","","","","html-slider-response","47","178762","0.0-37.0","mlnkb1dw4u","36","NaN","<div style=""width:500px;"">
                            <p style=""font-size:50px; font-weight:bold;""
                            >sad</p>
                            <div style=""width:240px; margin: auto;"">
                                <img src=""images/map27_YlGnBu_scaleDef_orientDef_180.png"" style= ""width:200px""alt=""img"">
                            </div>
                        </div>","167","","0","","","","images/map27_YlGnBu_scaleDef_orientDef_180.png","sad","1","27","27","YlGnBu","orientDef","scaleDef","180","",""
"","","","","","html-slider-response","48","180387","0.0-38.0","mlnkb1dw4u","36","NaN","<div style=""width:500px;"">
                            <p style=""font-size:50px; font-weight:bold;""
                            >sad</p>
                            <div style=""width:240px; margin: auto;"">
                                <img src=""images/map27_PuBuGn_scaleRev_orientMir_090.png"" style= ""width:200px""alt=""img"">
                            </div>
                        </div>","127","","0","","","","images/map27_PuBuGn_scaleRev_orientMir_090.png","sad","1","27","27","PuBuGn","orientMir","scaleRev","090","",""
"","","","","","html-slider-response","49","183417","0.0-39.0","mlnkb1dw4u","36","NaN","<div style=""width:500px;"">
                            <p style=""font-size:50px; font-weight:bold;""
                            >sad</p>
                            <div style=""width:240px; margin: auto;"">
                                <img src=""images/map23_Reds_scaleRev_orientDef_090.png"" style= ""width:200px""alt=""img"">
                            </div>
                        </div>","36","","0","","","","images/map23_Reds_scaleRev_orientDef_090.png","sad","1","23","23","Reds","orientDef","scaleRev","090","",""
"","","","","","html-slider-response","50","186287","0.0-40.0","mlnkb1dw4u","36","NaN","<div style=""width:500px;"">
                            <p style=""font-size:50px; font-weight:bold;""
                            >sad</p>
                            <div style=""width:240px; margin: auto;"">
                                <img src=""images/map12_gist_earth_scaleDef_orientDef_000.png"" style= ""width:200px""alt=""img"">
                            </div>
                        </div>","-200","","0","","","","images/map12_gist_earth_scaleDef_orientDef_000.png","sad","1","12","12","gist","scaleDef","earth","orientDef","",""
"","","","","","html-slider-response","51","188017","0.0-41.0","mlnkb1dw4u","36","NaN","<div style=""width:500px;"">
                            <p style=""font-size:50px; font-weight:bold;""
                            >sad</p>
                            <div style=""width:240px; margin: auto;"">
                                <img src=""images/map07_Spectral_scaleRev_orientDef_270.png"" style= ""width:200px""alt=""img"">
                            </div>
                        </div>","14","","0","","","","images/map07_Spectral_scaleRev_orientDef_270.png","sad","1","07","07","Spectral","orientDef","scaleRev","270","",""
"","","","","","html-slider-response","52","190541","0.0-42.0","mlnkb1dw4u","36","NaN","<div style=""width:500px;"">
                            <p style=""font-size:50px; font-weight:bold;""
                            >sad</p>
                            <div style=""width:240px; margin: auto;"">
                                <img src=""images/map10_managua_scaleDef_orientMir_000.png"" style= ""width:200px""alt=""img"">
                            </div>
                        </div>","0","","0","","","","images/map10_managua_scaleDef_orientMir_000.png","sad","1","10","10","managua","orientMir","scaleDef","000","",""
"","","","","","html-slider-response","53","193188","0.0-43.0","mlnkb1dw4u","36","NaN","<div style=""width:500px;"">
                            <p style=""font-size:50px; font-weight:bold;""
                            >sad</p>
                            <div style=""width:240px; margin: auto;"">
                                <img src=""images/map23_YlOrBr_scaleRev_orientDef_270.png"" style= ""width:200px""alt=""img"">
                            </div>
                        </div>","-65","","0","","","","images/map23_YlOrBr_scaleRev_orientDef_270.png","sad","1","23","23","YlOrBr","orientDef","scaleRev","270","",""
"","","","","","html-slider-response","54","194710","0.0-44.0","mlnkb1dw4u","36","NaN","<div style=""width:500px;"">
                            <p style=""font-size:50px; font-weight:bold;""
                            >sad</p>
                            <div style=""width:240px; margin: auto;"">
                                <img src=""images/map12_viridis_scaleDef_orientMir_000.png"" style= ""width:200px""alt=""img"">
                            </div>
                        </div>","-200","","0","","","","images/map12_viridis_scaleDef_orientMir_000.png","sad","1","12","12","viridis","orientMir","scaleDef","000","",""
"","","","","","html-slider-response","55","196685","0.0-45.0","mlnkb1dw4u","36","NaN","<div style=""width:500px;"">
                            <p style=""font-size:50px; font-weight:bold;""
                            >sad</p>
                            <div style=""width:240px; margin: auto;"">
                                <img src=""images/map27_PuBu_scaleDef_orientDef_000.png"" style= ""width:200px""alt=""img"">
                            </div>
                        </div>","200","","0","","","","images/map27_PuBu_scaleDef_orientDef_000.png","sad","1","27","27","PuBu","orientDef","scaleDef","000","",""
"","","","","","html-slider-response","56","200175","0.0-46.0","mlnkb1dw4u","36","NaN","<div style=""width:500px;"">
                            <p style=""font-size:50px; font-weight:bold;""
                            >sad</p>
                            <div style=""width:240px; margin: auto;"">
                                <img src=""images/map15_Oranges_scaleDef_orientMir_180.png"" style= ""width:200px""alt=""img"">
                            </div>
                        </div>","-46","","0","","","","images/map15_Oranges_scaleDef_orientMir_180.png","sad","1","15","15","Oranges","orientMir","scaleDef","180","",""
"","","","","","html-slider-response","57","202636","0.0-47.0","mlnkb1dw4u","36","NaN","<div style=""width:500px;"">
                            <p style=""font-size:50px; font-weight:bold;""
                            >sad</p>
                            <div style=""width:240px; margin: auto;"">
                                <img src=""images/map26_PuRd_scaleDef_orientDef_000.png"" style= ""width:200px""alt=""img"">
                            </div>
                        </div>","-190","","0","","","","images/map26_PuRd_scaleDef_orientDef_000.png","sad","1","26","26","PuRd","orientDef","scaleDef","000","",""
"","","","","","html-slider-response","58","205685","0.0-48.0","mlnkb1dw4u","36","NaN","<div style=""width:500px;"">
                            <p style=""font-size:50px; font-weight:bold;""
                            >sad</p>
                            <div style=""width:240px; margin: auto;"">
                                <img src=""images/map10_seismic_scaleRev_orientDef_090.png"" style= ""width:200px""alt=""img"">
                            </div>
                        </div>","-111","","0","","","","images/map10_seismic_scaleRev_orientDef_090.png","sad","1","10","10","seismic","orientDef","scaleRev","090","",""
"","","","","","html-slider-response","59","207526","0.0-49.0","mlnkb1dw4u","36","NaN","<div style=""width:500px;"">
                            <p style=""font-size:50px; font-weight:bold;""
                            >sad</p>
                            <div style=""width:240px; margin: auto;"">
                                <img src=""images/map02_BrBG_scaleRev_orientMir_270.png"" style= ""width:200px""alt=""img"">
                            </div>
                        </div>","55","","0","","","","images/map02_BrBG_scaleRev_orientMir_270.png","sad","1","02","02","BrBG","orientMir","scaleRev","270","",""
"","","","","","html-slider-response","60","210502","0.0-50.0","mlnkb1dw4u","36","NaN","<div style=""width:500px;"">
                            <p style=""font-size:50px; font-weight:bold;""
                            >sad</p>
                            <div style=""width:240px; margin: auto;"">
                                <img src=""images/map23_YlOrBr_scaleDef_orientDef_180.png"" style= ""width:200px""alt=""img"">
                            </div>
                        </div>","38","","0","","","","images/map23_YlOrBr_scaleDef_orientDef_180.png","sad","1","23","23","YlOrBr","orientDef","scaleDef","180","",""
"","","","","","html-slider-response","61","212868","0.0-51.0","mlnkb1dw4u","36","NaN","<div style=""width:500px;"">
                            <p style=""font-size:50px; font-weight:bold;""
                            >sad</p>
                            <div style=""width:240px; margin: auto;"">
                                <img src=""images/map23_YlOrRd_scaleRev_orientMir_090.png"" style= ""width:200px""alt=""img"">
                            </div>
                        </div>","34","","0","","","","images/map23_YlOrRd_scaleRev_orientMir_090.png","sad","1","23","23","YlOrRd","orientMir","scaleRev","090","",""
"","","","","","html-slider-response","62","218541","0.0-52.0","mlnkb1dw4u","36","NaN","<div style=""width:500px;"">
                            <p style=""font-size:50px; font-weight:bold;""
                            >sad</p>
                            <div style=""width:240px; margin: auto;"">
                                <img src=""images/map12_turbo_scaleRev_orientDef_270.png"" style= ""width:200px""alt=""img"">
                            </div>
                        </div>","-74","","0","","","","images/map12_turbo_scaleRev_orientDef_270.png","sad","1","12","12","turbo","orientDef","scaleRev","270","",""
"","","","","","html-slider-response","63","221697","0.0-53.0","mlnkb1dw4u","36","NaN","<div style=""width:500px;"">
                            <p style=""font-size:50px; font-weight:bold;""
                            >sad</p>
                            <div style=""width:240px; margin: auto;"">
                                <img src=""images/map02_BrBG_scaleDef_orientMir_180.png"" style= ""width:200px""alt=""img"">
                            </div>
                        </div>","51","","0","","","","images/map02_BrBG_scaleDef_orientMir_180.png","sad","1","02","02","BrBG","orientMir","scaleDef","180","",""
"","","","","","html-button-response","64","225886","0.0-54.0","mlnkb1dw4u","36","3688","<p>You are doing great!<br></br> You are halway done with the current block. When you are ready to continue, click the 'Continue' button.</p>","0","","","","","","","","","","","","","","","",""
"","","","","","html-slider-response","65","230700","0.0-55.0","mlnkb1dw4u","36","NaN","<div style=""width:500px;"">
                            <p style=""font-size:50px; font-weight:bold;""
                            >sad</p>
                            <div style=""width:240px; margin: auto;"">
                                <img src=""images/map15_Oranges_scaleRev_orientMir_270.png"" style= ""width:200px""alt=""img"">
                            </div>
                        </div>","-76","","0","","","","images/map15_Oranges_scaleRev_orientMir_270.png","sad","1","15","15","Oranges","orientMir","scaleRev","270","",""
"","","","","","html-slider-response","66","236269","0.0-56.0","mlnkb1dw4u","36","NaN","<div style=""width:500px;"">
                            <p style=""font-size:50px; font-weight:bold;""
                            >sad</p>
                            <div style=""width:240px; margin: auto;"">
                                <img src=""images/map02_PiYG_scaleRev_orientDef_270.png"" style= ""width:200px""alt=""img"">
                            </div>
                        </div>","-60","","0","","","","images/map02_PiYG_scaleRev_orientDef_270.png","sad","1","02","02","PiYG","orientDef","scaleRev","270","",""
"","","","","","html-slider-response","67","237798","0.0-57.0","mlnkb1dw4u","36","NaN","<div style=""width:500px;"">
                            <p style=""font-size:50px; font-weight:bold;""
                            >sad</p>
                            <div style=""width:240px; margin: auto;"">
                                <img src=""images/map05_RdBu_scaleDef_orientMir_000.png"" style= ""width:200px""alt=""img"">
                            </div>
                        </div>","30","","0","","","","images/map05_RdBu_scaleDef_orientMir_000.png","sad","1","05","05","RdBu","orientMir","scaleDef","000","",""
"","","","","","html-slider-response","68","240716","0.0-58.0","mlnkb1dw4u","36","NaN","<div style=""width:500px;"">
                            <p style=""font-size:50px; font-weight:bold;""
                            >sad</p>
                            <div style=""width:240px; margin: auto;"">
                                <img src=""images/map13_Greys_scaleRev_orientMir_270.png"" style= ""width:200px""alt=""img"">
                            </div>
                        </div>","200","","0","","","","images/map13_Greys_scaleRev_orientMir_270.png","sad","1","13","13","Greys","orientMir","scaleRev","270","",""
"","","","","","html-slider-response","69","242895","0.0-59.0","mlnkb1dw4u","36","NaN","<div style=""width:500px;"">
                            <p style=""font-size:50px; font-weight:bold;""
                            >sad</p>
                            <div style=""width:240px; margin: auto;"">
                                <img src=""images/map05_RdGy_scaleDef_orientDef_180.png"" style= ""width:200px""alt=""img"">
                            </div>
                        </div>","22","","0","","","","images/map05_RdGy_scaleDef_orientDef_180.png","sad","1","05","05","RdGy","orientDef","scaleDef","180","",""
"","","","","","html-slider-response","70","244478","0.0-60.0","mlnkb1dw4u","36","NaN","<div style=""width:500px;"">
                            <p style=""font-size:50px; font-weight:bold;""
                            >sad</p>
                            <div style=""width:240px; margin: auto;"">
                                <img src=""images/map13_cividis_scaleDef_orientMir_000.png"" style= ""width:200px""alt=""img"">
                            </div>
                        </div>","38","","0","","","","images/map13_cividis_scaleDef_orientMir_000.png","sad","1","13","13","cividis","orientMir","scaleDef","000","",""
"","","","","","html-slider-response","71","245961","0.0-61.0","mlnkb1dw4u","36","NaN","<div style=""width:500px;"">
                            <p style=""font-size:50px; font-weight:bold;""
                            >sad</p>
                            <div style=""width:240px; margin: auto;"">
                                <img src=""images/map02_YlGn_scaleRev_orientDef_090.png"" style= ""width:200px""alt=""img"">
                            </div>
                        </div>","-200","","0","","","","images/map02_YlGn_scaleRev_orientDef_090.png","sad","1","02","02","YlGn","orientDef","scaleRev","090","",""
"","","","","","html-slider-response","72","247431","0.0-62.0","mlnkb1dw4u","36","NaN","<div style=""width:500px;"">
                            <p style=""font-size:50px; font-weight:bold;""
                            >sad</p>
                            <div style=""width:240px; margin: auto;"">
                                <img src=""images/map15_Greens_scaleRev_orientMir_090.png"" style= ""width:200px""alt=""img"">
                            </div>
                        </div>","-200","","0","","","","images/map15_Greens_scaleRev_orientMir_090.png","sad","1","15","15","Greens","orientMir","scaleRev","090","",""
"","","","","","html-slider-response","73","249714","0.0-63.0","mlnkb1dw4u","36","NaN","<div style=""width:500px;"">
                            <p style=""font-size:50px; font-weight:bold;""
                            >sad</p>
                            <div style=""width:240px; margin: auto;"">
                                <img src=""images/map26_RdPu_scaleRev_orientDef_270.png"" style= ""width:200px""alt=""img"">
                            </div>
                        </div>","-118","","0","","","","images/map26_RdPu_scaleRev_orientDef_270.png","sad","1","26","26","RdPu","orientDef","scaleRev","270","",""
"","","","","","html-slider-response","74","251279","0.0-64.0","mlnkb1dw4u","36","NaN","<div style=""width:500px;"">
                            <p style=""font-size:50px; font-weight:bold;""
                            >sad</p>
                            <div style=""width:240px; margin: auto;"">
                                <img src=""images/map05_RdBu_scaleRev_orientMir_090.png"" style= ""width:200px""alt=""img"">
                            </div>
                        </div>","36","","0","","","","images/map05_RdBu_scaleRev_orientMir_090.png","sad","1","05","05","RdBu","orientMir","scaleRev","090","",""
"","","","","","html-slider-response","75","254180","0.0-65.0","mlnkb1dw4u","36","NaN","<div style=""width:500px;"">
                            <p style=""font-size:50px; font-weight:bold;""
                            >sad</p>
                            <div style=""width:240px; margin: auto;"">
                                <img src=""images/map07_bwr_scaleRev_orientMir_270.png"" style= ""width:200px""alt=""img"">
                            </div>
                        </div>","-86","","0","","","","images/map07_bwr_scaleRev_orientMir_270.png","sad","1","07","07","bwr","orientMir","scaleRev","270","",""
"","","","","","html-slider-response","76","255564","0.0-66.0","mlnkb1dw4u","36","NaN","<div style=""width:500px;"">
                            <p style=""font-size:50px; font-weight:bold;""
                            >sad</p>
                            <div style=""width:240px; margin: auto;"">
                                <img src=""images/map10_seismic_scaleDef_orientDef_000.png"" style= ""width:200px""alt=""img"">
                            </div>
                        </div>","-76","","0","","","","images/map10_seismic_scaleDef_orientDef_000.png","sad","1","10","10","seismic","orientDef","scaleDef","000","",""
"","","","","","html-slider-response","77","256814","0.0-67.0","mlnkb1dw4u","36","NaN","<div style=""width:500px;"">
                            <p style=""font-size:50px; font-weight:bold;""
                            >sad</p>
                            <div style=""width:240px; margin: auto;"">
                                <img src=""images/map05_PuOr_scaleRev_orientDef_090.png"" style= ""width:200px""alt=""img"">
                            </div>
                        </div>","-84","","0","","","","images/map05_PuOr_scaleRev_orientDef_090.png","sad","1","05","05","PuOr","orientDef","scaleRev","090","",""
"","","","","","html-slider-response","78","258800","0.0-68.0","mlnkb1dw4u","36","NaN","<div style=""width:500px;"">
                            <p style=""font-size:50px; font-weight:bold;""
                            >sad</p>
                            <div style=""width:240px; margin: auto;"">
                                <img src=""images/map27_PuBu_scaleRev_orientDef_090.png"" style= ""width:200px""alt=""img"">
                            </div>
                        </div>","142","","0","","","","images/map27_PuBu_scaleRev_orientDef_090.png","sad","1","27","27","PuBu","orientDef","scaleRev","090","",""
"","","","","","html-slider-response","79","261323","0.0-69.0","mlnkb1dw4u","36","NaN","<div style=""width:500px;"">
                            <p style=""font-size:50px; font-weight:bold;""
                            >sad</p>
                            <div style=""width:240px; margin: auto;"">
                                <img src=""images/map07_bwr_scaleDef_orientMir_180.png"" style= ""width:200px""alt=""img"">
                            </div>
                        </div>","-110","","0","","","","images/map07_bwr_scaleDef_orientMir_180.png","sad","1","07","07","bwr","orientMir","scaleDef","180","",""
"","","","","","html-slider-response","80","262773","0.0-70.0","mlnkb1dw4u","36","NaN","<div style=""width:500px;"">
                            <p style=""font-size:50px; font-weight:bold;""
                            >sad</p>
                            <div style=""width:240px; margin: auto;"">
                                <img src=""images/map15_Blues_scaleDef_orientDef_180.png"" style= ""width:200px""alt=""img"">
                            </div>
                        </div>","194","","0","","","","images/map15_Blues_scaleDef_orientDef_180.png","sad","1","15","15","Blues","orientDef","scaleDef","180","",""
"","","","","","html-slider-response","81","264235","0.0-71.0","mlnkb1dw4u","36","NaN","<div style=""width:500px;"">
                            <p style=""font-size:50px; font-weight:bold;""
                            >sad</p>
                            <div style=""width:240px; margin: auto;"">
                                <img src=""images/map15_Blues_scaleRev_orientDef_270.png"" style= ""width:200px""alt=""img"">
                            </div>
                        </div>","182","","0","","","","images/map15_Blues_scaleRev_orientDef_270.png","sad","1","15","15","Blues","orientDef","scaleRev","270","",""
"","","","","","html-slider-response","82","268102","0.0-72.0","mlnkb1dw4u","36","NaN","<div style=""width:500px;"">
                            <p style=""font-size:50px; font-weight:bold;""
                            >sad</p>
                            <div style=""width:240px; margin: auto;"">
                                <img src=""images/map02_PRGn_scaleDef_orientMir_000.png"" style= ""width:200px""alt=""img"">
                            </div>
                        </div>","-173","","0","","","","images/map02_PRGn_scaleDef_orientMir_000.png","sad","1","02","02","PRGn","orientMir","scaleDef","000","",""
"","","","","","html-slider-response","83","272186","0.0-73.0","mlnkb1dw4u","36","NaN","<div style=""width:500px;"">
                            <p style=""font-size:50px; font-weight:bold;""
                            >sad</p>
                            <div style=""width:240px; margin: auto;"">
                                <img src=""images/map07_RdYlGn_scaleRev_orientDef_090.png"" style= ""width:200px""alt=""img"">
                            </div>
                        </div>","-161","","0","","","","images/map07_RdYlGn_scaleRev_orientDef_090.png","sad","1","07","07","RdYlGn","orientDef","scaleRev","090","",""
"","","","","","html-slider-response","84","274112","0.0-74.0","mlnkb1dw4u","36","NaN","<div style=""width:500px;"">
                            <p style=""font-size:50px; font-weight:bold;""
                            >sad</p>
                            <div style=""width:240px; margin: auto;"">
                                <img src=""images/map07_Spectral_scaleDef_orientDef_180.png"" style= ""width:200px""alt=""img"">
                            </div>
                        </div>","31","","0","","","","images/map07_Spectral_scaleDef_orientDef_180.png","sad","1","07","07","Spectral","orientDef","scaleDef","180","",""
"","","","","","html-slider-response","85","278712","0.0-75.0","mlnkb1dw4u","36","NaN","<div style=""width:500px;"">
                            <p style=""font-size:50px; font-weight:bold;""
                            >sad</p>
                            <div style=""width:240px; margin: auto;"">
                                <img src=""images/map13_inferno_scaleRev_orientDef_090.png"" style= ""width:200px""alt=""img"">
                            </div>
                        </div>","-32","","0","","","","images/map13_inferno_scaleRev_orientDef_090.png","sad","1","13","13","inferno","orientDef","scaleRev","090","",""
"","","","","","html-slider-response","86","280602","0.0-76.0","mlnkb1dw4u","36","NaN","<div style=""width:500px;"">
                            <p style=""font-size:50px; font-weight:bold;""
                            >sad</p>
                            <div style=""width:240px; margin: auto;"">
                                <img src=""images/map15_Purples_scaleDef_orientDef_000.png"" style= ""width:200px""alt=""img"">
                            </div>
                        </div>","30","","0","","","","images/map15_Purples_scaleDef_orientDef_000.png","sad","1","15","15","Purples","orientDef","scaleDef","000","",""
"","","","","","html-slider-response","87","283206","0.0-77.0","mlnkb1dw4u","36","NaN","<div style=""width:500px;"">
                            <p style=""font-size:50px; font-weight:bold;""
                            >sad</p>
                            <div style=""width:240px; margin: auto;"">
                                <img src=""images/map10_vanimo_scaleDef_orientMir_180.png"" style= ""width:200px""alt=""img"">
                            </div>
                        </div>","-72","","0","","","","images/map10_vanimo_scaleDef_orientMir_180.png","sad","1","10","10","vanimo","orientMir","scaleDef","180","",""
"","","","","","html-slider-response","88","284627","0.0-78.0","mlnkb1dw4u","36","NaN","<div style=""width:500px;"">
                            <p style=""font-size:50px; font-weight:bold;""
                            >sad</p>
                            <div style=""width:240px; margin: auto;"">
                                <img src=""images/map05_RdYlBu_scaleDef_orientMir_180.png"" style= ""width:200px""alt=""img"">
                            </div>
                        </div>","25","","0","","","","images/map05_RdYlBu_scaleDef_orientMir_180.png","sad","1","05","05","RdYlBu","orientMir","scaleDef","180","",""
"","","","","","html-slider-response","89","287073","0.0-79.0","mlnkb1dw4u","36","NaN","<div style=""width:500px;"">
                            <p style=""font-size:50px; font-weight:bold;""
                            >sad</p>
                            <div style=""width:240px; margin: auto;"">
                                <img src=""images/map13_magma_scaleDef_orientDef_180.png"" style= ""width:200px""alt=""img"">
                            </div>
                        </div>","-81","","0","","","","images/map13_magma_scaleDef_orientDef_180.png","sad","1","13","13","magma","orientDef","scaleDef","180","",""
"","","","","","html-slider-response","90","289014","0.0-80.0","mlnkb1dw4u","36","NaN","<div style=""width:500px;"">
                            <p style=""font-size:50px; font-weight:bold;""
                            >sad</p>
                            <div style=""width:240px; margin: auto;"">
                                <img src=""images/map05_PuOr_scaleDef_orientDef_000.png"" style= ""width:200px""alt=""img"">
                            </div>
                        </div>","30","","0","","","","images/map05_PuOr_scaleDef_orientDef_000.png","sad","1","05","05","PuOr","orientDef","scaleDef","000","",""
"","","","","","html-slider-response","91","291138","0.0-81.0","mlnkb1dw4u","36","NaN","<div style=""width:500px;"">
                            <p style=""font-size:50px; font-weight:bold;""
                            >sad</p>
                            <div style=""width:240px; margin: auto;"">
                                <img src=""images/map26_BuPu_scaleRev_orientMir_090.png"" style= ""width:200px""alt=""img"">
                            </div>
                        </div>","44","","0","","","","images/map26_BuPu_scaleRev_orientMir_090.png","sad","1","26","26","BuPu","orientMir","scaleRev","090","",""
"","","","","","html-slider-response","92","293377","0.0-82.0","mlnkb1dw4u","36","NaN","<div style=""width:500px;"">
                            <p style=""font-size:50px; font-weight:bold;""
                            >sad</p>
                            <div style=""width:240px; margin: auto;"">
                                <img src=""images/map05_RdYlBu_scaleRev_orientMir_270.png"" style= ""width:200px""alt=""img"">
                            </div>
                        </div>","-75","","0","","","","images/map05_RdYlBu_scaleRev_orientMir_270.png","sad","1","05","05","RdYlBu","orientMir","scaleRev","270","",""
"","","","","","html-slider-response","93","298978","0.0-83.0","mlnkb1dw4u","36","NaN","<div style=""width:500px;"">
                            <p style=""font-size:50px; font-weight:bold;""
                            >sad</p>
                            <div style=""width:240px; margin: auto;"">
                                <img src=""images/map23_OrRd_scaleDef_orientMir_180.png"" style= ""width:200px""alt=""img"">
                            </div>
                        </div>","29","","0","","","","images/map23_OrRd_scaleDef_orientMir_180.png","sad","1","23","23","OrRd","orientMir","scaleDef","180","",""
"","","","","","html-slider-response","94","302010","0.0-84.0","mlnkb1dw4u","36","NaN","<div style=""width:500px;"">
                            <p style=""font-size:50px; font-weight:bold;""
                            >sad</p>
                            <div style=""width:240px; margin: auto;"">
                                <img src=""images/map13_inferno_scaleDef_orientDef_000.png"" style= ""width:200px""alt=""img"">
                            </div>
                        </div>","-48","","0","","","","images/map13_inferno_scaleDef_orientDef_000.png","sad","1","13","13","inferno","orientDef","scaleDef","000","",""
"","","","","","html-slider-response","95","303827","0.0-85.0","mlnkb1dw4u","36","NaN","<div style=""width:500px;"">
                            <p style=""font-size:50px; font-weight:bold;""
                            >sad</p>
                            <div style=""width:240px; margin: auto;"">
                                <img src=""images/map23_YlOrRd_scaleDef_orientMir_000.png"" style= ""width:200px""alt=""img"">
                            </div>
                        </div>","-54","","0","","","","images/map23_YlOrRd_scaleDef_orientMir_000.png","sad","1","23","23","YlOrRd","orientMir","scaleDef","000","",""
"","","","","","html-slider-response","96","305111","0.0-86.0","mlnkb1dw4u","36","NaN","<div style=""width:500px;"">
                            <p style=""font-size:50px; font-weight:bold;""
                            >sad</p>
                            <div style=""width:240px; margin: auto;"">
                                <img src=""images/map13_magma_scaleRev_orientDef_270.png"" style= ""width:200px""alt=""img"">
                            </div>
                        </div>","-91","","0","","","","images/map13_magma_scaleRev_orientDef_270.png","sad","1","13","13","magma","orientDef","scaleRev","270","",""
"","","","","","html-slider-response","97","306867","0.0-87.0","mlnkb1dw4u","36","NaN","<div style=""width:500px;"">
                            <p style=""font-size:50px; font-weight:bold;""
                            >sad</p>
                            <div style=""width:240px; margin: auto;"">
                                <img src=""images/map27_YlGnBu_scaleRev_orientDef_270.png"" style= ""width:200px""alt=""img"">
                            </div>
                        </div>","189","","0","","","","images/map27_YlGnBu_scaleRev_orientDef_270.png","sad","1","27","27","YlGnBu","orientDef","scaleRev","270","",""
"","","","","","html-slider-response","98","311231","0.0-88.0","mlnkb1dw4u","36","NaN","<div style=""width:500px;"">
                            <p style=""font-size:50px; font-weight:bold;""
                            >sad</p>
                            <div style=""width:240px; margin: auto;"">
                                <img src=""images/map02_PiYG_scaleDef_orientDef_180.png"" style= ""width:200px""alt=""img"">
                            </div>
                        </div>","-70","","0","","","","images/map02_PiYG_scaleDef_orientDef_180.png","sad","1","02","02","PiYG","orientDef","scaleDef","180","",""
"","","","","","html-slider-response","99","314580","0.0-89.0","mlnkb1dw4u","36","NaN","<div style=""width:500px;"">
                            <p style=""font-size:50px; font-weight:bold;""
                            >sad</p>
                            <div style=""width:240px; margin: auto;"">
                                <img src=""images/map12_turbo_scaleDef_orientDef_180.png"" style= ""width:200px""alt=""img"">
                            </div>
                        </div>","-200","","0","","","","images/map12_turbo_scaleDef_orientDef_180.png","sad","1","12","12","turbo","orientDef","scaleDef","180","",""
"","","","","","html-slider-response","100","316072","0.0-90.0","mlnkb1dw4u","36","NaN","<div style=""width:500px;"">
                            <p style=""font-size:50px; font-weight:bold;""
                            >sad</p>
                            <div style=""width:240px; margin: auto;"">
                                <img src=""images/map15_Greens_scaleDef_orientMir_000.png"" style= ""width:200px""alt=""img"">
                            </div>
                        </div>","-200","","0","","","","images/map15_Greens_scaleDef_orientMir_000.png","sad","1","15","15","Greens","orientMir","scaleDef","000","",""
"","","","","","html-slider-response","101","317848","0.0-91.0","mlnkb1dw4u","36","NaN","<div style=""width:500px;"">
                            <p style=""font-size:50px; font-weight:bold;""
                            >sad</p>
                            <div style=""width:240px; margin: auto;"">
                                <img src=""images/map26_BuPu_scaleDef_orientMir_000.png"" style= ""width:200px""alt=""img"">
                            </div>
                        </div>","90","","0","","","","images/map26_BuPu_scaleDef_orientMir_000.png","sad","1","26","26","BuPu","orientMir","scaleDef","000","",""
"","","","","","html-slider-response","102","319504","0.0-92.0","mlnkb1dw4u","36","NaN","<div style=""width:500px;"">
                            <p style=""font-size:50px; font-weight:bold;""
                            >sad</p>
                            <div style=""width:240px; margin: auto;"">
                                <img src=""images/map13_Greys_scaleDef_orientMir_180.png"" style= ""width:200px""alt=""img"">
                            </div>
                        </div>","200","","0","","","","images/map13_Greys_scaleDef_orientMir_180.png","sad","1","13","13","Greys","orientMir","scaleDef","180","",""
"","","","","","html-slider-response","103","322086","0.0-93.0","mlnkb1dw4u","36","NaN","<div style=""width:500px;"">
                            <p style=""font-size:50px; font-weight:bold;""
                            >sad</p>
                            <div style=""width:240px; margin: auto;"">
                                <img src=""images/map23_OrRd_scaleRev_orientMir_270.png"" style= ""width:200px""alt=""img"">
                            </div>
                        </div>","-37","","0","","","","images/map23_OrRd_scaleRev_orientMir_270.png","sad","1","23","23","OrRd","orientMir","scaleRev","270","",""
"","","","","","html-slider-response","104","324708","0.0-94.0","mlnkb1dw4u","36","NaN","<div style=""width:500px;"">
                            <p style=""font-size:50px; font-weight:bold;""
                            >sad</p>
                            <div style=""width:240px; margin: auto;"">
                                <img src=""images/map07_coolwarm_scaleRev_orientMir_090.png"" style= ""width:200px""alt=""img"">
                            </div>
                        </div>","26","","0","","","","images/map07_coolwarm_scaleRev_orientMir_090.png","sad","1","07","07","coolwarm","orientMir","scaleRev","090","",""
"","","","","","html-button-response","105","326299","0.0-95.0","mlnkb1dw4u","36","1084","<p>Great Job! You've finished block 1.<br></br> You have 4 block(s) left to go.<br></br></p>","0","","","","","","","","","","","","","","","",""
"","","","","","html-button-response","106","327220","0.0-96.0","mlnkb1dw4u","36","920","<p>In this block of trials, you will be asked to rate how much you associate each map with:</p > <p style = 'font-size:150%; font-weight: bold'>angry</p><br></br>","0","","","","","","","","","","","","","","","",""
"","","","","","html-slider-response","107","360811","0.0-97.0","mlnkb1dw4u","36","NaN","<div style=""width:500px;"">
                            <p style=""font-size:50px; font-weight:bold;""
                            >angry</p>
                            <div style=""width:240px; margin: auto;"">
                                <img src=""images/map26_PuRd_scaleDef_orientDef_000.png"" style= ""width:200px""alt=""img"">
                            </div>
                        </div>","-34","","0","","","","images/map26_PuRd_scaleDef_orientDef_000.png","angry","1","26","26","PuRd","orientDef","scaleDef","000","",""
"","","","","","html-slider-response","108","362798","0.0-98.0","mlnkb1dw4u","36","NaN","<div style=""width:500px;"">
                            <p style=""font-size:50px; font-weight:bold;""
                            >angry</p>
                            <div style=""width:240px; margin: auto;"">
                                <img src=""images/map27_BuGn_scaleDef_orientMir_180.png"" style= ""width:200px""alt=""img"">
                            </div>
                        </div>","-192","","0","","","","images/map27_BuGn_scaleDef_orientMir_180.png","angry","1","27","27","BuGn","orientMir","scaleDef","180","",""
"","","","","","html-slider-response","109","364563","0.0-99.0","mlnkb1dw4u","36","NaN","<div style=""width:500px;"">
                            <p style=""font-size:50px; font-weight:bold;""
                            >angry</p>
                            <div style=""width:240px; margin: auto;"">
                                <img src=""images/map23_YlOrRd_scaleDef_orientMir_000.png"" style= ""width:200px""alt=""img"">
                            </div>
                        </div>","106","","0","","","","images/map23_YlOrRd_scaleDef_orientMir_000.png","angry","1","23","23","YlOrRd","orientMir","scaleDef","000","",""
"","","","","","html-slider-response","110","367266","0.0-100.0","mlnkb1dw4u","36","NaN","<div style=""width:500px;"">
                            <p style=""font-size:50px; font-weight:bold;""
                            >angry</p>
                            <div style=""width:240px; margin: auto;"">
                                <img src=""images/map05_RdBu_scaleRev_orientMir_090.png"" style= ""width:200px""alt=""img"">
                            </div>
                        </div>","38","","0","","","","images/map05_RdBu_scaleRev_orientMir_090.png","angry","1","05","05","RdBu","orientMir","scaleRev","090","",""
"","","","","","html-slider-response","111","369545","0.0-101.0","mlnkb1dw4u","36","NaN","<div style=""width:500px;"">
                            <p style=""font-size:50px; font-weight:bold;""
                            >angry</p>
                            <div style=""width:240px; margin: auto;"">
                                <img src=""images/map27_PuBu_scaleRev_orientDef_090.png"" style= ""width:200px""alt=""img"">
                            </div>
                        </div>","-34","","0","","","","images/map27_PuBu_scaleRev_orientDef_090.png","angry","1","27","27","PuBu","orientDef","scaleRev","090","",""
"","","","","","html-slider-response","112","372028","0.0-102.0","mlnkb1dw4u","36","NaN","<div style=""width:500px;"">
                            <p style=""font-size:50px; font-weight:bold;""
                            >angry</p>
                            <div style=""width:240px; margin: auto;"">
                                <img src=""images/map05_PuOr_scaleDef_orientDef_000.png"" style= ""width:200px""alt=""img"">
                            </div>
                        </div>","-42","","0","","","","images/map05_PuOr_scaleDef_orientDef_000.png","angry","1","05","05","PuOr","orientDef","scaleDef","000","",""
"","","","","","html-slider-response","113","373548","0.0-103.0","mlnkb1dw4u","36","NaN","<div style=""width:500px;"">
                            <p style=""font-size:50px; font-weight:bold;""
                            >angry</p>
                            <div style=""width:240px; margin: auto;"">
                                <img src=""images/map02_PRGn_scaleRev_orientMir_090.png"" style= ""width:200px""alt=""img"">
                            </div>
                        </div>","-46","","0","","","","images/map02_PRGn_scaleRev_orientMir_090.png","angry","1","02","02","PRGn","orientMir","scaleRev","090","",""
"","","","","","html-slider-response","114","375577","0.0-104.0","mlnkb1dw4u","36","NaN","<div style=""width:500px;"">
                            <p style=""font-size:50px; font-weight:bold;""
                            >angry</p>
                            <div style=""width:240px; margin: auto;"">
                                <img src=""images/map05_RdGy_scaleRev_orientDef_270.png"" style= ""width:200px""alt=""img"">
                            </div>
                        </div>","29","","0","","","","images/map05_RdGy_scaleRev_orientDef_270.png","angry","1","05","05","RdGy","orientDef","scaleRev","270","",""
"","","","","","html-slider-response","115","377035","0.0-105.0","mlnkb1dw4u","36","NaN","<div style=""width:500px;"">
                            <p style=""font-size:50px; font-weight:bold;""
                            >angry</p>
                            <div style=""width:240px; margin: auto;"">
                                <img src=""images/map13_magma_scaleRev_orientDef_270.png"" style= ""width:200px""alt=""img"">
                            </div>
                        </div>","69","","0","","","","images/map13_magma_scaleRev_orientDef_270.png","angry","1","13","13","magma","orientDef","scaleRev","270","",""
"","","","","","html-slider-response","116","378798","0.0-106.0","mlnkb1dw4u","36","NaN","<div style=""width:500px;"">
                            <p style=""font-size:50px; font-weight:bold;""
                            >angry</p>
                            <div style=""width:240px; margin: auto;"">
                                <img src=""images/map02_YlGn_scaleRev_orientDef_090.png"" style= ""width:200px""alt=""img"">
                            </div>
                        </div>","-135","","0","","","","images/map02_YlGn_scaleRev_orientDef_090.png","angry","1","02","02","YlGn","orientDef","scaleRev","090","",""
"","","","","","html-slider-response","117","380097","0.0-107.0","mlnkb1dw4u","36","NaN","<div style=""width:500px;"">
                            <p style=""font-size:50px; font-weight:bold;""
                            >angry</p>
                            <div style=""width:240px; margin: auto;"">
                                <img src=""images/map02_PiYG_scaleRev_orientDef_270.png"" style= ""width:200px""alt=""img"">
                            </div>
                        </div>","-103","","0","","","","images/map02_PiYG_scaleRev_orientDef_270.png","angry","1","02","02","PiYG","orientDef","scaleRev","270","",""
"","","","","","html-slider-response","118","383084","0.0-108.0","mlnkb1dw4u","36","NaN","<div style=""width:500px;"">
                            <p style=""font-size:50px; font-weight:bold;""
                            >angry</p>
                            <div style=""width:240px; margin: auto;"">
                                <img src=""images/map15_Oranges_scaleDef_orientMir_180.png"" style= ""width:200px""alt=""img"">
                            </div>
                        </div>","47","","0","","","","images/map15_Oranges_scaleDef_orientMir_180.png","angry","1","15","15","Oranges","orientMir","scaleDef","180","",""
"","","","","","html-slider-response","119","384789","0.0-109.0","mlnkb1dw4u","36","NaN","<div style=""width:500px;"">
                            <p style=""font-size:50px; font-weight:bold;""
                            >angry</p>
                            <div style=""width:240px; margin: auto;"">
                                <img src=""images/map02_PiYG_scaleDef_orientDef_180.png"" style= ""width:200px""alt=""img"">
                            </div>
                        </div>","-34","","0","","","","images/map02_PiYG_scaleDef_orientDef_180.png","angry","1","02","02","PiYG","orientDef","scaleDef","180","",""
"","","","","","html-slider-response","120","388315","0.0-110.0","mlnkb1dw4u","36","NaN","<div style=""width:500px;"">
                            <p style=""font-size:50px; font-weight:bold;""
                            >angry</p>
                            <div style=""width:240px; margin: auto;"">
                                <img src=""images/map13_Greys_scaleDef_orientMir_180.png"" style= ""width:200px""alt=""img"">
                            </div>
                        </div>","-200","","0","","","","images/map13_Greys_scaleDef_orientMir_180.png","angry","1","13","13","Greys","orientMir","scaleDef","180","",""
"","","","","","html-slider-response","121","389827","0.0-111.0","mlnkb1dw4u","36","NaN","<div style=""width:500px;"">
                            <p style=""font-size:50px; font-weight:bold;""
                            >angry</p>
                            <div style=""width:240px; margin: auto;"">
                                <img src=""images/map13_Greys_scaleRev_orientMir_270.png"" style= ""width:200px""alt=""img"">
                            </div>
                        </div>","-200","","0","","","","images/map13_Greys_scaleRev_orientMir_270.png","angry","1","13","13","Greys","orientMir","scaleRev","270","",""
"","","","","","html-slider-response","122","392342","0.0-112.0","mlnkb1dw4u","36","NaN","<div style=""width:500px;"">
                            <p style=""font-size:50px; font-weight:bold;""
                            >angry</p>
                            <div style=""width:240px; margin: auto;"">
                                <img src=""images/map02_BrBG_scaleDef_orientMir_180.png"" style= ""width:200px""alt=""img"">
                            </div>
                        </div>","-36","","0","","","","images/map02_BrBG_scaleDef_orientMir_180.png","angry","1","02","02","BrBG","orientMir","scaleDef","180","",""
"","","","","","html-slider-response","123","393740","0.0-113.0","mlnkb1dw4u","36","NaN","<div style=""width:500px;"">
                            <p style=""font-size:50px; font-weight:bold;""
                            >angry</p>
                            <div style=""width:240px; margin: auto;"">
                                <img src=""images/map12_plasma_scaleRev_orientMir_270.png"" style= ""width:200px""alt=""img"">
                            </div>
                        </div>","90","","0","","","","images/map12_plasma_scaleRev_orientMir_270.png","angry","1","12","12","plasma","orientMir","scaleRev","270","",""
"","","","","","html-slider-response","124","395446","0.0-114.0","mlnkb1dw4u","36","NaN","<div style=""width:500px;"">
                            <p style=""font-size:50px; font-weight:bold;""
                            >angry</p>
                            <div style=""width:240px; margin: auto;"">
                                <img src=""images/map07_coolwarm_scaleDef_orientMir_000.png"" style= ""width:200px""alt=""img"">
                            </div>
                        </div>","25","","0","","","","images/map07_coolwarm_scaleDef_orientMir_000.png","angry","1","07","07","coolwarm","orientMir","scaleDef","000","",""
"","","","","","html-slider-response","125","397315","0.0-115.0","mlnkb1dw4u","36","NaN","<div style=""width:500px;"">
                            <p style=""font-size:50px; font-weight:bold;""
                            >angry</p>
                            <div style=""width:240px; margin: auto;"">
                                <img src=""images/map10_seismic_scaleRev_orientDef_090.png"" style= ""width:200px""alt=""img"">
                            </div>
                        </div>","38","","0","","","","images/map10_seismic_scaleRev_orientDef_090.png","angry","1","10","10","seismic","orientDef","scaleRev","090","",""
"","","","","","html-slider-response","126","398883","0.0-116.0","mlnkb1dw4u","36","NaN","<div style=""width:500px;"">
                            <p style=""font-size:50px; font-weight:bold;""
                            >angry</p>
                            <div style=""width:240px; margin: auto;"">
                                <img src=""images/map12_viridis_scaleDef_orientMir_000.png"" style= ""width:200px""alt=""img"">
                            </div>
                        </div>","-200","","0","","","","images/map12_viridis_scaleDef_orientMir_000.png","angry","1","12","12","viridis","orientMir","scaleDef","000","",""
"","","","","","html-slider-response","127","400581","0.0-117.0","mlnkb1dw4u","36","NaN","<div style=""width:500px;"">
                            <p style=""font-size:50px; font-weight:bold;""
                            >angry</p>
                            <div style=""width:240px; margin: auto;"">
                                <img src=""images/map26_BuPu_scaleRev_orientMir_090.png"" style= ""width:200px""alt=""img"">
                            </div>
                        </div>","-27","","0","","","","images/map26_BuPu_scaleRev_orientMir_090.png","angry","1","26","26","BuPu","orientMir","scaleRev","090","",""
"","","","","","html-slider-response","128","402029","0.0-118.0","mlnkb1dw4u","36","NaN","<div style=""width:500px;"">
                            <p style=""font-size:50px; font-weight:bold;""
                            >angry</p>
                            <div style=""width:240px; margin: auto;"">
                                <img src=""images/map05_RdYlBu_scaleDef_orientMir_180.png"" style= ""width:200px""alt=""img"">
                            </div>
                        </div>","53","","0","","","","images/map05_RdYlBu_scaleDef_orientMir_180.png","angry","1","05","05","RdYlBu","orientMir","scaleDef","180","",""
"","","","","","html-slider-response","129","403237","0.0-119.0","mlnkb1dw4u","36","NaN","<div style=""width:500px;"">
                            <p style=""font-size:50px; font-weight:bold;""
                            >angry</p>
                            <div style=""width:240px; margin: auto;"">
                                <img src=""images/map05_RdBu_scaleDef_orientMir_000.png"" style= ""width:200px""alt=""img"">
                            </div>
                        </div>","47","","0","","","","images/map05_RdBu_scaleDef_orientMir_000.png","angry","1","05","05","RdBu","orientMir","scaleDef","000","",""
"","","","","","html-slider-response","130","404850","0.0-120.0","mlnkb1dw4u","36","NaN","<div style=""width:500px;"">
                            <p style=""font-size:50px; font-weight:bold;""
                            >angry</p>
                            <div style=""width:240px; margin: auto;"">
                                <img src=""images/map13_magma_scaleDef_orientDef_180.png"" style= ""width:200px""alt=""img"">
                            </div>
                        </div>","165","","0","","","","images/map13_magma_scaleDef_orientDef_180.png","angry","1","13","13","magma","orientDef","scaleDef","180","",""
"","","","","","html-slider-response","131","406182","0.0-121.0","mlnkb1dw4u","36","NaN","<div style=""width:500px;"">
                            <p style=""font-size:50px; font-weight:bold;""
                            >angry</p>
                            <div style=""width:240px; margin: auto;"">
                                <img src=""images/map23_YlOrRd_scaleRev_orientMir_090.png"" style= ""width:200px""alt=""img"">
                            </div>
                        </div>","194","","0","","","","images/map23_YlOrRd_scaleRev_orientMir_090.png","angry","1","23","23","YlOrRd","orientMir","scaleRev","090","",""
"","","","","","html-slider-response","132","407458","0.0-122.0","mlnkb1dw4u","36","NaN","<div style=""width:500px;"">
                            <p style=""font-size:50px; font-weight:bold;""
                            >angry</p>
                            <div style=""width:240px; margin: auto;"">
                                <img src=""images/map27_BuGn_scaleRev_orientMir_270.png"" style= ""width:200px""alt=""img"">
                            </div>
                        </div>","-158","","0","","","","images/map27_BuGn_scaleRev_orientMir_270.png","angry","1","27","27","BuGn","orientMir","scaleRev","270","",""
"","","","","","html-slider-response","133","409939","0.0-123.0","mlnkb1dw4u","36","NaN","<div style=""width:500px;"">
                            <p style=""font-size:50px; font-weight:bold;""
                            >angry</p>
                            <div style=""width:240px; margin: auto;"">
                                <img src=""images/map07_Spectral_scaleDef_orientDef_180.png"" style= ""width:200px""alt=""img"">
                            </div>
                        </div>","-38","","0","","","","images/map07_Spectral_scaleDef_orientDef_180.png","angry","1","07","07","Spectral","orientDef","scaleDef","180","",""
"","","","","","html-slider-response","134","411208","0.0-124.0","mlnkb1dw4u","36","NaN","<div style=""width:500px;"">
                            <p style=""font-size:50px; font-weight:bold;""
                            >angry</p>
                            <div style=""width:240px; margin: auto;"">
                                <img src=""images/map23_OrRd_scaleDef_orientMir_180.png"" style= ""width:200px""alt=""img"">
                            </div>
                        </div>","183","","0","","","","images/map23_OrRd_scaleDef_orientMir_180.png","angry","1","23","23","OrRd","orientMir","scaleDef","180","",""
"","","","","","html-slider-response","135","412768","0.0-125.0","mlnkb1dw4u","36","NaN","<div style=""width:500px;"">
                            <p style=""font-size:50px; font-weight:bold;""
                            >angry</p>
                            <div style=""width:240px; margin: auto;"">
                                <img src=""images/map02_PRGn_scaleDef_orientMir_000.png"" style= ""width:200px""alt=""img"">
                            </div>
                        </div>","-154","","0","","","","images/map02_PRGn_scaleDef_orientMir_000.png","angry","1","02","02","PRGn","orientMir","scaleDef","000","",""
"","","","","","html-slider-response","136","414398","0.0-126.0","mlnkb1dw4u","36","NaN","<div style=""width:500px;"">
                            <p style=""font-size:50px; font-weight:bold;""
                            >angry</p>
                            <div style=""width:240px; margin: auto;"">
                                <img src=""images/map13_cividis_scaleDef_orientMir_000.png"" style= ""width:200px""alt=""img"">
                            </div>
                        </div>","-172","","0","","","","images/map13_cividis_scaleDef_orientMir_000.png","angry","1","13","13","cividis","orientMir","scaleDef","000","",""
"","","","","","html-slider-response","137","415871","0.0-127.0","mlnkb1dw4u","36","NaN","<div style=""width:500px;"">
                            <p style=""font-size:50px; font-weight:bold;""
                            >angry</p>
                            <div style=""width:240px; margin: auto;"">
                                <img src=""images/map15_Greens_scaleRev_orientMir_090.png"" style= ""width:200px""alt=""img"">
                            </div>
                        </div>","-197","","0","","","","images/map15_Greens_scaleRev_orientMir_090.png","angry","1","15","15","Greens","orientMir","scaleRev","090","",""
"","","","","","html-slider-response","138","417364","0.0-128.0","mlnkb1dw4u","36","NaN","<div style=""width:500px;"">
                            <p style=""font-size:50px; font-weight:bold;""
                            >angry</p>
                            <div style=""width:240px; margin: auto;"">
                                <img src=""images/map13_inferno_scaleDef_orientDef_000.png"" style= ""width:200px""alt=""img"">
                            </div>
                        </div>","192","","0","","","","images/map13_inferno_scaleDef_orientDef_000.png","angry","1","13","13","inferno","orientDef","scaleDef","000","",""
"","","","","","html-slider-response","139","419380","0.0-129.0","mlnkb1dw4u","36","NaN","<div style=""width:500px;"">
                            <p style=""font-size:50px; font-weight:bold;""
                            >angry</p>
                            <div style=""width:240px; margin: auto;"">
                                <img src=""images/map26_PuRd_scaleRev_orientDef_090.png"" style= ""width:200px""alt=""img"">
                            </div>
                        </div>","-52","","0","","","","images/map26_PuRd_scaleRev_orientDef_090.png","angry","1","26","26","PuRd","orientDef","scaleRev","090","",""
"","","","","","html-slider-response","140","421485","0.0-130.0","mlnkb1dw4u","36","NaN","<div style=""width:500px;"">
                            <p style=""font-size:50px; font-weight:bold;""
                            >angry</p>
                            <div style=""width:240px; margin: auto;"">
                                <img src=""images/map02_YlGn_scaleDef_orientDef_000.png"" style= ""width:200px""alt=""img"">
                            </div>
                        </div>","-198","","0","","","","images/map02_YlGn_scaleDef_orientDef_000.png","angry","1","02","02","YlGn","orientDef","scaleDef","000","",""
"","","","","","html-slider-response","141","422709","0.0-131.0","mlnkb1dw4u","36","NaN","<div style=""width:500px;"">
                            <p style=""font-size:50px; font-weight:bold;""
                            >angry</p>
                            <div style=""width:240px; margin: auto;"">
                                <img src=""images/map12_gist_earth_scaleRev_orientDef_090.png"" style= ""width:200px""alt=""img"">
                            </div>
                        </div>","-197","","0","","","","images/map12_gist_earth_scaleRev_orientDef_090.png","angry","1","12","12","gist","scaleRev","earth","orientDef","",""
"","","","","","html-slider-response","142","424493","0.0-132.0","mlnkb1dw4u","36","NaN","<div style=""width:500px;"">
                            <p style=""font-size:50px; font-weight:bold;""
                            >angry</p>
                            <div style=""width:240px; margin: auto;"">
                                <img src=""images/map12_plasma_scaleDef_orientMir_180.png"" style= ""width:200px""alt=""img"">
                            </div>
                        </div>","194","","0","","","","images/map12_plasma_scaleDef_orientMir_180.png","angry","1","12","12","plasma","orientMir","scaleDef","180","",""
"","","","","","html-slider-response","143","426110","0.0-133.0","mlnkb1dw4u","36","NaN","<div style=""width:500px;"">
                            <p style=""font-size:50px; font-weight:bold;""
                            >angry</p>
                            <div style=""width:240px; margin: auto;"">
                                <img src=""images/map15_Purples_scaleDef_orientDef_000.png"" style= ""width:200px""alt=""img"">
                            </div>
                        </div>","-186","","0","","","","images/map15_Purples_scaleDef_orientDef_000.png","angry","1","15","15","Purples","orientDef","scaleDef","000","",""
"","","","","","html-slider-response","144","427656","0.0-134.0","mlnkb1dw4u","36","NaN","<div style=""width:500px;"">
                            <p style=""font-size:50px; font-weight:bold;""
                            >angry</p>
                            <div style=""width:240px; margin: auto;"">
                                <img src=""images/map07_bwr_scaleRev_orientMir_270.png"" style= ""width:200px""alt=""img"">
                            </div>
                        </div>","23","","0","","","","images/map07_bwr_scaleRev_orientMir_270.png","angry","1","07","07","bwr","orientMir","scaleRev","270","",""
"","","","","","html-slider-response","145","429932","0.0-135.0","mlnkb1dw4u","36","NaN","<div style=""width:500px;"">
                            <p style=""font-size:50px; font-weight:bold;""
                            >angry</p>
                            <div style=""width:240px; margin: auto;"">
                                <img src=""images/map05_RdYlBu_scaleRev_orientMir_270.png"" style= ""width:200px""alt=""img"">
                            </div>
                        </div>","25","","0","","","","images/map05_RdYlBu_scaleRev_orientMir_270.png","angry","1","05","05","RdYlBu","orientMir","scaleRev","270","",""
"","","","","","html-slider-response","146","432628","0.0-136.0","mlnkb1dw4u","36","NaN","<div style=""width:500px;"">
                            <p style=""font-size:50px; font-weight:bold;""
                            >angry</p>
                            <div style=""width:240px; margin: auto;"">
                                <img src=""images/map10_vanimo_scaleDef_orientMir_180.png"" style= ""width:200px""alt=""img"">
                            </div>
                        </div>","-198","","0","","","","images/map10_vanimo_scaleDef_orientMir_180.png","angry","1","10","10","vanimo","orientMir","scaleDef","180","",""
"","","","","","html-button-response","147","433921","0.0-137.0","mlnkb1dw4u","36","792","<p>You are doing great!<br></br> You are halway done with the current block. When you are ready to continue, click the 'Continue' button.</p>","0","","","","","","","","","","","","","","","",""
"","","","","","html-slider-response","148","435017","0.0-138.0","mlnkb1dw4u","36","NaN","<div style=""width:500px;"">
                            <p style=""font-size:50px; font-weight:bold;""
                            >angry</p>
                            <div style=""width:240px; margin: auto;"">
                                <img src=""images/map23_OrRd_scaleRev_orientMir_270.png"" style= ""width:200px""alt=""img"">
                            </div>
                        </div>","200","","0","","","","images/map23_OrRd_scaleRev_orientMir_270.png","angry","1","23","23","OrRd","orientMir","scaleRev","270","",""
"","","","","","html-slider-response","149","437105","0.0-139.0","mlnkb1dw4u","36","NaN","<div style=""width:500px;"">
                            <p style=""font-size:50px; font-weight:bold;""
                            >angry</p>
                            <div style=""width:240px; margin: auto;"">
                                <img src=""images/map07_Spectral_scaleRev_orientDef_270.png"" style= ""width:200px""alt=""img"">
                            </div>
                        </div>","47","","0","","","","images/map07_Spectral_scaleRev_orientDef_270.png","angry","1","07","07","Spectral","orientDef","scaleRev","270","",""
"","","","","","html-slider-response","150","438410","0.0-140.0","mlnkb1dw4u","36","NaN","<div style=""width:500px;"">
                            <p style=""font-size:50px; font-weight:bold;""
                            >angry</p>
                            <div style=""width:240px; margin: auto;"">
                                <img src=""images/map23_YlOrBr_scaleDef_orientDef_180.png"" style= ""width:200px""alt=""img"">
                            </div>
                        </div>","48","","0","","","","images/map23_YlOrBr_scaleDef_orientDef_180.png","angry","1","23","23","YlOrBr","orientDef","scaleDef","180","",""
"","","","","","html-slider-response","151","440197","0.0-141.0","mlnkb1dw4u","36","NaN","<div style=""width:500px;"">
                            <p style=""font-size:50px; font-weight:bold;""
                            >angry</p>
                            <div style=""width:240px; margin: auto;"">
                                <img src=""images/map15_Greens_scaleDef_orientMir_000.png"" style= ""width:200px""alt=""img"">
                            </div>
                        </div>","-200","","0","","","","images/map15_Greens_scaleDef_orientMir_000.png","angry","1","15","15","Greens","orientMir","scaleDef","000","",""
"","","","","","html-slider-response","152","442113","0.0-142.0","mlnkb1dw4u","36","NaN","<div style=""width:500px;"">
                            <p style=""font-size:50px; font-weight:bold;""
                            >angry</p>
                            <div style=""width:240px; margin: auto;"">
                                <img src=""images/map27_PuBuGn_scaleDef_orientMir_000.png"" style= ""width:200px""alt=""img"">
                            </div>
                        </div>","-200","","0","","","","images/map27_PuBuGn_scaleDef_orientMir_000.png","angry","1","27","27","PuBuGn","orientMir","scaleDef","000","",""
"","","","","","html-slider-response","153","444247","0.0-143.0","mlnkb1dw4u","36","NaN","<div style=""width:500px;"">
                            <p style=""font-size:50px; font-weight:bold;""
                            >angry</p>
                            <div style=""width:240px; margin: auto;"">
                                <img src=""images/map10_seismic_scaleDef_orientDef_000.png"" style= ""width:200px""alt=""img"">
                            </div>
                        </div>","33","","0","","","","images/map10_seismic_scaleDef_orientDef_000.png","angry","1","10","10","seismic","orientDef","scaleDef","000","",""
"","","","","","html-slider-response","154","446731","0.0-144.0","mlnkb1dw4u","36","NaN","<div style=""width:500px;"">
                            <p style=""font-size:50px; font-weight:bold;""
                            >angry</p>
                            <div style=""width:240px; margin: auto;"">
                                <img src=""images/map15_Oranges_scaleRev_orientMir_270.png"" style= ""width:200px""alt=""img"">
                            </div>
                        </div>","43","","0","","","","images/map15_Oranges_scaleRev_orientMir_270.png","angry","1","15","15","Oranges","orientMir","scaleRev","270","",""
"","","","","","html-slider-response","155","448540","0.0-145.0","mlnkb1dw4u","36","NaN","<div style=""width:500px;"">
                            <p style=""font-size:50px; font-weight:bold;""
                            >angry</p>
                            <div style=""width:240px; margin: auto;"">
                                <img src=""images/map27_YlGnBu_scaleDef_orientDef_180.png"" style= ""width:200px""alt=""img"">
                            </div>
                        </div>","-41","","0","","","","images/map27_YlGnBu_scaleDef_orientDef_180.png","angry","1","27","27","YlGnBu","orientDef","scaleDef","180","",""
"","","","","","html-slider-response","156","449756","0.0-146.0","mlnkb1dw4u","36","NaN","<div style=""width:500px;"">
                            <p style=""font-size:50px; font-weight:bold;""
                            >angry</p>
                            <div style=""width:240px; margin: auto;"">
                                <img src=""images/map26_BuPu_scaleDef_orientMir_000.png"" style= ""width:200px""alt=""img"">
                            </div>
                        </div>","-58","","0","","","","images/map26_BuPu_scaleDef_orientMir_000.png","angry","1","26","26","BuPu","orientMir","scaleDef","000","",""
"","","","","","html-slider-response","157","451540","0.0-147.0","mlnkb1dw4u","36","NaN","<div style=""width:500px;"">
                            <p style=""font-size:50px; font-weight:bold;""
                            >angry</p>
                            <div style=""width:240px; margin: auto;"">
                                <img src=""images/map07_RdYlGn_scaleDef_orientDef_000.png"" style= ""width:200px""alt=""img"">
                            </div>
                        </div>","-42","","0","","","","images/map07_RdYlGn_scaleDef_orientDef_000.png","angry","1","07","07","RdYlGn","orientDef","scaleDef","000","",""
"","","","","","html-slider-response","158","453035","0.0-148.0","mlnkb1dw4u","36","NaN","<div style=""width:500px;"">
                            <p style=""font-size:50px; font-weight:bold;""
                            >angry</p>
                            <div style=""width:240px; margin: auto;"">
                                <img src=""images/map26_RdPu_scaleDef_orientDef_180.png"" style= ""width:200px""alt=""img"">
                            </div>
                        </div>","51","","0","","","","images/map26_RdPu_scaleDef_orientDef_180.png","angry","1","26","26","RdPu","orientDef","scaleDef","180","",""
"","","","","","html-slider-response","159","454274","0.0-149.0","mlnkb1dw4u","36","NaN","<div style=""width:500px;"">
                            <p style=""font-size:50px; font-weight:bold;""
                            >angry</p>
                            <div style=""width:240px; margin: auto;"">
                                <img src=""images/map27_PuBu_scaleDef_orientDef_000.png"" style= ""width:200px""alt=""img"">
                            </div>
                        </div>","-174","","0","","","","images/map27_PuBu_scaleDef_orientDef_000.png","angry","1","27","27","PuBu","orientDef","scaleDef","000","",""
"","","","","","html-slider-response","160","455545","0.0-150.0","mlnkb1dw4u","36","NaN","<div style=""width:500px;"">
                            <p style=""font-size:50px; font-weight:bold;""
                            >angry</p>
                            <div style=""width:240px; margin: auto;"">
                                <img src=""images/map12_turbo_scaleRev_orientDef_270.png"" style= ""width:200px""alt=""img"">
                            </div>
                        </div>","-46","","0","","","","images/map12_turbo_scaleRev_orientDef_270.png","angry","1","12","12","turbo","orientDef","scaleRev","270","",""
"","","","","","html-slider-response","161","456792","0.0-151.0","mlnkb1dw4u","36","NaN","<div style=""width:500px;"">
                            <p style=""font-size:50px; font-weight:bold;""
                            >angry</p>
