"success","timeout","failed_images","failed_audio","failed_video","trial_type","trial_index","time_elapsed","internal_node_id","subject_id","condition_num","rt","stimulus","response","question_order","slider_start","practiceTrial","practiceTrialNum","correct","image_path","concept","repetition","map_id","map_num","scale_name","orientation_code","mapping_code","rotation_code","ishihara_plate","correct_response"
"true","false","[]","[]","[]","preload","0","498","0.0-0.0","n6hmfv4bf1","42","","","","","","","","","","","","","","","","","","",""
"","","","","","html-button-response","1","5409","0.0-1.0","n6hmfv4bf1","42","4909","Welcome to our experiment!<p>At the bottom of this screen, you will see a button that says ""Begin Experiment"".<br>Please only click that button when you are ready to complete the 30 minute experiment in one sitting.</p><p> Once you click that button, it will not be possible to restart the experiment.","0","","","","","","","","","","","","","","","",""
"true","","","","","fullscreen","2","8033","0.0-2.0","n6hmfv4bf1","42","1619","","","","","","","","","","","","","","","","","",""
"","","","","","survey-multi-select","3","16507","0.0-3.0","n6hmfv4bf1","42","8469","","{""Consent"":[""<strong>I consent</strong>""]}","[0]","","","","","","","","","","","","","","",""
"","","","","","html-button-response","4","17945","0.0-4.0","n6hmfv4bf1","42","1437","Welcome! <p> This experiment involves two parts: demographic information, followed by the experimental task.<p> It will take about 30 minutes to complete both parts.","0","","","","","","","","","","","","","","","",""
"","","","","","survey-text","5","29648","0.0-5.0","n6hmfv4bf1","42","11693","","{""Age"":""19"",""Gender"":""Female"",""Race/ethnicity"":""White"",""Languages"":""English, German""}","","","","","","","","","","","","","","","",""
"","","","","","html-slider-response","6","60806","0.0-6.0","n6hmfv4bf1","42","31154","<div style='text-align:left; font-size:20px; line-height:25px; width: 1000px;'>
                                During this experiment you will be asked to rate how much you associate maps with                    different concepts.<br> Below, you can see some examples of the maps you will be asked to rate. Above the maps
                    is the list of concepts.<br>You will be asked                    to rate how much you associate each map with each concept on a scale from 'not at all' to 'very much' like the
                    one below. <br><br>
                    Now, please look at the list of concepts and maps. For each concept, think about the map you associate 'very
                    much' with the concept.<br>                     When you see that map during the experiment, please rate it near the 'very much' endpoint of the
                    scale.<br>Now, please think about which map you associate 'not at all'                     with each concept. When you see that map during the experiment, please rate it near the 'not at all' endpoint
                    of the scale.<br>
                    Please use the full range of the scale. That is, if a map is somewhat associated with the concept, you would
                    click partway between the middle point and right side of the scale.                    You will be asked to rate each map for a given concept before moving on to the next concept.<br>Press the
                    'Continue' button for instructions on how to use the slider.                    <br>
                </div>

                <div style=""width: 500px; margin: 0 auto;"">
                    <!-- Centered text paragraphs -->
                    <div style=""text-align: center; width: 500px;"">
                        <p style=""font-size:25px; line-height:15px;"">
                            fearful&nbsp;&nbsp;&nbsp;&nbsp;
                            happy&nbsp;&nbsp;&nbsp;&nbsp;
                            sad&nbsp;&nbsp;&nbsp;&nbsp;
                            angry&nbsp;&nbsp;&nbsp;&nbsp;
                            disgust
                        </p>
                        <!-- <p style=""font-size:20px; line-height:15px;"">happy</p>
                        <p style=""font-size:20px;line-height:15px;"">sad</p>
                        <p style=""font-size:20px;line-height:15px;"">angry</p>
                        <p style=""font-size:20px;line-height:15px;"">disgust</p> -->
                    </div>
            

                    <!-- Grid section -->
                   <div style=""display: flex; justify-content: center; padding-top: 15px;"">
                    <div style=""display: grid; grid-template-columns: repeat(10, 55px); grid-gap: 5px; width: auto;"">
                        <img src=""images/map12_berlin_scaleDef_orientDef_000.png"" alt=""map"" style=""width: 100%;""><img src=""images/map07_RdYlBu_scaleDef_orientMir_000.png"" alt=""map"" style=""width: 100%;""><img src=""images/map10_coolwarm_scaleDef_orientDef_180.png"" alt=""map"" style=""width: 100%;""><img src=""images/map07_RdYlGn_scaleRev_orientMir_270.png"" alt=""map"" style=""width: 100%;""><img src=""images/map13_inferno_scaleDef_orientMir_180.png"" alt=""map"" style=""width: 100%;""><img src=""images/map15_Purples_scaleDef_orientMir_180.png"" alt=""map"" style=""width: 100%;""><img src=""images/map10_Spectral_scaleDef_orientDef_000.png"" alt=""map"" style=""width: 100%;""><img src=""images/map07_RdGy_scaleRev_orientDef_090.png"" alt=""map"" style=""width: 100%;""><img src=""images/map05_BrBG_scaleRev_orientMir_090.png"" alt=""map"" style=""width: 100%;""><img src=""images/map26_YlOrRd_scaleDef_orientDef_180.png"" alt=""map"" style=""width: 100%;""><img src=""images/map07_RdBu_scaleDef_orientDef_180.png"" alt=""map"" style=""width: 100%;""><img src=""images/map26_YlOrBr_scaleDef_orientDef_000.png"" alt=""map"" style=""width: 100%;""><img src=""images/map15_cividis_scaleDef_orientDef_180.png"" alt=""map"" style=""width: 100%;""><img src=""images/map12_gist_earth_scaleDef_orientMir_180.png"" alt=""map"" style=""width: 100%;""><img src=""images/map15_magma_scaleRev_orientDef_090.png"" alt=""map"" style=""width: 100%;""><img src=""images/map13_plasma_scaleDef_orientMir_000.png"" alt=""map"" style=""width: 100%;""><img src=""images/map15_Greys_scaleRev_orientMir_090.png"" alt=""map"" style=""width: 100%;""><img src=""images/map12_vanimo_scaleRev_orientMir_090.png"" alt=""map"" style=""width: 100%;""><img src=""images/map02_YlGn_scaleRev_orientMir_270.png"" alt=""map"" style=""width: 100%;""><img src=""images/map27_RdPu_scaleRev_orientDef_090.png"" alt=""map"" style=""width: 100%;""><img src=""images/map10_seismic_scaleRev_orientMir_270.png"" alt=""map"" style=""width: 100%;""><img src=""images/map26_OrRd_scaleDef_orientMir_000.png"" alt=""map"" style=""width: 100%;""><img src=""images/map23_Greens_scaleRev_orientDef_270.png"" alt=""map"" style=""width: 100%;""><img src=""images/map02_YlGnBu_scaleDef_orientDef_000.png"" alt=""map"" style=""width: 100%;""><img src=""images/map05_PuOr_scaleRev_orientMir_270.png"" alt=""map"" style=""width: 100%;""><img src=""images/map05_PiYG_scaleDef_orientDef_000.png"" alt=""map"" style=""width: 100%;""><img src=""images/map05_PRGn_scaleDef_orientDef_180.png"" alt=""map"" style=""width: 100%;""><img src=""images/map27_PuBu_scaleDef_orientMir_180.png"" alt=""map"" style=""width: 100%;""><img src=""images/map13_turbo_scaleRev_orientDef_090.png"" alt=""map"" style=""width: 100%;""><img src=""images/map23_Oranges_scaleRev_orientMir_090.png"" alt=""map"" style=""width: 100%;""><img src=""images/map13_viridis_scaleDef_orientDef_180.png"" alt=""map"" style=""width: 100%;""><img src=""images/map12_managua_scaleDef_orientDef_180.png"" alt=""map"" style=""width: 100%;""><img src=""images/map02_PuBuGn_scaleDef_orientDef_180.png"" alt=""map"" style=""width: 100%;""><img src=""images/map02_BuGn_scaleRev_orientMir_090.png"" alt=""map"" style=""width: 100%;""><img src=""images/map23_Reds_scaleRev_orientMir_270.png"" alt=""map"" style=""width: 100%;""><img src=""images/map27_BuPu_scaleRev_orientDef_270.png"" alt=""map"" style=""width: 100%;""><img src=""images/map23_Blues_scaleDef_orientDef_000.png"" alt=""map"" style=""width: 100%;""><img src=""images/map26_PuRd_scaleDef_orientMir_180.png"" alt=""map"" style=""width: 100%;""><img src=""images/map27_GnBu_scaleDef_orientMir_000.png"" alt=""map"" style=""width: 100%;""><img src=""images/map10_bwr_scaleDef_orientMir_000.png"" alt=""map"" style=""width: 100%;"">
                    </div>
                </div>

                    <!-- Clear floats -->
                    <div style=""clear: both;""></div>
                </div>
                            ","null","","0","true","","","","","","","","","","","","",""
"","","","","","html-button-response","7","63160","0.0-7.0","n6hmfv4bf1","42","2351","<div style=""width:800px;""><p style=""text-align:left"">To move the slider, click and drag your cursor to the location of the scale where you would like to make your rating and then let go. When you let go of the slider, your response will be recorded and the next trial will begin. <br>
                    We are interested in your initial impressions of each map for the given concept, so please go with your first intuition. <br>
                    Before you begin the experiment, there will be four training trials for you to practice using the scale. <br>
                     When you are ready to start the training trials, please click ""Continue"".</p><br></div>","0","","","","","","","","","","","","","","","",""
"","","","","","html-slider-response","8","65486","0.0-8.0-0.0","n6hmfv4bf1","42","NaN","<div style=""width:500px;"">
                                    <p style=""font-size:25px;"">Please move the slider all the way to the <br> right endpoint of the scale</p>

                                    </div>
                                </div>","200","","0","true","0","true","","","","","","","","","","",""
"","","","","","html-button-response","9","67039","0.0-8.0-1.0","n6hmfv4bf1","42","1048","<p align='center'><b>Good job!</b> Click on 'Continue' to proceed.</p>","0","","","","","","","","","","","","","","","",""
"","","","","","html-slider-response","10","68776","0.0-9.0-0.0","n6hmfv4bf1","42","NaN","<div style=""width:500px;"">
                                    <p style=""font-size:25px;"">Please move the slider all the way to the <br> left endpoint of the scale</p>

                                    </div>
                                </div>","-200","","0","true","1","true","","","","","","","","","","",""
"","","","","","html-button-response","11","70338","0.0-9.0-1.0","n6hmfv4bf1","42","1057","<p align='center'><b>Good job!</b> Click on 'Continue' to proceed.</p>","0","","","","","","","","","","","","","","","",""
"","","","","","html-slider-response","12","74517","0.0-10.0-0.0","n6hmfv4bf1","42","NaN","<div style=""width:500px;"">
                                    <p style=""font-size:25px;"">Please move the slider halfway between the center and right endpoint of the scale</p>

                                    </div>
                                </div>","114","","0","true","2","false","","","","","","","","","","",""
"","","","","","html-button-response","13","77797","0.0-10.0-1.0","n6hmfv4bf1","42","2778","<p align='center'><b>Not quite!</b> The slider was not placed near the instructed located. Click on 'Continue' to try again. </p>","0","","","","","","","","","","","","","","","",""
"","","","","","html-slider-response","14","82908","0.0-10.1-0.1","n6hmfv4bf1","42","NaN","<div style=""width:500px;"">
                                    <p style=""font-size:25px;"">Please move the slider halfway between the center and right endpoint of the scale</p>

                                    </div>
                                </div>","106","","0","true","2","true","","","","","","","","","","",""
"","","","","","html-button-response","15","84362","0.0-10.1-1.1","n6hmfv4bf1","42","950","<p align='center'><b>Good job!</b> Click on 'Continue' to proceed.</p>","0","","","","","","","","","","","","","","","",""
"","","","","","html-slider-response","16","86966","0.0-11.0-0.0","n6hmfv4bf1","42","NaN","<div style=""width:500px;"">
                                    <p style=""font-size:25px;"">Please move the slider halfway between the center and left endpoint of the scale</p>

                                    </div>
                                </div>","-97","","0","true","3","true","","","","","","","","","","",""
"","","","","","html-button-response","17","88505","0.0-11.0-1.0","n6hmfv4bf1","42","1030","<p align='center'><b>Good job!</b> Click on 'Continue' to proceed.</p>","0","","","","","","","","","","","","","","","",""
"","","","","","html-button-response","18","89496","0.0-12.0","n6hmfv4bf1","42","989","<p>Great job! You've completed the practice trials. Now you will begin the main task.</p>","0","","","","","","","","","","","","","","","",""
"","","","","","html-button-response","19","91989","0.0-13.0","n6hmfv4bf1","42","2491","<p>In this block of trials, you will be asked to rate how much you associate each map with:</p > <p style = 'font-size:150%; font-weight: bold'>fearful</p><br></br>","0","","","","","","","","","","","","","","","",""
"","","","","","html-slider-response","20","94773","0.0-14.0","n6hmfv4bf1","42","NaN","<div style=""width:500px;"">
                            <p style=""font-size:50px; font-weight:bold;""
                            >fearful</p>
                            <div style=""width:240px; margin: auto;"">
                                <img src=""images/map13_plasma_scaleDef_orientMir_000.png"" style= ""width:200px""alt=""img"">
                            </div>
                        </div>","-113","","0","","","","images/map13_plasma_scaleDef_orientMir_000.png","fearful","1","13","13","plasma","orientMir","scaleDef","000","",""
"","","","","","html-slider-response","21","97943","0.0-15.0","n6hmfv4bf1","42","NaN","<div style=""width:500px;"">
                            <p style=""font-size:50px; font-weight:bold;""
                            >fearful</p>
                            <div style=""width:240px; margin: auto;"">
                                <img src=""images/map05_BrBG_scaleRev_orientMir_090.png"" style= ""width:200px""alt=""img"">
                            </div>
                        </div>","-114","","0","","","","images/map05_BrBG_scaleRev_orientMir_090.png","fearful","1","05","05","BrBG","orientMir","scaleRev","090","",""
"","","","","","html-slider-response","22","103960","0.0-16.0","n6hmfv4bf1","42","NaN","<div style=""width:500px;"">
                            <p style=""font-size:50px; font-weight:bold;""
                            >fearful</p>
                            <div style=""width:240px; margin: auto;"">
                                <img src=""images/map07_RdBu_scaleDef_orientDef_180.png"" style= ""width:200px""alt=""img"">
                            </div>
                        </div>","114","","0","","","","images/map07_RdBu_scaleDef_orientDef_180.png","fearful","1","07","07","RdBu","orientDef","scaleDef","180","",""
"","","","","","html-slider-response","23","107261","0.0-17.0","n6hmfv4bf1","42","NaN","<div style=""width:500px;"">
                            <p style=""font-size:50px; font-weight:bold;""
                            >fearful</p>
                            <div style=""width:240px; margin: auto;"">
                                <img src=""images/map12_gist_earth_scaleDef_orientMir_180.png"" style= ""width:200px""alt=""img"">
                            </div>
                        </div>","200","","0","","","","images/map12_gist_earth_scaleDef_orientMir_180.png","fearful","1","12","12","gist","scaleDef","earth","orientMir","",""
"","","","","","html-slider-response","24","109994","0.0-18.0","n6hmfv4bf1","42","NaN","<div style=""width:500px;"">
                            <p style=""font-size:50px; font-weight:bold;""
                            >fearful</p>
                            <div style=""width:240px; margin: auto;"">
                                <img src=""images/map13_inferno_scaleRev_orientMir_270.png"" style= ""width:200px""alt=""img"">
                            </div>
                        </div>","-106","","0","","","","images/map13_inferno_scaleRev_orientMir_270.png","fearful","1","13","13","inferno","orientMir","scaleRev","270","",""
"","","","","","html-slider-response","25","113060","0.0-19.0","n6hmfv4bf1","42","NaN","<div style=""width:500px;"">
                            <p style=""font-size:50px; font-weight:bold;""
                            >fearful</p>
                            <div style=""width:240px; margin: auto;"">
                                <img src=""images/map05_BrBG_scaleDef_orientMir_000.png"" style= ""width:200px""alt=""img"">
                            </div>
                        </div>","-200","","0","","","","images/map05_BrBG_scaleDef_orientMir_000.png","fearful","1","05","05","BrBG","orientMir","scaleDef","000","",""
"","","","","","html-slider-response","26","115626","0.0-20.0","n6hmfv4bf1","42","NaN","<div style=""width:500px;"">
                            <p style=""font-size:50px; font-weight:bold;""
                            >fearful</p>
                            <div style=""width:240px; margin: auto;"">
                                <img src=""images/map02_BuGn_scaleRev_orientMir_090.png"" style= ""width:200px""alt=""img"">
                            </div>
                        </div>","104","","0","","","","images/map02_BuGn_scaleRev_orientMir_090.png","fearful","1","02","02","BuGn","orientMir","scaleRev","090","",""
"","","","","","html-slider-response","27","118042","0.0-21.0","n6hmfv4bf1","42","NaN","<div style=""width:500px;"">
                            <p style=""font-size:50px; font-weight:bold;""
                            >fearful</p>
                            <div style=""width:240px; margin: auto;"">
                                <img src=""images/map05_PRGn_scaleRev_orientDef_270.png"" style= ""width:200px""alt=""img"">
                            </div>
                        </div>","134","","0","","","","images/map05_PRGn_scaleRev_orientDef_270.png","fearful","1","05","05","PRGn","orientDef","scaleRev","270","",""
"","","","","","html-slider-response","28","120239","0.0-22.0","n6hmfv4bf1","42","NaN","<div style=""width:500px;"">
                            <p style=""font-size:50px; font-weight:bold;""
                            >fearful</p>
                            <div style=""width:240px; margin: auto;"">
                                <img src=""images/map10_seismic_scaleRev_orientMir_270.png"" style= ""width:200px""alt=""img"">
                            </div>
                        </div>","129","","0","","","","images/map10_seismic_scaleRev_orientMir_270.png","fearful","1","10","10","seismic","orientMir","scaleRev","270","",""
"","","","","","html-slider-response","29","122526","0.0-23.0","n6hmfv4bf1","42","NaN","<div style=""width:500px;"">
                            <p style=""font-size:50px; font-weight:bold;""
                            >fearful</p>
                            <div style=""width:240px; margin: auto;"">
                                <img src=""images/map15_cividis_scaleRev_orientDef_270.png"" style= ""width:200px""alt=""img"">
                            </div>
                        </div>","-101","","0","","","","images/map15_cividis_scaleRev_orientDef_270.png","fearful","1","15","15","cividis","orientDef","scaleRev","270","",""
"","","","","","html-slider-response","30","125554","0.0-24.0","n6hmfv4bf1","42","NaN","<div style=""width:500px;"">
                            <p style=""font-size:50px; font-weight:bold;""
                            >fearful</p>
                            <div style=""width:240px; margin: auto;"">
                                <img src=""images/map12_managua_scaleRev_orientDef_270.png"" style= ""width:200px""alt=""img"">
                            </div>
                        </div>","22","","0","","","","images/map12_managua_scaleRev_orientDef_270.png","fearful","1","12","12","managua","orientDef","scaleRev","270","",""
"","","","","","html-slider-response","31","129208","0.0-25.0","n6hmfv4bf1","42","NaN","<div style=""width:500px;"">
                            <p style=""font-size:50px; font-weight:bold;""
                            >fearful</p>
                            <div style=""width:240px; margin: auto;"">
                                <img src=""images/map23_Blues_scaleDef_orientDef_000.png"" style= ""width:200px""alt=""img"">
                            </div>
                        </div>","2","","0","","","","images/map23_Blues_scaleDef_orientDef_000.png","fearful","1","23","23","Blues","orientDef","scaleDef","000","",""
"","","","","","html-slider-response","32","133942","0.0-26.0","n6hmfv4bf1","42","NaN","<div style=""width:500px;"">
                            <p style=""font-size:50px; font-weight:bold;""
                            >fearful</p>
                            <div style=""width:240px; margin: auto;"">
                                <img src=""images/map07_RdGy_scaleDef_orientDef_000.png"" style= ""width:200px""alt=""img"">
                            </div>
                        </div>","-121","","0","","","","images/map07_RdGy_scaleDef_orientDef_000.png","fearful","1","07","07","RdGy","orientDef","scaleDef","000","",""
"","","","","","html-slider-response","33","136504","0.0-27.0","n6hmfv4bf1","42","NaN","<div style=""width:500px;"">
                            <p style=""font-size:50px; font-weight:bold;""
                            >fearful</p>
                            <div style=""width:240px; margin: auto;"">
                                <img src=""images/map07_RdGy_scaleRev_orientDef_090.png"" style= ""width:200px""alt=""img"">
                            </div>
                        </div>","-107","","0","","","","images/map07_RdGy_scaleRev_orientDef_090.png","fearful","1","07","07","RdGy","orientDef","scaleRev","090","",""
"","","","","","html-slider-response","34","138896","0.0-28.0","n6hmfv4bf1","42","NaN","<div style=""width:500px;"">
                            <p style=""font-size:50px; font-weight:bold;""
                            >fearful</p>
                            <div style=""width:240px; margin: auto;"">
                                <img src=""images/map23_Oranges_scaleRev_orientMir_090.png"" style= ""width:200px""alt=""img"">
                            </div>
                        </div>","-99","","0","","","","images/map23_Oranges_scaleRev_orientMir_090.png","fearful","1","23","23","Oranges","orientMir","scaleRev","090","",""
"","","","","","html-slider-response","35","142225","0.0-29.0","n6hmfv4bf1","42","NaN","<div style=""width:500px;"">
                            <p style=""font-size:50px; font-weight:bold;""
                            >fearful</p>
                            <div style=""width:240px; margin: auto;"">
                                <img src=""images/map07_RdYlBu_scaleDef_orientMir_000.png"" style= ""width:200px""alt=""img"">
                            </div>
                        </div>","-107","","0","","","","images/map07_RdYlBu_scaleDef_orientMir_000.png","fearful","1","07","07","RdYlBu","orientMir","scaleDef","000","",""
"","","","","","html-slider-response","36","144481","0.0-30.0","n6hmfv4bf1","42","NaN","<div style=""width:500px;"">
                            <p style=""font-size:50px; font-weight:bold;""
                            >fearful</p>
                            <div style=""width:240px; margin: auto;"">
                                <img src=""images/map13_turbo_scaleRev_orientDef_090.png"" style= ""width:200px""alt=""img"">
                            </div>
                        </div>","200","","0","","","","images/map13_turbo_scaleRev_orientDef_090.png","fearful","1","13","13","turbo","orientDef","scaleRev","090","",""
"","","","","","html-slider-response","37","146340","0.0-31.0","n6hmfv4bf1","42","NaN","<div style=""width:500px;"">
                            <p style=""font-size:50px; font-weight:bold;""
                            >fearful</p>
                            <div style=""width:240px; margin: auto;"">
                                <img src=""images/map13_turbo_scaleDef_orientDef_000.png"" style= ""width:200px""alt=""img"">
                            </div>
                        </div>","200","","0","","","","images/map13_turbo_scaleDef_orientDef_000.png","fearful","1","13","13","turbo","orientDef","scaleDef","000","",""
"","","","","","html-slider-response","38","148472","0.0-32.0","n6hmfv4bf1","42","NaN","<div style=""width:500px;"">
                            <p style=""font-size:50px; font-weight:bold;""
                            >fearful</p>
                            <div style=""width:240px; margin: auto;"">
                                <img src=""images/map13_inferno_scaleDef_orientMir_180.png"" style= ""width:200px""alt=""img"">
                            </div>
                        </div>","200","","0","","","","images/map13_inferno_scaleDef_orientMir_180.png","fearful","1","13","13","inferno","orientMir","scaleDef","180","",""
"","","","","","html-slider-response","39","150691","0.0-33.0","n6hmfv4bf1","42","NaN","<div style=""width:500px;"">
                            <p style=""font-size:50px; font-weight:bold;""
                            >fearful</p>
                            <div style=""width:240px; margin: auto;"">
                                <img src=""images/map05_PuOr_scaleRev_orientMir_270.png"" style= ""width:200px""alt=""img"">
                            </div>
                        </div>","114","","0","","","","images/map05_PuOr_scaleRev_orientMir_270.png","fearful","1","05","05","PuOr","orientMir","scaleRev","270","",""
"","","","","","html-slider-response","40","152890","0.0-34.0","n6hmfv4bf1","42","NaN","<div style=""width:500px;"">
                            <p style=""font-size:50px; font-weight:bold;""
                            >fearful</p>
                            <div style=""width:240px; margin: auto;"">
                                <img src=""images/map05_PuOr_scaleDef_orientMir_180.png"" style= ""width:200px""alt=""img"">
                            </div>
                        </div>","128","","0","","","","images/map05_PuOr_scaleDef_orientMir_180.png","fearful","1","05","05","PuOr","orientMir","scaleDef","180","",""
"","","","","","html-slider-response","41","154756","0.0-35.0","n6hmfv4bf1","42","NaN","<div style=""width:500px;"">
                            <p style=""font-size:50px; font-weight:bold;""
                            >fearful</p>
                            <div style=""width:240px; margin: auto;"">
                                <img src=""images/map12_vanimo_scaleDef_orientMir_000.png"" style= ""width:200px""alt=""img"">
                            </div>
                        </div>","200","","0","","","","images/map12_vanimo_scaleDef_orientMir_000.png","fearful","1","12","12","vanimo","orientMir","scaleDef","000","",""
"","","","","","html-slider-response","42","157238","0.0-36.0","n6hmfv4bf1","42","NaN","<div style=""width:500px;"">
                            <p style=""font-size:50px; font-weight:bold;""
                            >fearful</p>
                            <div style=""width:240px; margin: auto;"">
                                <img src=""images/map02_BuGn_scaleDef_orientMir_000.png"" style= ""width:200px""alt=""img"">
                            </div>
                        </div>","-116","","0","","","","images/map02_BuGn_scaleDef_orientMir_000.png","fearful","1","02","02","BuGn","orientMir","scaleDef","000","",""
"","","","","","html-slider-response","43","159626","0.0-37.0","n6hmfv4bf1","42","NaN","<div style=""width:500px;"">
                            <p style=""font-size:50px; font-weight:bold;""
                            >fearful</p>
                            <div style=""width:240px; margin: auto;"">
                                <img src=""images/map02_PuBuGn_scaleDef_orientDef_180.png"" style= ""width:200px""alt=""img"">
                            </div>
                        </div>","130","","0","","","","images/map02_PuBuGn_scaleDef_orientDef_180.png","fearful","1","02","02","PuBuGn","orientDef","scaleDef","180","",""
"","","","","","html-slider-response","44","161902","0.0-38.0","n6hmfv4bf1","42","NaN","<div style=""width:500px;"">
                            <p style=""font-size:50px; font-weight:bold;""
                            >fearful</p>
                            <div style=""width:240px; margin: auto;"">
                                <img src=""images/map07_RdYlBu_scaleRev_orientMir_090.png"" style= ""width:200px""alt=""img"">
                            </div>
                        </div>","122","","0","","","","images/map07_RdYlBu_scaleRev_orientMir_090.png","fearful","1","07","07","RdYlBu","orientMir","scaleRev","090","",""
"","","","","","html-slider-response","45","164421","0.0-39.0","n6hmfv4bf1","42","NaN","<div style=""width:500px;"">
                            <p style=""font-size:50px; font-weight:bold;""
                            >fearful</p>
                            <div style=""width:240px; margin: auto;"">
                                <img src=""images/map05_PRGn_scaleDef_orientDef_180.png"" style= ""width:200px""alt=""img"">
                            </div>
                        </div>","-119","","0","","","","images/map05_PRGn_scaleDef_orientDef_180.png","fearful","1","05","05","PRGn","orientDef","scaleDef","180","",""
"","","","","","html-slider-response","46","166992","0.0-40.0","n6hmfv4bf1","42","NaN","<div style=""width:500px;"">
                            <p style=""font-size:50px; font-weight:bold;""
                            >fearful</p>
                            <div style=""width:240px; margin: auto;"">
                                <img src=""images/map26_YlOrBr_scaleRev_orientDef_090.png"" style= ""width:200px""alt=""img"">
                            </div>
                        </div>","114","","0","","","","images/map26_YlOrBr_scaleRev_orientDef_090.png","fearful","1","26","26","YlOrBr","orientDef","scaleRev","090","",""
"","","","","","html-slider-response","47","168737","0.0-41.0","n6hmfv4bf1","42","NaN","<div style=""width:500px;"">
                            <p style=""font-size:50px; font-weight:bold;""
                            >fearful</p>
                            <div style=""width:240px; margin: auto;"">
                                <img src=""images/map15_magma_scaleDef_orientDef_000.png"" style= ""width:200px""alt=""img"">
                            </div>
                        </div>","130","","0","","","","images/map15_magma_scaleDef_orientDef_000.png","fearful","1","15","15","magma","orientDef","scaleDef","000","",""
"","","","","","html-slider-response","48","170783","0.0-42.0","n6hmfv4bf1","42","NaN","<div style=""width:500px;"">
                            <p style=""font-size:50px; font-weight:bold;""
                            >fearful</p>
                            <div style=""width:240px; margin: auto;"">
                                <img src=""images/map10_Spectral_scaleDef_orientDef_000.png"" style= ""width:200px""alt=""img"">
                            </div>
                        </div>","116","","0","","","","images/map10_Spectral_scaleDef_orientDef_000.png","fearful","1","10","10","Spectral","orientDef","scaleDef","000","",""
"","","","","","html-slider-response","49","172841","0.0-43.0","n6hmfv4bf1","42","NaN","<div style=""width:500px;"">
                            <p style=""font-size:50px; font-weight:bold;""
                            >fearful</p>
                            <div style=""width:240px; margin: auto;"">
                                <img src=""images/map10_coolwarm_scaleRev_orientDef_270.png"" style= ""width:200px""alt=""img"">
                            </div>
                        </div>","119","","0","","","","images/map10_coolwarm_scaleRev_orientDef_270.png","fearful","1","10","10","coolwarm","orientDef","scaleRev","270","",""
"","","","","","html-slider-response","50","174501","0.0-44.0","n6hmfv4bf1","42","NaN","<div style=""width:500px;"">
                            <p style=""font-size:50px; font-weight:bold;""
                            >fearful</p>
                            <div style=""width:240px; margin: auto;"">
                                <img src=""images/map07_RdYlGn_scaleRev_orientMir_270.png"" style= ""width:200px""alt=""img"">
                            </div>
                        </div>","4","","0","","","","images/map07_RdYlGn_scaleRev_orientMir_270.png","fearful","1","07","07","RdYlGn","orientMir","scaleRev","270","",""
"","","","","","html-slider-response","51","175732","0.0-45.0","n6hmfv4bf1","42","NaN","<div style=""width:500px;"">
                            <p style=""font-size:50px; font-weight:bold;""
                            >fearful</p>
                            <div style=""width:240px; margin: auto;"">
                                <img src=""images/map26_YlOrBr_scaleDef_orientDef_000.png"" style= ""width:200px""alt=""img"">
                            </div>
                        </div>","4","","0","","","","images/map26_YlOrBr_scaleDef_orientDef_000.png","fearful","1","26","26","YlOrBr","orientDef","scaleDef","000","",""
"","","","","","html-slider-response","52","177369","0.0-46.0","n6hmfv4bf1","42","NaN","<div style=""width:500px;"">
                            <p style=""font-size:50px; font-weight:bold;""
                            >fearful</p>
                            <div style=""width:240px; margin: auto;"">
                                <img src=""images/map23_Reds_scaleDef_orientMir_180.png"" style= ""width:200px""alt=""img"">
                            </div>
                        </div>","-1","","0","","","","images/map23_Reds_scaleDef_orientMir_180.png","fearful","1","23","23","Reds","orientMir","scaleDef","180","",""
"","","","","","html-slider-response","53","179354","0.0-47.0","n6hmfv4bf1","42","NaN","<div style=""width:500px;"">
                            <p style=""font-size:50px; font-weight:bold;""
                            >fearful</p>
                            <div style=""width:240px; margin: auto;"">
                                <img src=""images/map15_cividis_scaleDef_orientDef_180.png"" style= ""width:200px""alt=""img"">
                            </div>
                        </div>","-110","","0","","","","images/map15_cividis_scaleDef_orientDef_180.png","fearful","1","15","15","cividis","orientDef","scaleDef","180","",""
"","","","","","html-slider-response","54","181585","0.0-48.0","n6hmfv4bf1","42","NaN","<div style=""width:500px;"">
                            <p style=""font-size:50px; font-weight:bold;""
                            >fearful</p>
                            <div style=""width:240px; margin: auto;"">
                                <img src=""images/map10_Spectral_scaleRev_orientDef_090.png"" style= ""width:200px""alt=""img"">
                            </div>
                        </div>","-118","","0","","","","images/map10_Spectral_scaleRev_orientDef_090.png","fearful","1","10","10","Spectral","orientDef","scaleRev","090","",""
"","","","","","html-slider-response","55","182609","0.0-49.0","n6hmfv4bf1","42","NaN","<div style=""width:500px;"">
                            <p style=""font-size:50px; font-weight:bold;""
                            >fearful</p>
                            <div style=""width:240px; margin: auto;"">
                                <img src=""images/map12_berlin_scaleDef_orientDef_000.png"" style= ""width:200px""alt=""img"">
                            </div>
                        </div>","-98","","0","","","","images/map12_berlin_scaleDef_orientDef_000.png","fearful","1","12","12","berlin","orientDef","scaleDef","000","",""
"","","","","","html-slider-response","56","185793","0.0-50.0","n6hmfv4bf1","42","NaN","<div style=""width:500px;"">
                            <p style=""font-size:50px; font-weight:bold;""
                            >fearful</p>
                            <div style=""width:240px; margin: auto;"">
                                <img src=""images/map15_magma_scaleRev_orientDef_090.png"" style= ""width:200px""alt=""img"">
                            </div>
                        </div>","114","","0","","","","images/map15_magma_scaleRev_orientDef_090.png","fearful","1","15","15","magma","orientDef","scaleRev","090","",""
"","","","","","html-slider-response","57","186785","0.0-51.0","n6hmfv4bf1","42","NaN","<div style=""width:500px;"">
                            <p style=""font-size:50px; font-weight:bold;""
                            >fearful</p>
                            <div style=""width:240px; margin: auto;"">
                                <img src=""images/map05_PiYG_scaleRev_orientDef_090.png"" style= ""width:200px""alt=""img"">
                            </div>
                        </div>","114","","0","","","","images/map05_PiYG_scaleRev_orientDef_090.png","fearful","1","05","05","PiYG","orientDef","scaleRev","090","",""
"","","","","","html-slider-response","58","188019","0.0-52.0","n6hmfv4bf1","42","NaN","<div style=""width:500px;"">
                            <p style=""font-size:50px; font-weight:bold;""
                            >fearful</p>
                            <div style=""width:240px; margin: auto;"">
                                <img src=""images/map26_YlOrRd_scaleDef_orientDef_180.png"" style= ""width:200px""alt=""img"">
                            </div>
                        </div>","114","","0","","","","images/map26_YlOrRd_scaleDef_orientDef_180.png","fearful","1","26","26","YlOrRd","orientDef","scaleDef","180","",""
"","","","","","html-slider-response","59","189557","0.0-53.0","n6hmfv4bf1","42","NaN","<div style=""width:500px;"">
                            <p style=""font-size:50px; font-weight:bold;""
                            >fearful</p>
                            <div style=""width:240px; margin: auto;"">
                                <img src=""images/map26_OrRd_scaleDef_orientMir_000.png"" style= ""width:200px""alt=""img"">
                            </div>
                        </div>","114","","0","","","","images/map26_OrRd_scaleDef_orientMir_000.png","fearful","1","26","26","OrRd","orientMir","scaleDef","000","",""
"","","","","","html-button-response","60","191664","0.0-54.0","n6hmfv4bf1","42","1596","<p>You are doing great!<br></br> You are halway done with the current block. When you are ready to continue, click the 'Continue' button.</p>","0","","","","","","","","","","","","","","","",""
"","","","","","html-slider-response","61","194905","0.0-55.0","n6hmfv4bf1","42","NaN","<div style=""width:500px;"">
                            <p style=""font-size:50px; font-weight:bold;""
                            >fearful</p>
                            <div style=""width:240px; margin: auto;"">
                                <img src=""images/map10_seismic_scaleDef_orientMir_180.png"" style= ""width:200px""alt=""img"">
                            </div>
                        </div>","106","","0","","","","images/map10_seismic_scaleDef_orientMir_180.png","fearful","1","10","10","seismic","orientMir","scaleDef","180","",""
"","","","","","html-slider-response","62","196792","0.0-56.0","n6hmfv4bf1","42","NaN","<div style=""width:500px;"">
                            <p style=""font-size:50px; font-weight:bold;""
                            >fearful</p>
                            <div style=""width:240px; margin: auto;"">
                                <img src=""images/map13_viridis_scaleDef_orientDef_180.png"" style= ""width:200px""alt=""img"">
                            </div>
                        </div>","-109","","0","","","","images/map13_viridis_scaleDef_orientDef_180.png","fearful","1","13","13","viridis","orientDef","scaleDef","180","",""
"","","","","","html-slider-response","63","199325","0.0-57.0","n6hmfv4bf1","42","NaN","<div style=""width:500px;"">
                            <p style=""font-size:50px; font-weight:bold;""
                            >fearful</p>
                            <div style=""width:240px; margin: auto;"">
                                <img src=""images/map12_vanimo_scaleRev_orientMir_090.png"" style= ""width:200px""alt=""img"">
                            </div>
                        </div>","200","","0","","","","images/map12_vanimo_scaleRev_orientMir_090.png","fearful","1","12","12","vanimo","orientMir","scaleRev","090","",""
"","","","","","html-slider-response","64","201412","0.0-58.0","n6hmfv4bf1","42","NaN","<div style=""width:500px;"">
                            <p style=""font-size:50px; font-weight:bold;""
                            >fearful</p>
                            <div style=""width:240px; margin: auto;"">
                                <img src=""images/map27_RdPu_scaleRev_orientDef_090.png"" style= ""width:200px""alt=""img"">
                            </div>
                        </div>","200","","0","","","","images/map27_RdPu_scaleRev_orientDef_090.png","fearful","1","27","27","RdPu","orientDef","scaleRev","090","",""
"","","","","","html-slider-response","65","202690","0.0-59.0","n6hmfv4bf1","42","NaN","<div style=""width:500px;"">
                            <p style=""font-size:50px; font-weight:bold;""
                            >fearful</p>
                            <div style=""width:240px; margin: auto;"">
                                <img src=""images/map15_Greys_scaleRev_orientMir_090.png"" style= ""width:200px""alt=""img"">
                            </div>
                        </div>","200","","0","","","","images/map15_Greys_scaleRev_orientMir_090.png","fearful","1","15","15","Greys","orientMir","scaleRev","090","",""
"","","","","","html-slider-response","66","204940","0.0-60.0","n6hmfv4bf1","42","NaN","<div style=""width:500px;"">
                            <p style=""font-size:50px; font-weight:bold;""
                            >fearful</p>
                            <div style=""width:240px; margin: auto;"">
                                <img src=""images/map07_RdYlGn_scaleDef_orientMir_180.png"" style= ""width:200px""alt=""img"">
                            </div>
                        </div>","110","","0","","","","images/map07_RdYlGn_scaleDef_orientMir_180.png","fearful","1","07","07","RdYlGn","orientMir","scaleDef","180","",""
"","","","","","html-slider-response","67","206932","0.0-61.0","n6hmfv4bf1","42","NaN","<div style=""width:500px;"">
                            <p style=""font-size:50px; font-weight:bold;""
                            >fearful</p>
                            <div style=""width:240px; margin: auto;"">
                                <img src=""images/map12_managua_scaleDef_orientDef_180.png"" style= ""width:200px""alt=""img"">
                            </div>
                        </div>","-106","","0","","","","images/map12_managua_scaleDef_orientDef_180.png","fearful","1","12","12","managua","orientDef","scaleDef","180","",""
"","","","","","html-slider-response","68","208262","0.0-62.0","n6hmfv4bf1","42","NaN","<div style=""width:500px;"">
                            <p style=""font-size:50px; font-weight:bold;""
                            >fearful</p>
                            <div style=""width:240px; margin: auto;"">
                                <img src=""images/map13_plasma_scaleRev_orientMir_090.png"" style= ""width:200px""alt=""img"">
                            </div>
                        </div>","-106","","0","","","","images/map13_plasma_scaleRev_orientMir_090.png","fearful","1","13","13","plasma","orientMir","scaleRev","090","",""
"","","","","","html-slider-response","69","209489","0.0-63.0","n6hmfv4bf1","42","NaN","<div style=""width:500px;"">
                            <p style=""font-size:50px; font-weight:bold;""
                            >fearful</p>
                            <div style=""width:240px; margin: auto;"">
                                <img src=""images/map23_Greens_scaleRev_orientDef_270.png"" style= ""width:200px""alt=""img"">
                            </div>
                        </div>","-106","","0","","","","images/map23_Greens_scaleRev_orientDef_270.png","fearful","1","23","23","Greens","orientDef","scaleRev","270","",""
"","","","","","html-slider-response","70","211703","0.0-64.0","n6hmfv4bf1","42","NaN","<div style=""width:500px;"">
                            <p style=""font-size:50px; font-weight:bold;""
                            >fearful</p>
                            <div style=""width:240px; margin: auto;"">
                                <img src=""images/map26_PuRd_scaleDef_orientMir_180.png"" style= ""width:200px""alt=""img"">
                            </div>
                        </div>","108","","0","","","","images/map26_PuRd_scaleDef_orientMir_180.png","fearful","1","26","26","PuRd","orientMir","scaleDef","180","",""
"","","","","","html-slider-response","71","213201","0.0-65.0","n6hmfv4bf1","42","NaN","<div style=""width:500px;"">
                            <p style=""font-size:50px; font-weight:bold;""
                            >fearful</p>
                            <div style=""width:240px; margin: auto;"">
                                <img src=""images/map12_gist_earth_scaleRev_orientMir_270.png"" style= ""width:200px""alt=""img"">
                            </div>
                        </div>","104","","0","","","","images/map12_gist_earth_scaleRev_orientMir_270.png","fearful","1","12","12","gist","scaleRev","earth","orientMir","",""
"","","","","","html-slider-response","72","214390","0.0-66.0","n6hmfv4bf1","42","NaN","<div style=""width:500px;"">
                            <p style=""font-size:50px; font-weight:bold;""
                            >fearful</p>
                            <div style=""width:240px; margin: auto;"">
                                <img src=""images/map15_Greys_scaleDef_orientMir_000.png"" style= ""width:200px""alt=""img"">
                            </div>
                        </div>","104","","0","","","","images/map15_Greys_scaleDef_orientMir_000.png","fearful","1","15","15","Greys","orientMir","scaleDef","000","",""
"","","","","","html-slider-response","73","215654","0.0-67.0","n6hmfv4bf1","42","NaN","<div style=""width:500px;"">
                            <p style=""font-size:50px; font-weight:bold;""
                            >fearful</p>
                            <div style=""width:240px; margin: auto;"">
                                <img src=""images/map10_bwr_scaleRev_orientMir_090.png"" style= ""width:200px""alt=""img"">
                            </div>
                        </div>","104","","0","","","","images/map10_bwr_scaleRev_orientMir_090.png","fearful","1","10","10","bwr","orientMir","scaleRev","090","",""
"","","","","","html-slider-response","74","220191","0.0-68.0","n6hmfv4bf1","42","NaN","<div style=""width:500px;"">
                            <p style=""font-size:50px; font-weight:bold;""
                            >fearful</p>
                            <div style=""width:240px; margin: auto;"">
                                <img src=""images/map27_PuBu_scaleDef_orientMir_180.png"" style= ""width:200px""alt=""img"">
                            </div>
                        </div>","-200","","0","","","","images/map27_PuBu_scaleDef_orientMir_180.png","fearful","1","27","27","PuBu","orientMir","scaleDef","180","",""
"","","","","","html-slider-response","75","224132","0.0-69.0","n6hmfv4bf1","42","NaN","<div style=""width:500px;"">
                            <p style=""font-size:50px; font-weight:bold;""
                            >fearful</p>
                            <div style=""width:240px; margin: auto;"">
                                <img src=""images/map10_coolwarm_scaleDef_orientDef_180.png"" style= ""width:200px""alt=""img"">
                            </div>
                        </div>","137","","0","","","","images/map10_coolwarm_scaleDef_orientDef_180.png","fearful","1","10","10","coolwarm","orientDef","scaleDef","180","",""
"","","","","","html-slider-response","76","228523","0.0-70.0","n6hmfv4bf1","42","NaN","<div style=""width:500px;"">
                            <p style=""font-size:50px; font-weight:bold;""
                            >fearful</p>
                            <div style=""width:240px; margin: auto;"">
                                <img src=""images/map23_Blues_scaleRev_orientDef_090.png"" style= ""width:200px""alt=""img"">
                            </div>
                        </div>","-192","","0","","","","images/map23_Blues_scaleRev_orientDef_090.png","fearful","1","23","23","Blues","orientDef","scaleRev","090","",""
"","","","","","html-slider-response","77","230715","0.0-71.0","n6hmfv4bf1","42","NaN","<div style=""width:500px;"">
                            <p style=""font-size:50px; font-weight:bold;""
                            >fearful</p>
                            <div style=""width:240px; margin: auto;"">
                                <img src=""images/map26_YlOrRd_scaleRev_orientDef_270.png"" style= ""width:200px""alt=""img"">
                            </div>
                        </div>","83","","0","","","","images/map26_YlOrRd_scaleRev_orientDef_270.png","fearful","1","26","26","YlOrRd","orientDef","scaleRev","270","",""
"","","","","","html-slider-response","78","232271","0.0-72.0","n6hmfv4bf1","42","NaN","<div style=""width:500px;"">
                            <p style=""font-size:50px; font-weight:bold;""
                            >fearful</p>
                            <div style=""width:240px; margin: auto;"">
                                <img src=""images/map15_Purples_scaleRev_orientMir_270.png"" style= ""width:200px""alt=""img"">
                            </div>
                        </div>","52","","0","","","","images/map15_Purples_scaleRev_orientMir_270.png","fearful","1","15","15","Purples","orientMir","scaleRev","270","",""
"","","","","","html-slider-response","79","236807","0.0-73.0","n6hmfv4bf1","42","NaN","<div style=""width:500px;"">
                            <p style=""font-size:50px; font-weight:bold;""
                            >fearful</p>
                            <div style=""width:240px; margin: auto;"">
                                <img src=""images/map05_PiYG_scaleDef_orientDef_000.png"" style= ""width:200px""alt=""img"">
                            </div>
                        </div>","198","","0","","","","images/map05_PiYG_scaleDef_orientDef_000.png","fearful","1","05","05","PiYG","orientDef","scaleDef","000","",""
"","","","","","html-slider-response","80","239429","0.0-74.0","n6hmfv4bf1","42","NaN","<div style=""width:500px;"">
                            <p style=""font-size:50px; font-weight:bold;""
                            >fearful</p>
                            <div style=""width:240px; margin: auto;"">
                                <img src=""images/map13_viridis_scaleRev_orientDef_270.png"" style= ""width:200px""alt=""img"">
                            </div>
                        </div>","198","","0","","","","images/map13_viridis_scaleRev_orientDef_270.png","fearful","1","13","13","viridis","orientDef","scaleRev","270","",""
"","","","","","html-slider-response","81","241790","0.0-75.0","n6hmfv4bf1","42","NaN","<div style=""width:500px;"">
                            <p style=""font-size:50px; font-weight:bold;""
                            >fearful</p>
                            <div style=""width:240px; margin: auto;"">
                                <img src=""images/map02_YlGnBu_scaleRev_orientDef_090.png"" style= ""width:200px""alt=""img"">
                            </div>
                        </div>","103","","0","","","","images/map02_YlGnBu_scaleRev_orientDef_090.png","fearful","1","02","02","YlGnBu","orientDef","scaleRev","090","",""
"","","","","","html-slider-response","82","244508","0.0-76.0","n6hmfv4bf1","42","NaN","<div style=""width:500px;"">
                            <p style=""font-size:50px; font-weight:bold;""
                            >fearful</p>
                            <div style=""width:240px; margin: auto;"">
                                <img src=""images/map23_Reds_scaleRev_orientMir_270.png"" style= ""width:200px""alt=""img"">
                            </div>
                        </div>","162","","0","","","","images/map23_Reds_scaleRev_orientMir_270.png","fearful","1","23","23","Reds","orientMir","scaleRev","270","",""
"","","","","","html-slider-response","83","246835","0.0-77.0","n6hmfv4bf1","42","NaN","<div style=""width:500px;"">
                            <p style=""font-size:50px; font-weight:bold;""
                            >fearful</p>
                            <div style=""width:240px; margin: auto;"">
                                <img src=""images/map23_Oranges_scaleDef_orientMir_000.png"" style= ""width:200px""alt=""img"">
                            </div>
                        </div>","149","","0","","","","images/map23_Oranges_scaleDef_orientMir_000.png","fearful","1","23","23","Oranges","orientMir","scaleDef","000","",""
"","","","","","html-slider-response","84","248128","0.0-78.0","n6hmfv4bf1","42","NaN","<div style=""width:500px;"">
                            <p style=""font-size:50px; font-weight:bold;""
                            >fearful</p>
                            <div style=""width:240px; margin: auto;"">
                                <img src=""images/map02_YlGn_scaleRev_orientMir_270.png"" style= ""width:200px""alt=""img"">
                            </div>
                        </div>","149","","0","","","","images/map02_YlGn_scaleRev_orientMir_270.png","fearful","1","02","02","YlGn","orientMir","scaleRev","270","",""
"","","","","","html-slider-response","85","252881","0.0-79.0","n6hmfv4bf1","42","NaN","<div style=""width:500px;"">
                            <p style=""font-size:50px; font-weight:bold;""
                            >fearful</p>
                            <div style=""width:240px; margin: auto;"">
                                <img src=""images/map02_YlGnBu_scaleDef_orientDef_000.png"" style= ""width:200px""alt=""img"">
                            </div>
                        </div>","-196","","0","","","","images/map02_YlGnBu_scaleDef_orientDef_000.png","fearful","1","02","02","YlGnBu","orientDef","scaleDef","000","",""
"","","","","","html-slider-response","86","254543","0.0-80.0","n6hmfv4bf1","42","NaN","<div style=""width:500px;"">
                            <p style=""font-size:50px; font-weight:bold;""
                            >fearful</p>
                            <div style=""width:240px; margin: auto;"">
                                <img src=""images/map27_PuBu_scaleRev_orientMir_270.png"" style= ""width:200px""alt=""img"">
                            </div>
                        </div>","-198","","0","","","","images/map27_PuBu_scaleRev_orientMir_270.png","fearful","1","27","27","PuBu","orientMir","scaleRev","270","",""
"","","","","","html-slider-response","87","256849","0.0-81.0","n6hmfv4bf1","42","NaN","<div style=""width:500px;"">
                            <p style=""font-size:50px; font-weight:bold;""
                            >fearful</p>
                            <div style=""width:240px; margin: auto;"">
                                <img src=""images/map02_YlGn_scaleDef_orientMir_180.png"" style= ""width:200px""alt=""img"">
                            </div>
                        </div>","131","","0","","","","images/map02_YlGn_scaleDef_orientMir_180.png","fearful","1","02","02","YlGn","orientMir","scaleDef","180","",""
"","","","","","html-slider-response","88","261079","0.0-82.0","n6hmfv4bf1","42","NaN","<div style=""width:500px;"">
                            <p style=""font-size:50px; font-weight:bold;""
                            >fearful</p>
                            <div style=""width:240px; margin: auto;"">
                                <img src=""images/map27_BuPu_scaleRev_orientDef_270.png"" style= ""width:200px""alt=""img"">
                            </div>
                        </div>","131","","0","","","","images/map27_BuPu_scaleRev_orientDef_270.png","fearful","1","27","27","BuPu","orientDef","scaleRev","270","",""
"","","","","","html-slider-response","89","264235","0.0-83.0","n6hmfv4bf1","42","NaN","<div style=""width:500px;"">
                            <p style=""font-size:50px; font-weight:bold;""
                            >fearful</p>
                            <div style=""width:240px; margin: auto;"">
                                <img src=""images/map27_GnBu_scaleRev_orientMir_090.png"" style= ""width:200px""alt=""img"">
                            </div>
                        </div>","-193","","0","","","","images/map27_GnBu_scaleRev_orientMir_090.png","fearful","1","27","27","GnBu","orientMir","scaleRev","090","",""
"","","","","","html-slider-response","90","266282","0.0-84.0","n6hmfv4bf1","42","NaN","<div style=""width:500px;"">
                            <p style=""font-size:50px; font-weight:bold;""
                            >fearful</p>
                            <div style=""width:240px; margin: auto;"">
                                <img src=""images/map27_BuPu_scaleDef_orientDef_180.png"" style= ""width:200px""alt=""img"">
                            </div>
                        </div>","95","","0","","","","images/map27_BuPu_scaleDef_orientDef_180.png","fearful","1","27","27","BuPu","orientDef","scaleDef","180","",""
"","","","","","html-slider-response","91","268364","0.0-85.0","n6hmfv4bf1","42","NaN","<div style=""width:500px;"">
                            <p style=""font-size:50px; font-weight:bold;""
                            >fearful</p>
                            <div style=""width:240px; margin: auto;"">
                                <img src=""images/map02_PuBuGn_scaleRev_orientDef_270.png"" style= ""width:200px""alt=""img"">
                            </div>
                        </div>","-194","","0","","","","images/map02_PuBuGn_scaleRev_orientDef_270.png","fearful","1","02","02","PuBuGn","orientDef","scaleRev","270","",""
"","","","","","html-slider-response","92","271874","0.0-86.0","n6hmfv4bf1","42","NaN","<div style=""width:500px;"">
                            <p style=""font-size:50px; font-weight:bold;""
                            >fearful</p>
                            <div style=""width:240px; margin: auto;"">
                                <img src=""images/map10_bwr_scaleDef_orientMir_000.png"" style= ""width:200px""alt=""img"">
                            </div>
                        </div>","194","","0","","","","images/map10_bwr_scaleDef_orientMir_000.png","fearful","1","10","10","bwr","orientMir","scaleDef","000","",""
"","","","","","html-slider-response","93","275015","0.0-87.0","n6hmfv4bf1","42","NaN","<div style=""width:500px;"">
                            <p style=""font-size:50px; font-weight:bold;""
                            >fearful</p>
                            <div style=""width:240px; margin: auto;"">
                                <img src=""images/map26_PuRd_scaleRev_orientMir_270.png"" style= ""width:200px""alt=""img"">
                            </div>
                        </div>","181","","0","","","","images/map26_PuRd_scaleRev_orientMir_270.png","fearful","1","26","26","PuRd","orientMir","scaleRev","270","",""
"","","","","","html-slider-response","94","277432","0.0-88.0","n6hmfv4bf1","42","NaN","<div style=""width:500px;"">
                            <p style=""font-size:50px; font-weight:bold;""
                            >fearful</p>
                            <div style=""width:240px; margin: auto;"">
                                <img src=""images/map26_OrRd_scaleRev_orientMir_090.png"" style= ""width:200px""alt=""img"">
                            </div>
                        </div>","200","","0","","","","images/map26_OrRd_scaleRev_orientMir_090.png","fearful","1","26","26","OrRd","orientMir","scaleRev","090","",""
"","","","","","html-slider-response","95","281842","0.0-89.0","n6hmfv4bf1","42","NaN","<div style=""width:500px;"">
                            <p style=""font-size:50px; font-weight:bold;""
                            >fearful</p>
                            <div style=""width:240px; margin: auto;"">
                                <img src=""images/map23_Greens_scaleDef_orientDef_180.png"" style= ""width:200px""alt=""img"">
                            </div>
                        </div>","198","","0","","","","images/map23_Greens_scaleDef_orientDef_180.png","fearful","1","23","23","Greens","orientDef","scaleDef","180","",""
"","","","","","html-slider-response","96","283535","0.0-90.0","n6hmfv4bf1","42","NaN","<div style=""width:500px;"">
                            <p style=""font-size:50px; font-weight:bold;""
                            >fearful</p>
                            <div style=""width:240px; margin: auto;"">
                                <img src=""images/map27_RdPu_scaleDef_orientDef_000.png"" style= ""width:200px""alt=""img"">
                            </div>
                        </div>","198","","0","","","","images/map27_RdPu_scaleDef_orientDef_000.png","fearful","1","27","27","RdPu","orientDef","scaleDef","000","",""
"","","","","","html-slider-response","97","285653","0.0-91.0","n6hmfv4bf1","42","NaN","<div style=""width:500px;"">
                            <p style=""font-size:50px; font-weight:bold;""
                            >fearful</p>
                            <div style=""width:240px; margin: auto;"">
                                <img src=""images/map07_RdBu_scaleRev_orientDef_270.png"" style= ""width:200px""alt=""img"">
                            </div>
                        </div>","159","","0","","","","images/map07_RdBu_scaleRev_orientDef_270.png","fearful","1","07","07","RdBu","orientDef","scaleRev","270","",""
"","","","","","html-slider-response","98","288866","0.0-92.0","n6hmfv4bf1","42","NaN","<div style=""width:500px;"">
                            <p style=""font-size:50px; font-weight:bold;""
                            >fearful</p>
                            <div style=""width:240px; margin: auto;"">
                                <img src=""images/map15_Purples_scaleDef_orientMir_180.png"" style= ""width:200px""alt=""img"">
                            </div>
                        </div>","-104","","0","","","","images/map15_Purples_scaleDef_orientMir_180.png","fearful","1","15","15","Purples","orientMir","scaleDef","180","",""
"","","","","","html-slider-response","99","290198","0.0-93.0","n6hmfv4bf1","42","NaN","<div style=""width:500px;"">
                            <p style=""font-size:50px; font-weight:bold;""
                            >fearful</p>
                            <div style=""width:240px; margin: auto;"">
                                <img src=""images/map27_GnBu_scaleDef_orientMir_000.png"" style= ""width:200px""alt=""img"">
                            </div>
                        </div>","-104","","0","","","","images/map27_GnBu_scaleDef_orientMir_000.png","fearful","1","27","27","GnBu","orientMir","scaleDef","000","",""
"","","","","","html-slider-response","100","292882","0.0-94.0","n6hmfv4bf1","42","NaN","<div style=""width:500px;"">
                            <p style=""font-size:50px; font-weight:bold;""
                            >fearful</p>
                            <div style=""width:240px; margin: auto;"">
                                <img src=""images/map12_berlin_scaleRev_orientDef_090.png"" style= ""width:200px""alt=""img"">
                            </div>
                        </div>","200","","0","","","","images/map12_berlin_scaleRev_orientDef_090.png","fearful","1","12","12","berlin","orientDef","scaleRev","090","",""
"","","","","","html-button-response","101","297263","0.0-95.0","n6hmfv4bf1","42","3878","<p>Great Job! You've finished block 1.<br></br> You have 4 block(s) left to go.<br></br></p>","0","","","","","","","","","","","","","","","",""
"","","","","","html-button-response","102","300863","0.0-96.0","n6hmfv4bf1","42","3599","<p>In this block of trials, you will be asked to rate how much you associate each map with:</p > <p style = 'font-size:150%; font-weight: bold'>happy</p><br></br>","0","","","","","","","","","","","","","","","",""
"","","","","","html-slider-response","103","303811","0.0-97.0","n6hmfv4bf1","42","NaN","<div style=""width:500px;"">
                            <p style=""font-size:50px; font-weight:bold;""
                            >happy</p>
                            <div style=""width:240px; margin: auto;"">
                                <img src=""images/map15_Greys_scaleRev_orientMir_090.png"" style= ""width:200px""alt=""img"">
                            </div>
                        </div>","-194","","0","","","","images/map15_Greys_scaleRev_orientMir_090.png","happy","1","15","15","Greys","orientMir","scaleRev","090","",""
"","","","","","html-slider-response","104","311139","0.0-98.0","n6hmfv4bf1","42","NaN","<div style=""width:500px;"">
                            <p style=""font-size:50px; font-weight:bold;""
                            >happy</p>
                            <div style=""width:240px; margin: auto;"">
                                <img src=""images/map15_magma_scaleDef_orientDef_000.png"" style= ""width:200px""alt=""img"">
                            </div>
                        </div>","-198","","0","","","","images/map15_magma_scaleDef_orientDef_000.png","happy","1","15","15","magma","orientDef","scaleDef","000","",""
"","","","","","html-slider-response","105","312517","0.0-99.0","n6hmfv4bf1","42","NaN","<div style=""width:500px;"">
                            <p style=""font-size:50px; font-weight:bold;""
                            >happy</p>
                            <div style=""width:240px; margin: auto;"">
                                <img src=""images/map26_YlOrBr_scaleRev_orientDef_090.png"" style= ""width:200px""alt=""img"">
                            </div>
                        </div>","-197","","0","","","","images/map26_YlOrBr_scaleRev_orientDef_090.png","happy","1","26","26","YlOrBr","orientDef","scaleRev","090","",""
"","","","","","html-slider-response","106","313893","0.0-100.0","n6hmfv4bf1","42","NaN","<div style=""width:500px;"">
                            <p style=""font-size:50px; font-weight:bold;""
                            >happy</p>
                            <div style=""width:240px; margin: auto;"">
                                <img src=""images/map12_berlin_scaleDef_orientDef_000.png"" style= ""width:200px""alt=""img"">
                            </div>
                        </div>","-197","","0","","","","images/map12_berlin_scaleDef_orientDef_000.png","happy","1","12","12","berlin","orientDef","scaleDef","000","",""
"","","","","","html-slider-response","107","315194","0.0-101.0","n6hmfv4bf1","42","NaN","<div style=""width:500px;"">
                            <p style=""font-size:50px; font-weight:bold;""
                            >happy</p>
                            <div style=""width:240px; margin: auto;"">
                                <img src=""images/map07_RdGy_scaleRev_orientDef_090.png"" style= ""width:200px""alt=""img"">
                            </div>
                        </div>","-197","","0","","","","images/map07_RdGy_scaleRev_orientDef_090.png","happy","1","07","07","RdGy","orientDef","scaleRev","090","",""
"","","","","","html-slider-response","108","318034","0.0-102.0","n6hmfv4bf1","42","NaN","<div style=""width:500px;"">
                            <p style=""font-size:50px; font-weight:bold;""
                            >happy</p>
                            <div style=""width:240px; margin: auto;"">
                                <img src=""images/map05_PiYG_scaleDef_orientDef_000.png"" style= ""width:200px""alt=""img"">
                            </div>
                        </div>","-90","","0","","","","images/map05_PiYG_scaleDef_orientDef_000.png","happy","1","05","05","PiYG","orientDef","scaleDef","000","",""
"","","","","","html-slider-response","109","320425","0.0-103.0","n6hmfv4bf1","42","NaN","<div style=""width:500px;"">
                            <p style=""font-size:50px; font-weight:bold;""
                            >happy</p>
                            <div style=""width:240px; margin: auto;"">
                                <img src=""images/map02_YlGnBu_scaleRev_orientDef_090.png"" style= ""width:200px""alt=""img"">
                            </div>
                        </div>","194","","0","","","","images/map02_YlGnBu_scaleRev_orientDef_090.png","happy","1","02","02","YlGnBu","orientDef","scaleRev","090","",""
"","","","","","html-slider-response","110","321599","0.0-104.0","n6hmfv4bf1","42","NaN","<div style=""width:500px;"">
                            <p style=""font-size:50px; font-weight:bold;""
                            >happy</p>
                            <div style=""width:240px; margin: auto;"">
                                <img src=""images/map23_Blues_scaleRev_orientDef_090.png"" style= ""width:200px""alt=""img"">
                            </div>
                        </div>","194","","0","","","","images/map23_Blues_scaleRev_orientDef_090.png","happy","1","23","23","Blues","orientDef","scaleRev","090","",""
"","","","","","html-slider-response","111","322823","0.0-105.0","n6hmfv4bf1","42","NaN","<div style=""width:500px;"">
                            <p style=""font-size:50px; font-weight:bold;""
                            >happy</p>
                            <div style=""width:240px; margin: auto;"">
                                <img src=""images/map10_coolwarm_scaleRev_orientDef_270.png"" style= ""width:200px""alt=""img"">
                            </div>
                        </div>","194","","0","","","","images/map10_coolwarm_scaleRev_orientDef_270.png","happy","1","10","10","coolwarm","orientDef","scaleRev","270","",""
"","","","","","html-slider-response","112","324344","0.0-106.0","n6hmfv4bf1","42","NaN","<div style=""width:500px;"">
                            <p style=""font-size:50px; font-weight:bold;""
                            >happy</p>
                            <div style=""width:240px; margin: auto;"">
                                <img src=""images/map15_Purples_scaleRev_orientMir_270.png"" style= ""width:200px""alt=""img"">
                            </div>
                        </div>","194","","0","","","","images/map15_Purples_scaleRev_orientMir_270.png","happy","1","15","15","Purples","orientMir","scaleRev","270","",""
"","","","","","html-slider-response","113","326529","0.0-107.0","n6hmfv4bf1","42","NaN","<div style=""width:500px;"">
                            <p style=""font-size:50px; font-weight:bold;""
                            >happy</p>
                            <div style=""width:240px; margin: auto;"">
                                <img src=""images/map13_viridis_scaleDef_orientDef_180.png"" style= ""width:200px""alt=""img"">
                            </div>
                        </div>","-126","","0","","","","images/map13_viridis_scaleDef_orientDef_180.png","happy","1","13","13","viridis","orientDef","scaleDef","180","",""
"","","","","","html-slider-response","114","328735","0.0-108.0","n6hmfv4bf1","42","NaN","<div style=""width:500px;"">
                            <p style=""font-size:50px; font-weight:bold;""
                            >happy</p>
                            <div style=""width:240px; margin: auto;"">
                                <img src=""images/map05_PiYG_scaleRev_orientDef_090.png"" style= ""width:200px""alt=""img"">
                            </div>
                        </div>","5","","0","","","","images/map05_PiYG_scaleRev_orientDef_090.png","happy","1","05","05","PiYG","orientDef","scaleRev","090","",""
"","","","","","html-slider-response","115","329956","0.0-109.0","n6hmfv4bf1","42","NaN","<div style=""width:500px;"">
                            <p style=""font-size:50px; font-weight:bold;""
                            >happy</p>
                            <div style=""width:240px; margin: auto;"">
                                <img src=""images/map05_PRGn_scaleRev_orientDef_270.png"" style= ""width:200px""alt=""img"">
                            </div>
                        </div>","5","","0","","","","images/map05_PRGn_scaleRev_orientDef_270.png","happy","1","05","05","PRGn","orientDef","scaleRev","270","",""
"","","","","","html-slider-response","116","331932","0.0-110.0","n6hmfv4bf1","42","NaN","<div style=""width:500px;"">
                            <p style=""font-size:50px; font-weight:bold;""
                            >happy</p>
                            <div style=""width:240px; margin: auto;"">
                                <img src=""images/map27_RdPu_scaleDef_orientDef_000.png"" style= ""width:200px""alt=""img"">
                            </div>
                        </div>","67","","0","","","","images/map27_RdPu_scaleDef_orientDef_000.png","happy","1","27","27","RdPu","orientDef","scaleDef","000","",""
"","","","","","html-slider-response","117","335003","0.0-111.0","n6hmfv4bf1","42","NaN","<div style=""width:500px;"">
                            <p style=""font-size:50px; font-weight:bold;""
                            >happy</p>
                            <div style=""width:240px; margin: auto;"">
                                <img src=""images/map02_BuGn_scaleRev_orientMir_090.png"" style= ""width:200px""alt=""img"">
                            </div>
                        </div>","-94","","0","","","","images/map02_BuGn_scaleRev_orientMir_090.png","happy","1","02","02","BuGn","orientMir","scaleRev","090","",""
"","","","","","html-slider-response","118","337238","0.0-112.0","n6hmfv4bf1","42","NaN","<div style=""width:500px;"">
                            <p style=""font-size:50px; font-weight:bold;""
                            >happy</p>
                            <div style=""width:240px; margin: auto;"">
                                <img src=""images/map13_turbo_scaleRev_orientDef_090.png"" style= ""width:200px""alt=""img"">
                            </div>
                        </div>","-187","","0","","","","images/map13_turbo_scaleRev_orientDef_090.png","happy","1","13","13","turbo","orientDef","scaleRev","090","",""
"","","","","","html-slider-response","119","338544","0.0-113.0","n6hmfv4bf1","42","NaN","<div style=""width:500px;"">
                            <p style=""font-size:50px; font-weight:bold;""
                            >happy</p>
                            <div style=""width:240px; margin: auto;"">
                                <img src=""images/map10_Spectral_scaleDef_orientDef_000.png"" style= ""width:200px""alt=""img"">
                            </div>
                        </div>","-187","","0","","","","images/map10_Spectral_scaleDef_orientDef_000.png","happy","1","10","10","Spectral","orientDef","scaleDef","000","",""
"","","","","","html-slider-response","120","340848","0.0-114.0","n6hmfv4bf1","42","NaN","<div style=""width:500px;"">
                            <p style=""font-size:50px; font-weight:bold;""
                            >happy</p>
                            <div style=""width:240px; margin: auto;"">
                                <img src=""images/map13_plasma_scaleRev_orientMir_090.png"" style= ""width:200px""alt=""img"">
                            </div>
                        </div>","196","","0","","","","images/map13_plasma_scaleRev_orientMir_090.png","happy","1","13","13","plasma","orientMir","scaleRev","090","",""
"","","","","","html-slider-response","121","342237","0.0-115.0","n6hmfv4bf1","42","NaN","<div style=""width:500px;"">
                            <p style=""font-size:50px; font-weight:bold;""
                            >happy</p>
                            <div style=""width:240px; margin: auto;"">
                                <img src=""images/map10_coolwarm_scaleDef_orientDef_180.png"" style= ""width:200px""alt=""img"">
                            </div>
                        </div>","196","","0","","","","images/map10_coolwarm_scaleDef_orientDef_180.png","happy","1","10","10","coolwarm","orientDef","scaleDef","180","",""
"","","","","","html-slider-response","122","343549","0.0-116.0","n6hmfv4bf1","42","NaN","<div style=""width:500px;"">
                            <p style=""font-size:50px; font-weight:bold;""
                            >happy</p>
                            <div style=""width:240px; margin: auto;"">
                                <img src=""images/map02_YlGnBu_scaleDef_orientDef_000.png"" style= ""width:200px""alt=""img"">
                            </div>
                        </div>","196","","0","","","","images/map02_YlGnBu_scaleDef_orientDef_000.png","happy","1","02","02","YlGnBu","orientDef","scaleDef","000","",""
"","","","","","html-slider-response","123","344757","0.0-117.0","n6hmfv4bf1","42","NaN","<div style=""width:500px;"">
                            <p style=""font-size:50px; font-weight:bold;""
                            >happy</p>
                            <div style=""width:240px; margin: auto;"">
                                <img src=""images/map07_RdYlBu_scaleDef_orientMir_000.png"" style= ""width:200px""alt=""img"">
                            </div>
                        </div>","196","","0","","","","images/map07_RdYlBu_scaleDef_orientMir_000.png","happy","1","07","07","RdYlBu","orientMir","scaleDef","000","",""
"","","","","","html-slider-response","124","346034","0.0-118.0","n6hmfv4bf1","42","NaN","<div style=""width:500px;"">
                            <p style=""font-size:50px; font-weight:bold;""
                            >happy</p>
                            <div style=""width:240px; margin: auto;"">
                                <img src=""images/map23_Reds_scaleDef_orientMir_180.png"" style= ""width:200px""alt=""img"">
                            </div>
                        </div>","196","","0","","","","images/map23_Reds_scaleDef_orientMir_180.png","happy","1","23","23","Reds","orientMir","scaleDef","180","",""
"","","","","","html-slider-response","125","347568","0.0-119.0","n6hmfv4bf1","42","NaN","<div style=""width:500px;"">
                            <p style=""font-size:50px; font-weight:bold;""
                            >happy</p>
                            <div style=""width:240px; margin: auto;"">
                                <img src=""images/map27_BuPu_scaleDef_orientDef_180.png"" style= ""width:200px""alt=""img"">
                            </div>
                        </div>","196","","0","","","","images/map27_BuPu_scaleDef_orientDef_180.png","happy","1","27","27","BuPu","orientDef","scaleDef","180","",""
"","","","","","html-slider-response","126","350932","0.0-120.0","n6hmfv4bf1","42","NaN","<div style=""width:500px;"">
                            <p style=""font-size:50px; font-weight:bold;""
                            >happy</p>
                            <div style=""width:240px; margin: auto;"">
                                <img src=""images/map13_viridis_scaleRev_orientDef_270.png"" style= ""width:200px""alt=""img"">
                            </div>
                        </div>","-196","","0","","","","images/map13_viridis_scaleRev_orientDef_270.png","happy","1","13","13","viridis","orientDef","scaleRev","270","",""
"","","","","","html-slider-response","127","354801","0.0-121.0","n6hmfv4bf1","42","NaN","<div style=""width:500px;"">
                            <p style=""font-size:50px; font-weight:bold;""
                            >happy</p>
                            <div style=""width:240px; margin: auto;"">
                                <img src=""images/map27_BuPu_scaleRev_orientDef_270.png"" style= ""width:200px""alt=""img"">
                            </div>
                        </div>","106","","0","","","","images/map27_BuPu_scaleRev_orientDef_270.png","happy","1","27","27","BuPu","orientDef","scaleRev","270","",""
"","","","","","html-slider-response","128","357268","0.0-122.0","n6hmfv4bf1","42","NaN","<div style=""width:500px;"">
                            <p style=""font-size:50px; font-weight:bold;""
                            >happy</p>
                            <div style=""width:240px; margin: auto;"">
                                <img src=""images/map10_seismic_scaleRev_orientMir_270.png"" style= ""width:200px""alt=""img"">
                            </div>
                        </div>","-130","","0","","","","images/map10_seismic_scaleRev_orientMir_270.png","happy","1","10","10","seismic","orientMir","scaleRev","270","",""
"","","","","","html-slider-response","129","365525","0.0-123.0","n6hmfv4bf1","42","NaN","<div style=""width:500px;"">
                            <p style=""font-size:50px; font-weight:bold;""
                            >happy</p>
                            <div style=""width:240px; margin: auto;"">
                                <img src=""images/map07_RdGy_scaleDef_orientDef_000.png"" style= ""width:200px""alt=""img"">
                            </div>
                        </div>","-196","","0","","","","images/map07_RdGy_scaleDef_orientDef_000.png","happy","1","07","07","RdGy","orientDef","scaleDef","000","",""
"","","","","","html-slider-response","130","368240","0.0-124.0","n6hmfv4bf1","42","NaN","<div style=""width:500px;"">
                            <p style=""font-size:50px; font-weight:bold;""
                            >happy</p>
                            <div style=""width:240px; margin: auto;"">
                                <img src=""images/map27_PuBu_scaleDef_orientMir_180.png"" style= ""width:200px""alt=""img"">
                            </div>
                        </div>","196","","0","","","","images/map27_PuBu_scaleDef_orientMir_180.png","happy","1","27","27","PuBu","orientMir","scaleDef","180","",""
"","","","","","html-slider-response","131","373665","0.0-125.0","n6hmfv4bf1","42","NaN","<div style=""width:500px;"">
                            <p style=""font-size:50px; font-weight:bold;""
                            >happy</p>
                            <div style=""width:240px; margin: auto;"">
                                <img src=""images/map07_RdYlBu_scaleRev_orientMir_090.png"" style= ""width:200px""alt=""img"">
                            </div>
                        </div>","-195","","0","","","","images/map07_RdYlBu_scaleRev_orientMir_090.png","happy","1","07","07","RdYlBu","orientMir","scaleRev","090","",""
"","","","","","html-slider-response","132","385897","0.0-126.0","n6hmfv4bf1","42","NaN","<div style=""width:500px;"">
                            <p style=""font-size:50px; font-weight:bold;""
                            >happy</p>
                            <div style=""width:240px; margin: auto;"">
                                <img src=""images/map05_BrBG_scaleDef_orientMir_000.png"" style= ""width:200px""alt=""img"">
                            </div>
                        </div>","146","","0","","","","images/map05_BrBG_scaleDef_orientMir_000.png","happy","1","05","05","BrBG","orientMir","scaleDef","000","",""
"","","","","","html-slider-response","133","388130","0.0-127.0","n6hmfv4bf1","42","NaN","<div style=""width:500px;"">
                            <p style=""font-size:50px; font-weight:bold;""
                            >happy</p>
                            <div style=""width:240px; margin: auto;"">
                                <img src=""images/map26_PuRd_scaleRev_orientMir_270.png"" style= ""width:200px""alt=""img"">
                            </div>
                        </div>","-112","","0","","","","images/map26_PuRd_scaleRev_orientMir_270.png","happy","1","26","26","PuRd","orientMir","scaleRev","270","",""
"","","","","","html-slider-response","134","389982","0.0-128.0","n6hmfv4bf1","42","NaN","<div style=""width:500px;"">
                            <p style=""font-size:50px; font-weight:bold;""
                            >happy</p>
                            <div style=""width:240px; margin: auto;"">
                                <img src=""images/map05_PuOr_scaleRev_orientMir_270.png"" style= ""width:200px""alt=""img"">
                            </div>
                        </div>","-110","","0","","","","images/map05_PuOr_scaleRev_orientMir_270.png","happy","1","05","05","PuOr","orientMir","scaleRev","270","",""
"","","","","","html-slider-response","135","391282","0.0-129.0","n6hmfv4bf1","42","NaN","<div style=""width:500px;"">
                            <p style=""font-size:50px; font-weight:bold;""
                            >happy</p>
                            <div style=""width:240px; margin: auto;"">
                                <img src=""images/map07_RdBu_scaleRev_orientDef_270.png"" style= ""width:200px""alt=""img"">
                            </div>
                        </div>","-110","","0","","","","images/map07_RdBu_scaleRev_orientDef_270.png","happy","1","07","07","RdBu","orientDef","scaleRev","270","",""
"","","","","","html-slider-response","136","393397","0.0-130.0","n6hmfv4bf1","42","NaN","<div style=""width:500px;"">
                            <p style=""font-size:50px; font-weight:bold;""
                            >happy</p>
                            <div style=""width:240px; margin: auto;"">
                                <img src=""images/map12_vanimo_scaleRev_orientMir_090.png"" style= ""width:200px""alt=""img"">
                            </div>
                        </div>","-122","","0","","","","images/map12_vanimo_scaleRev_orientMir_090.png","happy","1","12","12","vanimo","orientMir","scaleRev","090","",""
"","","","","","html-slider-response","137","394769","0.0-131.0","n6hmfv4bf1","42","NaN","<div style=""width:500px;"">
                            <p style=""font-size:50px; font-weight:bold;""
                            >happy</p>
                            <div style=""width:240px; margin: auto;"">
                                <img src=""images/map15_cividis_scaleDef_orientDef_180.png"" style= ""width:200px""alt=""img"">
                            </div>
                        </div>","-122","","0","","","","images/map15_cividis_scaleDef_orientDef_180.png","happy","1","15","15","cividis","orientDef","scaleDef","180","",""
"","","","","","html-slider-response","138","396151","0.0-132.0","n6hmfv4bf1","42","NaN","<div style=""width:500px;"">
                            <p style=""font-size:50px; font-weight:bold;""
                            >happy</p>
                            <div style=""width:240px; margin: auto;"">
                                <img src=""images/map07_RdBu_scaleDef_orientDef_180.png"" style= ""width:200px""alt=""img"">
                            </div>
                        </div>","-122","","0","","","","images/map07_RdBu_scaleDef_orientDef_180.png","happy","1","07","07","RdBu","orientDef","scaleDef","180","",""
"","","","","","html-slider-response","139","397491","0.0-133.0","n6hmfv4bf1","42","NaN","<div style=""width:500px;"">
                            <p style=""font-size:50px; font-weight:bold;""
                            >happy</p>
                            <div style=""width:240px; margin: auto;"">
                                <img src=""images/map12_gist_earth_scaleRev_orientMir_270.png"" style= ""width:200px""alt=""img"">
                            </div>
                        </div>","-122","","0","","","","images/map12_gist_earth_scaleRev_orientMir_270.png","happy","1","12","12","gist","scaleRev","earth","orientMir","",""
"","","","","","html-slider-response","140","398883","0.0-134.0","n6hmfv4bf1","42","NaN","<div style=""width:500px;"">
                            <p style=""font-size:50px; font-weight:bold;""
                            >happy</p>
                            <div style=""width:240px; margin: auto;"">
                                <img src=""images/map26_YlOrRd_scaleDef_orientDef_180.png"" style= ""width:200px""alt=""img"">
                            </div>
                        </div>","-122","","0","","","","images/map26_YlOrRd_scaleDef_orientDef_180.png","happy","1","26","26","YlOrRd","orientDef","scaleDef","180","",""
"","","","","","html-slider-response","141","400215","0.0-135.0","n6hmfv4bf1","42","NaN","<div style=""width:500px;"">
                            <p style=""font-size:50px; font-weight:bold;""
                            >happy</p>
                            <div style=""width:240px; margin: auto;"">
                                <img src=""images/map23_Oranges_scaleRev_orientMir_090.png"" style= ""width:200px""alt=""img"">
                            </div>
                        </div>","-122","","0","","","","images/map23_Oranges_scaleRev_orientMir_090.png","happy","1","23","23","Oranges","orientMir","scaleRev","090","",""
"","","","","","html-slider-response","142","402401","0.0-136.0","n6hmfv4bf1","42","NaN","<div style=""width:500px;"">
                            <p style=""font-size:50px; font-weight:bold;""
                            >happy</p>
                            <div style=""width:240px; margin: auto;"">
                                <img src=""images/map15_cividis_scaleRev_orientDef_270.png"" style= ""width:200px""alt=""img"">
                            </div>
                        </div>","-90","","0","","","","images/map15_cividis_scaleRev_orientDef_270.png","happy","1","15","15","cividis","orientDef","scaleRev","270","",""
"","","","","","html-button-response","143","409547","0.0-137.0","n6hmfv4bf1","42","6638","<p>You are doing great!<br></br> You are halway done with the current block. When you are ready to continue, click the 'Continue' button.</p>","0","","","","","","","","","","","","","","","",""
"","","","","","html-slider-response","144","411125","0.0-138.0","n6hmfv4bf1","42","NaN","<div style=""width:500px;"">
                            <p style=""font-size:50px; font-weight:bold;""
                            >happy</p>
                            <div style=""width:240px; margin: auto;"">
                                <img src=""images/map27_PuBu_scaleRev_orientMir_270.png"" style= ""width:200px""alt=""img"">
                            </div>
                        </div>","129","","0","","","","images/map27_PuBu_scaleRev_orientMir_270.png","happy","1","27","27","PuBu","orientMir","scaleRev","270","",""
"","","","","","html-slider-response","145","412352","0.0-139.0","n6hmfv4bf1","42","NaN","<div style=""width:500px;"">
                            <p style=""font-size:50px; font-weight:bold;""
                            >happy</p>
                            <div style=""width:240px; margin: auto;"">
                                <img src=""images/map26_YlOrRd_scaleRev_orientDef_270.png"" style= ""width:200px""alt=""img"">
                            </div>
                        </div>","129","","0","","","","images/map26_YlOrRd_scaleRev_orientDef_270.png","happy","1","26","26","YlOrRd","orientDef","scaleRev","270","",""
"","","","","","html-slider-response","146","413878","0.0-140.0","n6hmfv4bf1","42","NaN","<div style=""width:500px;"">
                            <p style=""font-size:50px; font-weight:bold;""
                            >happy</p>
                            <div style=""width:240px; margin: auto;"">
                                <img src=""images/map12_managua_scaleDef_orientDef_180.png"" style= ""width:200px""alt=""img"">
                            </div>
                        </div>","129","","0","","","","images/map12_managua_scaleDef_orientDef_180.png","happy","1","12","12","managua","orientDef","scaleDef","180","",""
"","","","","","html-slider-response","147","415183","0.0-141.0","n6hmfv4bf1","42","NaN","<div style=""width:500px;"">
                            <p style=""font-size:50px; font-weight:bold;""
                            >happy</p>
                            <div style=""width:240px; margin: auto;"">
                                <img src=""images/map02_PuBuGn_scaleRev_orientDef_270.png"" style= ""width:200px""alt=""img"">
                            </div>
                        </div>","129","","0","","","","images/map02_PuBuGn_scaleRev_orientDef_270.png","happy","1","02","02","PuBuGn","orientDef","scaleRev","270","",""
"","","","","","html-slider-response","148","417386","0.0-142.0","n6hmfv4bf1","42","NaN","<div style=""width:500px;"">
                            <p style=""font-size:50px; font-weight:bold;""
                            >happy</p>
                            <div style=""width:240px; margin: auto;"">
                                <img src=""images/map13_turbo_scaleDef_orientDef_000.png"" style= ""width:200px""alt=""img"">
                            </div>
                        </div>","-198","","0","","","","images/map13_turbo_scaleDef_orientDef_000.png","happy","1","13","13","turbo","orientDef","scaleDef","000","",""
"","","","","","html-slider-response","149","418692","0.0-143.0","n6hmfv4bf1","42","NaN","<div style=""width:500px;"">
                            <p style=""font-size:50px; font-weight:bold;""
                            >happy</p>
                            <div style=""width:240px; margin: auto;"">
                                <img src=""images/map23_Reds_scaleRev_orientMir_270.png"" style= ""width:200px""alt=""img"">
                            </div>
                        </div>","-198","","0","","","","images/map23_Reds_scaleRev_orientMir_270.png","happy","1","23","23","Reds","orientMir","scaleRev","270","",""
"","","","","","html-slider-response","150","419908","0.0-144.0","n6hmfv4bf1","42","NaN","<div style=""width:500px;"">
                            <p style=""font-size:50px; font-weight:bold;""
                            >happy</p>
                            <div style=""width:240px; margin: auto;"">
                                <img src=""images/map26_OrRd_scaleRev_orientMir_090.png"" style= ""width:200px""alt=""img"">
                            </div>
                        </div>","-198","","0","","","","images/map26_OrRd_scaleRev_orientMir_090.png","happy","1","26","26","OrRd","orientMir","scaleRev","090","",""
"","","","","","html-slider-response","151","421198","0.0-145.0","n6hmfv4bf1","42","NaN","<div style=""width:500px;"">
                            <p style=""font-size:50px; font-weight:bold;""
                            >happy</p>
                            <div style=""width:240px; margin: auto;"">
                                <img src=""images/map15_Greys_scaleDef_orientMir_000.png"" style= ""width:200px""alt=""img"">
                            </div>
                        </div>","-198","","0","","","","images/map15_Greys_scaleDef_orientMir_000.png","happy","1","15","15","Greys","orientMir","scaleDef","000","",""
"","","","","","html-slider-response","152","423809","0.0-146.0","n6hmfv4bf1","42","NaN","<div style=""width:500px;"">
                            <p style=""font-size:50px; font-weight:bold;""
                            >happy</p>
                            <div style=""width:240px; margin: auto;"">
                                <img src=""images/map23_Blues_scaleDef_orientDef_000.png"" style= ""width:200px""alt=""img"">
                            </div>
                        </div>","197","","0","","","","images/map23_Blues_scaleDef_orientDef_000.png","happy","1","23","23","Blues","orientDef","scaleDef","000","",""
"","","","","","html-slider-response","153","425911","0.0-147.0","n6hmfv4bf1","42","NaN","<div style=""width:500px;"">
                            <p style=""font-size:50px; font-weight:bold;""
                            >happy</p>
                            <div style=""width:240px; margin: auto;"">
                                <img src=""images/map02_BuGn_scaleDef_orientMir_000.png"" style= ""width:200px""alt=""img"">
                            </div>
                        </div>","200","","0","","","","images/map02_BuGn_scaleDef_orientMir_000.png","happy","1","02","02","BuGn","orientMir","scaleDef","000","",""
"","","","","","html-slider-response","154","428208","0.0-148.0","n6hmfv4bf1","42","NaN","<div style=""width:500px;"">
                            <p style=""font-size:50px; font-weight:bold;""
                            >happy</p>
                            <div style=""width:240px; margin: auto;"">
                                <img src=""images/map12_gist_earth_scaleDef_orientMir_180.png"" style= ""width:200px""alt=""img"">
                            </div>
                        </div>","-163","","0","","","","images/map12_gist_earth_scaleDef_orientMir_180.png","happy","1","12","12","gist","scaleDef","earth","orientMir","",""
"","","","","","html-slider-response","155","430863","0.0-149.0","n6hmfv4bf1","42","NaN","<div style=""width:500px;"">
                            <p style=""font-size:50px; font-weight:bold;""
                            >happy</p>
                            <div style=""width:240px; margin: auto;"">
                                <img src=""images/map23_Greens_scaleDef_orientDef_180.png"" style= ""width:200px""alt=""img"">
                            </div>
                        </div>","200","","0","","","","images/map23_Greens_scaleDef_orientDef_180.png","happy","1","23","23","Greens","orientDef","scaleDef","180","",""
"","","","","","html-slider-response","156","433056","0.0-150.0","n6hmfv4bf1","42","NaN","<div style=""width:500px;"">
                            <p style=""font-size:50px; font-weight:bold;""
                            >happy</p>
                            <div style=""width:240px; margin: auto;"">
                                <img src=""images/map15_magma_scaleRev_orientDef_090.png"" style= ""width:200px""alt=""img"">
                            </div>
                        </div>","-166","","0","","","","images/map15_magma_scaleRev_orientDef_090.png","happy","1","15","15","magma","orientDef","scaleRev","090","",""
"","","","","","html-slider-response","157","435847","0.0-151.0","n6hmfv4bf1","42","NaN","<div style=""width:500px;"">
                            <p style=""font-size:50px; font-weight:bold;""
                            >happy</p>
                            <div style=""width:240px; margin: auto;"">
                                <img src=""images/map10_seismic_scaleDef_orientMir_180.png"" style= ""width:200px""alt=""img"">
                            </div>
                        </div>","-107","","0","","","","images/map10_seismic_scaleDef_orientMir_180.png","happy","1","10","10","seismic","orientMir","scaleDef","180","",""
"","","","","","html-slider-response","158","438373","0.0-152.0","n6hmfv4bf1","42","NaN","<div style=""width:500px;"">
                            <p style=""font-size:50px; font-weight:bold;""
                            >happy</p>
                            <div style=""width:240px; margin: auto;"">
