"success","timeout","failed_images","failed_audio","failed_video","trial_type","trial_index","time_elapsed","internal_node_id","subject_id","condition_num","rt","stimulus","response","question_order","slider_start","practiceTrial","practiceTrialNum","correct","image_path","concept","repetition","map_id","map_num","scale_name","orientation_code","mapping_code","rotation_code","ishihara_plate","correct_response"
"true","false","[]","[]","[]","preload","0","305","0.0-0.0","nlbfj8k7dl","47","","","","","","","","","","","","","","","","","","",""
"","","","","","html-button-response","1","5116","0.0-1.0","nlbfj8k7dl","47","4810","Welcome to our experiment!<p>At the bottom of this screen, you will see a button that says ""Begin Experiment"".<br>Please only click that button when you are ready to complete the 30 minute experiment in one sitting.</p><p> Once you click that button, it will not be possible to restart the experiment.","0","","","","","","","","","","","","","","","",""
"true","","","","","fullscreen","2","8700","0.0-2.0","nlbfj8k7dl","47","2581","","","","","","","","","","","","","","","","","",""
"","","","","","survey-multi-select","3","59055","0.0-3.0","nlbfj8k7dl","47","50351","","{""Consent"":[""<strong>I consent</strong>""]}","[0]","","","","","","","","","","","","","","",""
"","","","","","html-button-response","4","63382","0.0-4.0","nlbfj8k7dl","47","4326","Welcome! <p> This experiment involves two parts: demographic information, followed by the experimental task.<p> It will take about 30 minutes to complete both parts.","0","","","","","","","","","","","","","","","",""
"","","","","","survey-text","5","73633","0.0-5.0","nlbfj8k7dl","47","10237","","{""Age"":""19"",""Gender"":""male"",""Race/ethnicity"":""caucasian"",""Languages"":""english""}","","","","","","","","","","","","","","","",""
"","","","","","html-slider-response","6","171299","0.0-6.0","nlbfj8k7dl","47","97663","<div style='text-align:left; font-size:20px; line-height:25px; width: 1000px;'>
                                During this experiment you will be asked to rate how much you associate maps with                    different concepts.<br> Below, you can see some examples of the maps you will be asked to rate. Above the maps
                    is the list of concepts.<br>You will be asked                    to rate how much you associate each map with each concept on a scale from 'not at all' to 'very much' like the
                    one below. <br><br>
                    Now, please look at the list of concepts and maps. For each concept, think about the map you associate 'very
                    much' with the concept.<br>                     When you see that map during the experiment, please rate it near the 'very much' endpoint of the
                    scale.<br>Now, please think about which map you associate 'not at all'                     with each concept. When you see that map during the experiment, please rate it near the 'not at all' endpoint
                    of the scale.<br>
                    Please use the full range of the scale. That is, if a map is somewhat associated with the concept, you would
                    click partway between the middle point and right side of the scale.                    You will be asked to rate each map for a given concept before moving on to the next concept.<br>Press the
                    'Continue' button for instructions on how to use the slider.                    <br>
                </div>

                <div style=""width: 500px; margin: 0 auto;"">
                    <!-- Centered text paragraphs -->
                    <div style=""text-align: center; width: 500px;"">
                        <p style=""font-size:25px; line-height:15px;"">
                            angry&nbsp;&nbsp;&nbsp;&nbsp;
                            happy&nbsp;&nbsp;&nbsp;&nbsp;
                            fearful&nbsp;&nbsp;&nbsp;&nbsp;
                            sad&nbsp;&nbsp;&nbsp;&nbsp;
                            disgust
                        </p>
                        <!-- <p style=""font-size:20px; line-height:15px;"">happy</p>
                        <p style=""font-size:20px;line-height:15px;"">fearful</p>
                        <p style=""font-size:20px;line-height:15px;"">sad</p>
                        <p style=""font-size:20px;line-height:15px;"">disgust</p> -->
                    </div>
            

                    <!-- Grid section -->
                   <div style=""display: flex; justify-content: center; padding-top: 15px;"">
                    <div style=""display: grid; grid-template-columns: repeat(10, 55px); grid-gap: 5px; width: auto;"">
                        <img src=""images/map13_turbo_scaleRev_orientMir_180.png"" alt=""map"" style=""width: 100%;""><img src=""images/map27_BuPu_scaleDef_orientMir_270.png"" alt=""map"" style=""width: 100%;""><img src=""images/map26_Reds_scaleDef_orientDef_270.png"" alt=""map"" style=""width: 100%;""><img src=""images/map23_Purples_scaleRev_orientMir_000.png"" alt=""map"" style=""width: 100%;""><img src=""images/map05_BuGn_scaleRev_orientDef_180.png"" alt=""map"" style=""width: 100%;""><img src=""images/map12_berlin_scaleRev_orientMir_180.png"" alt=""map"" style=""width: 100%;""><img src=""images/map26_YlOrRd_scaleDef_orientMir_270.png"" alt=""map"" style=""width: 100%;""><img src=""images/map15_plasma_scaleDef_orientDef_090.png"" alt=""map"" style=""width: 100%;""><img src=""images/map07_RdBu_scaleDef_orientMir_270.png"" alt=""map"" style=""width: 100%;""><img src=""images/map27_RdPu_scaleRev_orientMir_180.png"" alt=""map"" style=""width: 100%;""><img src=""images/map12_seismic_scaleRev_orientMir_000.png"" alt=""map"" style=""width: 100%;""><img src=""images/map10_RdYlGn_scaleDef_orientDef_270.png"" alt=""map"" style=""width: 100%;""><img src=""images/map02_GnBu_scaleDef_orientDef_090.png"" alt=""map"" style=""width: 100%;""><img src=""images/map15_magma_scaleDef_orientMir_090.png"" alt=""map"" style=""width: 100%;""><img src=""images/map02_YlGnBu_scaleRev_orientMir_180.png"" alt=""map"" style=""width: 100%;""><img src=""images/map23_Blues_scaleDef_orientMir_090.png"" alt=""map"" style=""width: 100%;""><img src=""images/map13_viridis_scaleDef_orientMir_270.png"" alt=""map"" style=""width: 100%;""><img src=""images/map27_PuRd_scaleDef_orientDef_270.png"" alt=""map"" style=""width: 100%;""><img src=""images/map23_Greens_scaleDef_orientMir_270.png"" alt=""map"" style=""width: 100%;""><img src=""images/map10_RdYlBu_scaleRev_orientDef_180.png"" alt=""map"" style=""width: 100%;""><img src=""images/map02_PuBu_scaleRev_orientMir_000.png"" alt=""map"" style=""width: 100%;""><img src=""images/map27_OrRd_scaleDef_orientDef_090.png"" alt=""map"" style=""width: 100%;""><img src=""images/map13_gist_earth_scaleDef_orientDef_270.png"" alt=""map"" style=""width: 100%;""><img src=""images/map15_cividis_scaleDef_orientMir_270.png"" alt=""map"" style=""width: 100%;""><img src=""images/map26_Oranges_scaleRev_orientDef_180.png"" alt=""map"" style=""width: 100%;""><img src=""images/map07_PuOr_scaleDef_orientDef_270.png"" alt=""map"" style=""width: 100%;""><img src=""images/map05_PRGn_scaleDef_orientMir_270.png"" alt=""map"" style=""width: 100%;""><img src=""images/map13_vanimo_scaleDef_orientDef_090.png"" alt=""map"" style=""width: 100%;""><img src=""images/map26_YlOrBr_scaleDef_orientMir_090.png"" alt=""map"" style=""width: 100%;""><img src=""images/map10_Spectral_scaleRev_orientMir_180.png"" alt=""map"" style=""width: 100%;""><img src=""images/map10_coolwarm_scaleDef_orientMir_270.png"" alt=""map"" style=""width: 100%;""><img src=""images/map23_Greys_scaleDef_orientDef_090.png"" alt=""map"" style=""width: 100%;""><img src=""images/map07_BrBG_scaleDef_orientDef_090.png"" alt=""map"" style=""width: 100%;""><img src=""images/map12_managua_scaleDef_orientMir_270.png"" alt=""map"" style=""width: 100%;""><img src=""images/map07_RdGy_scaleDef_orientMir_090.png"" alt=""map"" style=""width: 100%;""><img src=""images/map05_PiYG_scaleRev_orientMir_180.png"" alt=""map"" style=""width: 100%;""><img src=""images/map15_inferno_scaleDef_orientDef_270.png"" alt=""map"" style=""width: 100%;""><img src=""images/map02_PuBuGn_scaleDef_orientMir_270.png"" alt=""map"" style=""width: 100%;""><img src=""images/map05_YlGn_scaleRev_orientMir_000.png"" alt=""map"" style=""width: 100%;""><img src=""images/map12_bwr_scaleRev_orientDef_180.png"" alt=""map"" style=""width: 100%;"">
                    </div>
                </div>

                    <!-- Clear floats -->
                    <div style=""clear: both;""></div>
                </div>
                            ","null","","0","true","","","","","","","","","","","","",""
"","","","","","html-button-response","7","173898","0.0-7.0","nlbfj8k7dl","47","2594","<div style=""width:800px;""><p style=""text-align:left"">To move the slider, click and drag your cursor to the location of the scale where you would like to make your rating and then let go. When you let go of the slider, your response will be recorded and the next trial will begin. <br>
                    We are interested in your initial impressions of each map for the given concept, so please go with your first intuition. <br>
                    Before you begin the experiment, there will be four training trials for you to practice using the scale. <br>
                     When you are ready to start the training trials, please click ""Continue"".</p><br></div>","0","","","","","","","","","","","","","","","",""
"","","","","","html-slider-response","8","176626","0.0-8.0-0.0","nlbfj8k7dl","47","NaN","<div style=""width:500px;"">
                                    <p style=""font-size:25px;"">Please move the slider all the way to the <br> right endpoint of the scale</p>

                                    </div>
                                </div>","200","","0","true","0","true","","","","","","","","","","",""
"","","","","","html-button-response","9","178031","0.0-8.0-1.0","nlbfj8k7dl","47","902","<p align='center'><b>Good job!</b> Click on 'Continue' to proceed.</p>","0","","","","","","","","","","","","","","","",""
"","","","","","html-slider-response","10","179209","0.0-9.0-0.0","nlbfj8k7dl","47","NaN","<div style=""width:500px;"">
                                    <p style=""font-size:25px;"">Please move the slider all the way to the <br> left endpoint of the scale</p>

                                    </div>
                                </div>","-194","","0","true","1","true","","","","","","","","","","",""
"","","","","","html-button-response","11","180283","0.0-9.0-1.0","nlbfj8k7dl","47","570","<p align='center'><b>Good job!</b> Click on 'Continue' to proceed.</p>","0","","","","","","","","","","","","","","","",""
"","","","","","html-slider-response","12","183491","0.0-10.0-0.0","nlbfj8k7dl","47","NaN","<div style=""width:500px;"">
                                    <p style=""font-size:25px;"">Please move the slider halfway between the center and right endpoint of the scale</p>

                                    </div>
                                </div>","101","","0","true","2","true","","","","","","","","","","",""
"","","","","","html-button-response","13","184747","0.0-10.0-1.0","nlbfj8k7dl","47","755","<p align='center'><b>Good job!</b> Click on 'Continue' to proceed.</p>","0","","","","","","","","","","","","","","","",""
"","","","","","html-slider-response","14","186642","0.0-11.0-0.0","nlbfj8k7dl","47","NaN","<div style=""width:500px;"">
                                    <p style=""font-size:25px;"">Please move the slider halfway between the center and left endpoint of the scale</p>

                                    </div>
                                </div>","-103","","0","true","3","true","","","","","","","","","","",""
"","","","","","html-button-response","15","187831","0.0-11.0-1.0","nlbfj8k7dl","47","687","<p align='center'><b>Good job!</b> Click on 'Continue' to proceed.</p>","0","","","","","","","","","","","","","","","",""
"","","","","","html-button-response","16","188748","0.0-12.0","nlbfj8k7dl","47","916","<p>Great job! You've completed the practice trials. Now you will begin the main task.</p>","0","","","","","","","","","","","","","","","",""
"","","","","","html-button-response","17","192264","0.0-13.0","nlbfj8k7dl","47","3515","<p>In this block of trials, you will be asked to rate how much you associate each map with:</p > <p style = 'font-size:150%; font-weight: bold'>angry</p><br></br>","0","","","","","","","","","","","","","","","",""
"","","","","","html-slider-response","18","195609","0.0-14.0","nlbfj8k7dl","47","NaN","<div style=""width:500px;"">
                            <p style=""font-size:50px; font-weight:bold;""
                            >angry</p>
                            <div style=""width:240px; margin: auto;"">
                                <img src=""images/map05_YlGn_scaleDef_orientDef_270.png"" style= ""width:200px""alt=""img"">
                            </div>
                        </div>","-35","","0","","","","images/map05_YlGn_scaleDef_orientDef_270.png","angry","1","05","05","YlGn","orientDef","scaleDef","270","",""
"","","","","","html-slider-response","19","197991","0.0-15.0","nlbfj8k7dl","47","NaN","<div style=""width:500px;"">
                            <p style=""font-size:50px; font-weight:bold;""
                            >angry</p>
                            <div style=""width:240px; margin: auto;"">
                                <img src=""images/map12_seismic_scaleRev_orientMir_000.png"" style= ""width:200px""alt=""img"">
                            </div>
                        </div>","166","","0","","","","images/map12_seismic_scaleRev_orientMir_000.png","angry","1","12","12","seismic","orientMir","scaleRev","000","",""
"","","","","","html-slider-response","20","199092","0.0-16.0","nlbfj8k7dl","47","NaN","<div style=""width:500px;"">
                            <p style=""font-size:50px; font-weight:bold;""
                            >angry</p>
                            <div style=""width:240px; margin: auto;"">
                                <img src=""images/map26_Reds_scaleRev_orientMir_000.png"" style= ""width:200px""alt=""img"">
                            </div>
                        </div>","166","","0","","","","images/map26_Reds_scaleRev_orientMir_000.png","angry","1","26","26","Reds","orientMir","scaleRev","000","",""
"","","","","","html-slider-response","21","200525","0.0-17.0","nlbfj8k7dl","47","NaN","<div style=""width:500px;"">
                            <p style=""font-size:50px; font-weight:bold;""
                            >angry</p>
                            <div style=""width:240px; margin: auto;"">
                                <img src=""images/map26_Oranges_scaleDef_orientDef_090.png"" style= ""width:200px""alt=""img"">
                            </div>
                        </div>","190","","0","","","","images/map26_Oranges_scaleDef_orientDef_090.png","angry","1","26","26","Oranges","orientDef","scaleDef","090","",""
"","","","","","html-slider-response","22","202257","0.0-18.0","nlbfj8k7dl","47","NaN","<div style=""width:500px;"">
                            <p style=""font-size:50px; font-weight:bold;""
                            >angry</p>
                            <div style=""width:240px; margin: auto;"">
                                <img src=""images/map10_Spectral_scaleRev_orientMir_180.png"" style= ""width:200px""alt=""img"">
                            </div>
                        </div>","42","","0","","","","images/map10_Spectral_scaleRev_orientMir_180.png","angry","1","10","10","Spectral","orientMir","scaleRev","180","",""
"","","","","","html-slider-response","23","203992","0.0-19.0","nlbfj8k7dl","47","NaN","<div style=""width:500px;"">
                            <p style=""font-size:50px; font-weight:bold;""
                            >angry</p>
                            <div style=""width:240px; margin: auto;"">
                                <img src=""images/map05_PuBuGn_scaleRev_orientDef_000.png"" style= ""width:200px""alt=""img"">
                            </div>
                        </div>","-133","","0","","","","images/map05_PuBuGn_scaleRev_orientDef_000.png","angry","1","05","05","PuBuGn","orientDef","scaleRev","000","",""
"","","","","","html-slider-response","24","206175","0.0-20.0","nlbfj8k7dl","47","NaN","<div style=""width:500px;"">
                            <p style=""font-size:50px; font-weight:bold;""
                            >angry</p>
                            <div style=""width:240px; margin: auto;"">
                                <img src=""images/map12_bwr_scaleDef_orientDef_090.png"" style= ""width:200px""alt=""img"">
                            </div>
                        </div>","43","","0","","","","images/map12_bwr_scaleDef_orientDef_090.png","angry","1","12","12","bwr","orientDef","scaleDef","090","",""
"","","","","","html-slider-response","25","207859","0.0-21.0","nlbfj8k7dl","47","NaN","<div style=""width:500px;"">
                            <p style=""font-size:50px; font-weight:bold;""
                            >angry</p>
                            <div style=""width:240px; margin: auto;"">
                                <img src=""images/map27_YlOrRd_scaleRev_orientDef_000.png"" style= ""width:200px""alt=""img"">
                            </div>
                        </div>","198","","0","","","","images/map27_YlOrRd_scaleRev_orientDef_000.png","angry","1","27","27","YlOrRd","orientDef","scaleRev","000","",""
"","","","","","html-slider-response","26","209524","0.0-22.0","nlbfj8k7dl","47","NaN","<div style=""width:500px;"">
                            <p style=""font-size:50px; font-weight:bold;""
                            >angry</p>
                            <div style=""width:240px; margin: auto;"">
                                <img src=""images/map02_YlGnBu_scaleRev_orientMir_180.png"" style= ""width:200px""alt=""img"">
                            </div>
                        </div>","-105","","0","","","","images/map02_YlGnBu_scaleRev_orientMir_180.png","angry","1","02","02","YlGnBu","orientMir","scaleRev","180","",""
"","","","","","html-slider-response","27","211791","0.0-23.0","nlbfj8k7dl","47","NaN","<div style=""width:500px;"">
                            <p style=""font-size:50px; font-weight:bold;""
                            >angry</p>
                            <div style=""width:240px; margin: auto;"">
                                <img src=""images/map05_PRGn_scaleDef_orientMir_270.png"" style= ""width:200px""alt=""img"">
                            </div>
                        </div>","21","","0","","","","images/map05_PRGn_scaleDef_orientMir_270.png","angry","1","05","05","PRGn","orientMir","scaleDef","270","",""
"","","","","","html-slider-response","28","214325","0.0-24.0","nlbfj8k7dl","47","NaN","<div style=""width:500px;"">
                            <p style=""font-size:50px; font-weight:bold;""
                            >angry</p>
                            <div style=""width:240px; margin: auto;"">
                                <img src=""images/map27_BuPu_scaleDef_orientMir_270.png"" style= ""width:200px""alt=""img"">
                            </div>
                        </div>","13","","0","","","","images/map27_BuPu_scaleDef_orientMir_270.png","angry","1","27","27","BuPu","orientMir","scaleDef","270","",""
"","","","","","html-slider-response","29","216208","0.0-25.0","nlbfj8k7dl","47","NaN","<div style=""width:500px;"">
                            <p style=""font-size:50px; font-weight:bold;""
                            >angry</p>
                            <div style=""width:240px; margin: auto;"">
                                <img src=""images/map02_PuBu_scaleDef_orientDef_270.png"" style= ""width:200px""alt=""img"">
                            </div>
                        </div>","-182","","0","","","","images/map02_PuBu_scaleDef_orientDef_270.png","angry","1","02","02","PuBu","orientDef","scaleDef","270","",""
"","","","","","html-slider-response","30","218307","0.0-26.0","nlbfj8k7dl","47","NaN","<div style=""width:500px;"">
                            <p style=""font-size:50px; font-weight:bold;""
                            >angry</p>
                            <div style=""width:240px; margin: auto;"">
                                <img src=""images/map12_managua_scaleDef_orientMir_270.png"" style= ""width:200px""alt=""img"">
                            </div>
                        </div>","-43","","0","","","","images/map12_managua_scaleDef_orientMir_270.png","angry","1","12","12","managua","orientMir","scaleDef","270","",""
"","","","","","html-slider-response","31","220424","0.0-27.0","nlbfj8k7dl","47","NaN","<div style=""width:500px;"">
                            <p style=""font-size:50px; font-weight:bold;""
                            >angry</p>
                            <div style=""width:240px; margin: auto;"">
                                <img src=""images/map15_viridis_scaleRev_orientDef_000.png"" style= ""width:200px""alt=""img"">
                            </div>
                        </div>","21","","0","","","","images/map15_viridis_scaleRev_orientDef_000.png","angry","1","15","15","viridis","orientDef","scaleRev","000","",""
"","","","","","html-slider-response","32","222142","0.0-28.0","nlbfj8k7dl","47","NaN","<div style=""width:500px;"">
                            <p style=""font-size:50px; font-weight:bold;""
                            >angry</p>
                            <div style=""width:240px; margin: auto;"">
                                <img src=""images/map12_bwr_scaleRev_orientDef_180.png"" style= ""width:200px""alt=""img"">
                            </div>
                        </div>","124","","0","","","","images/map12_bwr_scaleRev_orientDef_180.png","angry","1","12","12","bwr","orientDef","scaleRev","180","",""
"","","","","","html-slider-response","33","224225","0.0-29.0","nlbfj8k7dl","47","NaN","<div style=""width:500px;"">
                            <p style=""font-size:50px; font-weight:bold;""
                            >angry</p>
                            <div style=""width:240px; margin: auto;"">
                                <img src=""images/map02_PuBu_scaleRev_orientMir_000.png"" style= ""width:200px""alt=""img"">
                            </div>
                        </div>","-195","","0","","","","images/map02_PuBu_scaleRev_orientMir_000.png","angry","1","02","02","PuBu","orientMir","scaleRev","000","",""
"","","","","","html-slider-response","34","226575","0.0-30.0","nlbfj8k7dl","47","NaN","<div style=""width:500px;"">
                            <p style=""font-size:50px; font-weight:bold;""
                            >angry</p>
                            <div style=""width:240px; margin: auto;"">
                                <img src=""images/map10_RdYlGn_scaleRev_orientMir_000.png"" style= ""width:200px""alt=""img"">
                            </div>
                        </div>","127","","0","","","","images/map10_RdYlGn_scaleRev_orientMir_000.png","angry","1","10","10","RdYlGn","orientMir","scaleRev","000","",""
"","","","","","html-slider-response","35","228092","0.0-31.0","nlbfj8k7dl","47","NaN","<div style=""width:500px;"">
                            <p style=""font-size:50px; font-weight:bold;""
                            >angry</p>
                            <div style=""width:240px; margin: auto;"">
                                <img src=""images/map15_inferno_scaleDef_orientDef_270.png"" style= ""width:200px""alt=""img"">
                            </div>
                        </div>","192","","0","","","","images/map15_inferno_scaleDef_orientDef_270.png","angry","1","15","15","inferno","orientDef","scaleDef","270","",""
"","","","","","html-slider-response","36","230575","0.0-32.0","nlbfj8k7dl","47","NaN","<div style=""width:500px;"">
                            <p style=""font-size:50px; font-weight:bold;""
                            >angry</p>
                            <div style=""width:240px; margin: auto;"">
                                <img src=""images/map13_vanimo_scaleDef_orientDef_090.png"" style= ""width:200px""alt=""img"">
                            </div>
                        </div>","52","","0","","","","images/map13_vanimo_scaleDef_orientDef_090.png","angry","1","13","13","vanimo","orientDef","scaleDef","090","",""
"","","","","","html-slider-response","37","232425","0.0-33.0","nlbfj8k7dl","47","NaN","<div style=""width:500px;"">
                            <p style=""font-size:50px; font-weight:bold;""
                            >angry</p>
                            <div style=""width:240px; margin: auto;"">
                                <img src=""images/map23_Greens_scaleDef_orientMir_270.png"" style= ""width:200px""alt=""img"">
                            </div>
                        </div>","36","","0","","","","images/map23_Greens_scaleDef_orientMir_270.png","angry","1","23","23","Greens","orientMir","scaleDef","270","",""
"","","","","","html-slider-response","38","234974","0.0-34.0","nlbfj8k7dl","47","NaN","<div style=""width:500px;"">
                            <p style=""font-size:50px; font-weight:bold;""
                            >angry</p>
                            <div style=""width:240px; margin: auto;"">
                                <img src=""images/map15_magma_scaleDef_orientMir_090.png"" style= ""width:200px""alt=""img"">
                            </div>
                        </div>","178","","0","","","","images/map15_magma_scaleDef_orientMir_090.png","angry","1","15","15","magma","orientMir","scaleDef","090","",""
"","","","","","html-slider-response","39","237025","0.0-35.0","nlbfj8k7dl","47","NaN","<div style=""width:500px;"">
                            <p style=""font-size:50px; font-weight:bold;""
                            >angry</p>
                            <div style=""width:240px; margin: auto;"">
                                <img src=""images/map23_Greys_scaleRev_orientDef_180.png"" style= ""width:200px""alt=""img"">
                            </div>
                        </div>","0","","0","","","","images/map23_Greys_scaleRev_orientDef_180.png","angry","1","23","23","Greys","orientDef","scaleRev","180","",""
"","","","","","html-slider-response","40","240409","0.0-36.0","nlbfj8k7dl","47","NaN","<div style=""width:500px;"">
                            <p style=""font-size:50px; font-weight:bold;""
                            >angry</p>
                            <div style=""width:240px; margin: auto;"">
                                <img src=""images/map07_PRGn_scaleRev_orientDef_000.png"" style= ""width:200px""alt=""img"">
                            </div>
                        </div>","11","","0","","","","images/map07_PRGn_scaleRev_orientDef_000.png","angry","1","07","07","PRGn","orientDef","scaleRev","000","",""
"","","","","","html-slider-response","41","242774","0.0-37.0","nlbfj8k7dl","47","NaN","<div style=""width:500px;"">
                            <p style=""font-size:50px; font-weight:bold;""
                            >angry</p>
                            <div style=""width:240px; margin: auto;"">
                                <img src=""images/map10_RdYlBu_scaleRev_orientDef_180.png"" style= ""width:200px""alt=""img"">
                            </div>
                        </div>","134","","0","","","","images/map10_RdYlBu_scaleRev_orientDef_180.png","angry","1","10","10","RdYlBu","orientDef","scaleRev","180","",""
"","","","","","html-slider-response","42","244909","0.0-38.0","nlbfj8k7dl","47","NaN","<div style=""width:500px;"">
                            <p style=""font-size:50px; font-weight:bold;""
                            >angry</p>
                            <div style=""width:240px; margin: auto;"">
                                <img src=""images/map12_coolwarm_scaleRev_orientDef_000.png"" style= ""width:200px""alt=""img"">
                            </div>
                        </div>","70","","0","","","","images/map12_coolwarm_scaleRev_orientDef_000.png","angry","1","12","12","coolwarm","orientDef","scaleRev","000","",""
"","","","","","html-slider-response","43","247226","0.0-39.0","nlbfj8k7dl","47","NaN","<div style=""width:500px;"">
                            <p style=""font-size:50px; font-weight:bold;""
                            >angry</p>
                            <div style=""width:240px; margin: auto;"">
                                <img src=""images/map02_PuBuGn_scaleDef_orientMir_270.png"" style= ""width:200px""alt=""img"">
                            </div>
                        </div>","-155","","0","","","","images/map02_PuBuGn_scaleDef_orientMir_270.png","angry","1","02","02","PuBuGn","orientMir","scaleDef","270","",""
"","","","","","html-slider-response","44","249392","0.0-40.0","nlbfj8k7dl","47","NaN","<div style=""width:500px;"">
                            <p style=""font-size:50px; font-weight:bold;""
                            >angry</p>
                            <div style=""width:240px; margin: auto;"">
                                <img src=""images/map23_Purples_scaleDef_orientDef_270.png"" style= ""width:200px""alt=""img"">
                            </div>
                        </div>","-26","","0","","","","images/map23_Purples_scaleDef_orientDef_270.png","angry","1","23","23","Purples","orientDef","scaleDef","270","",""
"","","","","","html-slider-response","45","251192","0.0-41.0","nlbfj8k7dl","47","NaN","<div style=""width:500px;"">
                            <p style=""font-size:50px; font-weight:bold;""
                            >angry</p>
                            <div style=""width:240px; margin: auto;"">
                                <img src=""images/map02_YlGnBu_scaleDef_orientMir_090.png"" style= ""width:200px""alt=""img"">
                            </div>
                        </div>","-102","","0","","","","images/map02_YlGnBu_scaleDef_orientMir_090.png","angry","1","02","02","YlGnBu","orientMir","scaleDef","090","",""
"","","","","","html-slider-response","46","253125","0.0-42.0","nlbfj8k7dl","47","NaN","<div style=""width:500px;"">
                            <p style=""font-size:50px; font-weight:bold;""
                            >angry</p>
                            <div style=""width:240px; margin: auto;"">
                                <img src=""images/map27_OrRd_scaleRev_orientDef_180.png"" style= ""width:200px""alt=""img"">
                            </div>
                        </div>","158","","0","","","","images/map27_OrRd_scaleRev_orientDef_180.png","angry","1","27","27","OrRd","orientDef","scaleRev","180","",""
"","","","","","html-slider-response","47","255026","0.0-43.0","nlbfj8k7dl","47","NaN","<div style=""width:500px;"">
                            <p style=""font-size:50px; font-weight:bold;""
                            >angry</p>
                            <div style=""width:240px; margin: auto;"">
                                <img src=""images/map13_viridis_scaleDef_orientMir_270.png"" style= ""width:200px""alt=""img"">
                            </div>
                        </div>","70","","0","","","","images/map13_viridis_scaleDef_orientMir_270.png","angry","1","13","13","viridis","orientMir","scaleDef","270","",""
"","","","","","html-slider-response","48","256792","0.0-44.0","nlbfj8k7dl","47","NaN","<div style=""width:500px;"">
                            <p style=""font-size:50px; font-weight:bold;""
                            >angry</p>
                            <div style=""width:240px; margin: auto;"">
                                <img src=""images/map02_GnBu_scaleDef_orientDef_090.png"" style= ""width:200px""alt=""img"">
                            </div>
                        </div>","-106","","0","","","","images/map02_GnBu_scaleDef_orientDef_090.png","angry","1","02","02","GnBu","orientDef","scaleDef","090","",""
"","","","","","html-slider-response","49","259225","0.0-45.0","nlbfj8k7dl","47","NaN","<div style=""width:500px;"">
                            <p style=""font-size:50px; font-weight:bold;""
                            >angry</p>
                            <div style=""width:240px; margin: auto;"">
                                <img src=""images/map26_YlOrBr_scaleDef_orientMir_090.png"" style= ""width:200px""alt=""img"">
                            </div>
                        </div>","98","","0","","","","images/map26_YlOrBr_scaleDef_orientMir_090.png","angry","1","26","26","YlOrBr","orientMir","scaleDef","090","",""
"","","","","","html-slider-response","50","260958","0.0-46.0","nlbfj8k7dl","47","NaN","<div style=""width:500px;"">
                            <p style=""font-size:50px; font-weight:bold;""
                            >angry</p>
                            <div style=""width:240px; margin: auto;"">
                                <img src=""images/map13_gist_earth_scaleRev_orientMir_000.png"" style= ""width:200px""alt=""img"">
                            </div>
                        </div>","-37","","0","","","","images/map13_gist_earth_scaleRev_orientMir_000.png","angry","1","13","13","gist","scaleRev","earth","orientMir","",""
"","","","","","html-slider-response","51","262558","0.0-47.0","nlbfj8k7dl","47","NaN","<div style=""width:500px;"">
                            <p style=""font-size:50px; font-weight:bold;""
                            >angry</p>
                            <div style=""width:240px; margin: auto;"">
                                <img src=""images/map27_RdPu_scaleDef_orientMir_090.png"" style= ""width:200px""alt=""img"">
                            </div>
                        </div>","69","","0","","","","images/map27_RdPu_scaleDef_orientMir_090.png","angry","1","27","27","RdPu","orientMir","scaleDef","090","",""
"","","","","","html-slider-response","52","264125","0.0-48.0","nlbfj8k7dl","47","NaN","<div style=""width:500px;"">
                            <p style=""font-size:50px; font-weight:bold;""
                            >angry</p>
                            <div style=""width:240px; margin: auto;"">
                                <img src=""images/map13_turbo_scaleDef_orientMir_090.png"" style= ""width:200px""alt=""img"">
                            </div>
                        </div>","-27","","0","","","","images/map13_turbo_scaleDef_orientMir_090.png","angry","1","13","13","turbo","orientMir","scaleDef","090","",""
"","","","","","html-slider-response","53","265925","0.0-49.0","nlbfj8k7dl","47","NaN","<div style=""width:500px;"">
                            <p style=""font-size:50px; font-weight:bold;""
                            >angry</p>
                            <div style=""width:240px; margin: auto;"">
                                <img src=""images/map23_Blues_scaleDef_orientMir_090.png"" style= ""width:200px""alt=""img"">
                            </div>
                        </div>","179","","0","","","","images/map23_Blues_scaleDef_orientMir_090.png","angry","1","23","23","Blues","orientMir","scaleDef","090","",""
"","","","","","html-slider-response","54","267974","0.0-50.0","nlbfj8k7dl","47","NaN","<div style=""width:500px;"">
                            <p style=""font-size:50px; font-weight:bold;""
                            >angry</p>
                            <div style=""width:240px; margin: auto;"">
                                <img src=""images/map05_YlGn_scaleRev_orientMir_000.png"" style= ""width:200px""alt=""img"">
                            </div>
                        </div>","10","","0","","","","images/map05_YlGn_scaleRev_orientMir_000.png","angry","1","05","05","YlGn","orientMir","scaleRev","000","",""
"","","","","","html-slider-response","55","269675","0.0-51.0","nlbfj8k7dl","47","NaN","<div style=""width:500px;"">
                            <p style=""font-size:50px; font-weight:bold;""
                            >angry</p>
                            <div style=""width:240px; margin: auto;"">
                                <img src=""images/map26_Oranges_scaleRev_orientDef_180.png"" style= ""width:200px""alt=""img"">
                            </div>
                        </div>","178","","0","","","","images/map26_Oranges_scaleRev_orientDef_180.png","angry","1","26","26","Oranges","orientDef","scaleRev","180","",""
"","","","","","html-slider-response","56","271508","0.0-52.0","nlbfj8k7dl","47","NaN","<div style=""width:500px;"">
                            <p style=""font-size:50px; font-weight:bold;""
                            >angry</p>
                            <div style=""width:240px; margin: auto;"">
                                <img src=""images/map10_RdYlGn_scaleDef_orientDef_270.png"" style= ""width:200px""alt=""img"">
                            </div>
                        </div>","8","","0","","","","images/map10_RdYlGn_scaleDef_orientDef_270.png","angry","1","10","10","RdYlGn","orientDef","scaleDef","270","",""
"","","","","","html-slider-response","57","273008","0.0-53.0","nlbfj8k7dl","47","NaN","<div style=""width:500px;"">
                            <p style=""font-size:50px; font-weight:bold;""
                            >angry</p>
                            <div style=""width:240px; margin: auto;"">
                                <img src=""images/map05_BuGn_scaleDef_orientDef_090.png"" style= ""width:200px""alt=""img"">
                            </div>
                        </div>","8","","0","","","","images/map05_BuGn_scaleDef_orientDef_090.png","angry","1","05","05","BuGn","orientDef","scaleDef","090","",""
"","","","","","html-button-response","58","275647","0.0-54.0","nlbfj8k7dl","47","2136","<p>You are doing great!<br></br> You are halway done with the current block. When you are ready to continue, click the 'Continue' button.</p>","0","","","","","","","","","","","","","","","",""
"","","","","","html-slider-response","59","277275","0.0-55.0","nlbfj8k7dl","47","NaN","<div style=""width:500px;"">
                            <p style=""font-size:50px; font-weight:bold;""
                            >angry</p>
                            <div style=""width:240px; margin: auto;"">
                                <img src=""images/map12_berlin_scaleDef_orientMir_090.png"" style= ""width:200px""alt=""img"">
                            </div>
                        </div>","14","","0","","","","images/map12_berlin_scaleDef_orientMir_090.png","angry","1","12","12","berlin","orientMir","scaleDef","090","",""
"","","","","","html-slider-response","60","278776","0.0-56.0","nlbfj8k7dl","47","NaN","<div style=""width:500px;"">
                            <p style=""font-size:50px; font-weight:bold;""
                            >angry</p>
                            <div style=""width:240px; margin: auto;"">
                                <img src=""images/map27_PuRd_scaleDef_orientDef_270.png"" style= ""width:200px""alt=""img"">
                            </div>
                        </div>","110","","0","","","","images/map27_PuRd_scaleDef_orientDef_270.png","angry","1","27","27","PuRd","orientDef","scaleDef","270","",""
"","","","","","html-slider-response","61","280325","0.0-57.0","nlbfj8k7dl","47","NaN","<div style=""width:500px;"">
                            <p style=""font-size:50px; font-weight:bold;""
                            >angry</p>
                            <div style=""width:240px; margin: auto;"">
                                <img src=""images/map15_plasma_scaleDef_orientDef_090.png"" style= ""width:200px""alt=""img"">
                            </div>
                        </div>","121","","0","","","","images/map15_plasma_scaleDef_orientDef_090.png","angry","1","15","15","plasma","orientDef","scaleDef","090","",""
"","","","","","html-slider-response","62","281808","0.0-58.0","nlbfj8k7dl","47","NaN","<div style=""width:500px;"">
                            <p style=""font-size:50px; font-weight:bold;""
                            >angry</p>
                            <div style=""width:240px; margin: auto;"">
                                <img src=""images/map07_PuOr_scaleRev_orientMir_000.png"" style= ""width:200px""alt=""img"">
                            </div>
                        </div>","14","","0","","","","images/map07_PuOr_scaleRev_orientMir_000.png","angry","1","07","07","PuOr","orientMir","scaleRev","000","",""
"","","","","","html-slider-response","63","283225","0.0-59.0","nlbfj8k7dl","47","NaN","<div style=""width:500px;"">
                            <p style=""font-size:50px; font-weight:bold;""
                            >angry</p>
                            <div style=""width:240px; margin: auto;"">
                                <img src=""images/map26_Reds_scaleDef_orientDef_270.png"" style= ""width:200px""alt=""img"">
                            </div>
                        </div>","184","","0","","","","images/map26_Reds_scaleDef_orientDef_270.png","angry","1","26","26","Reds","orientDef","scaleDef","270","",""
"","","","","","html-slider-response","64","285758","0.0-60.0","nlbfj8k7dl","47","NaN","<div style=""width:500px;"">
                            <p style=""font-size:50px; font-weight:bold;""
                            >angry</p>
                            <div style=""width:240px; margin: auto;"">
                                <img src=""images/map07_RdGy_scaleDef_orientMir_090.png"" style= ""width:200px""alt=""img"">
                            </div>
                        </div>","90","","0","","","","images/map07_RdGy_scaleDef_orientMir_090.png","angry","1","07","07","RdGy","orientMir","scaleDef","090","",""
"","","","","","html-slider-response","65","287775","0.0-61.0","nlbfj8k7dl","47","NaN","<div style=""width:500px;"">
                            <p style=""font-size:50px; font-weight:bold;""
                            >angry</p>
                            <div style=""width:240px; margin: auto;"">
                                <img src=""images/map26_Greens_scaleRev_orientDef_000.png"" style= ""width:200px""alt=""img"">
                            </div>
                        </div>","12","","0","","","","images/map26_Greens_scaleRev_orientDef_000.png","angry","1","26","26","Greens","orientDef","scaleRev","000","",""
"","","","","","html-slider-response","66","289425","0.0-62.0","nlbfj8k7dl","47","NaN","<div style=""width:500px;"">
                            <p style=""font-size:50px; font-weight:bold;""
                            >angry</p>
                            <div style=""width:240px; margin: auto;"">
                                <img src=""images/map07_BrBG_scaleRev_orientDef_180.png"" style= ""width:200px""alt=""img"">
                            </div>
                        </div>","-30","","0","","","","images/map07_BrBG_scaleRev_orientDef_180.png","angry","1","07","07","BrBG","orientDef","scaleRev","180","",""
"","","","","","html-slider-response","67","290892","0.0-63.0","nlbfj8k7dl","47","NaN","<div style=""width:500px;"">
                            <p style=""font-size:50px; font-weight:bold;""
                            >angry</p>
                            <div style=""width:240px; margin: auto;"">
                                <img src=""images/map02_GnBu_scaleRev_orientDef_180.png"" style= ""width:200px""alt=""img"">
                            </div>
                        </div>","-135","","0","","","","images/map02_GnBu_scaleRev_orientDef_180.png","angry","1","02","02","GnBu","orientDef","scaleRev","180","",""
"","","","","","html-slider-response","68","292709","0.0-64.0","nlbfj8k7dl","47","NaN","<div style=""width:500px;"">
                            <p style=""font-size:50px; font-weight:bold;""
                            >angry</p>
                            <div style=""width:240px; margin: auto;"">
                                <img src=""images/map12_berlin_scaleRev_orientMir_180.png"" style= ""width:200px""alt=""img"">
                            </div>
                        </div>","10","","0","","","","images/map12_berlin_scaleRev_orientMir_180.png","angry","1","12","12","berlin","orientMir","scaleRev","180","",""
"","","","","","html-slider-response","69","294291","0.0-65.0","nlbfj8k7dl","47","NaN","<div style=""width:500px;"">
                            <p style=""font-size:50px; font-weight:bold;""
                            >angry</p>
                            <div style=""width:240px; margin: auto;"">
                                <img src=""images/map05_PiYG_scaleDef_orientMir_090.png"" style= ""width:200px""alt=""img"">
                            </div>
                        </div>","42","","0","","","","images/map05_PiYG_scaleDef_orientMir_090.png","angry","1","05","05","PiYG","orientMir","scaleDef","090","",""
"","","","","","html-slider-response","70","295758","0.0-66.0","nlbfj8k7dl","47","NaN","<div style=""width:500px;"">
                            <p style=""font-size:50px; font-weight:bold;""
                            >angry</p>
                            <div style=""width:240px; margin: auto;"">
                                <img src=""images/map27_OrRd_scaleDef_orientDef_090.png"" style= ""width:200px""alt=""img"">
                            </div>
                        </div>","138","","0","","","","images/map27_OrRd_scaleDef_orientDef_090.png","angry","1","27","27","OrRd","orientDef","scaleDef","090","",""
"","","","","","html-slider-response","71","297275","0.0-67.0","nlbfj8k7dl","47","NaN","<div style=""width:500px;"">
                            <p style=""font-size:50px; font-weight:bold;""
                            >angry</p>
                            <div style=""width:240px; margin: auto;"">
                                <img src=""images/map26_YlOrRd_scaleDef_orientMir_270.png"" style= ""width:200px""alt=""img"">
                            </div>
                        </div>","180","","0","","","","images/map26_YlOrRd_scaleDef_orientMir_270.png","angry","1","26","26","YlOrRd","orientMir","scaleDef","270","",""
"","","","","","html-slider-response","72","298775","0.0-68.0","nlbfj8k7dl","47","NaN","<div style=""width:500px;"">
                            <p style=""font-size:50px; font-weight:bold;""
                            >angry</p>
                            <div style=""width:240px; margin: auto;"">
                                <img src=""images/map10_RdYlBu_scaleDef_orientDef_090.png"" style= ""width:200px""alt=""img"">
                            </div>
                        </div>","95","","0","","","","images/map10_RdYlBu_scaleDef_orientDef_090.png","angry","1","10","10","RdYlBu","orientDef","scaleDef","090","",""
"","","","","","html-slider-response","73","300225","0.0-69.0","nlbfj8k7dl","47","NaN","<div style=""width:500px;"">
                            <p style=""font-size:50px; font-weight:bold;""
                            >angry</p>
                            <div style=""width:240px; margin: auto;"">
                                <img src=""images/map15_inferno_scaleRev_orientMir_000.png"" style= ""width:200px""alt=""img"">
                            </div>
                        </div>","178","","0","","","","images/map15_inferno_scaleRev_orientMir_000.png","angry","1","15","15","inferno","orientMir","scaleRev","000","",""
"","","","","","html-slider-response","74","302292","0.0-70.0","nlbfj8k7dl","47","NaN","<div style=""width:500px;"">
                            <p style=""font-size:50px; font-weight:bold;""
                            >angry</p>
                            <div style=""width:240px; margin: auto;"">
                                <img src=""images/map13_turbo_scaleRev_orientMir_180.png"" style= ""width:200px""alt=""img"">
                            </div>
                        </div>","168","","0","","","","images/map13_turbo_scaleRev_orientMir_180.png","angry","1","13","13","turbo","orientMir","scaleRev","180","",""
"","","","","","html-slider-response","75","304275","0.0-71.0","nlbfj8k7dl","47","NaN","<div style=""width:500px;"">
                            <p style=""font-size:50px; font-weight:bold;""
                            >angry</p>
                            <div style=""width:240px; margin: auto;"">
                                <img src=""images/map23_Greys_scaleDef_orientDef_090.png"" style= ""width:200px""alt=""img"">
                            </div>
                        </div>","-6","","0","","","","images/map23_Greys_scaleDef_orientDef_090.png","angry","1","23","23","Greys","orientDef","scaleDef","090","",""
"","","","","","html-slider-response","76","305676","0.0-72.0","nlbfj8k7dl","47","NaN","<div style=""width:500px;"">
                            <p style=""font-size:50px; font-weight:bold;""
                            >angry</p>
                            <div style=""width:240px; margin: auto;"">
                                <img src=""images/map10_coolwarm_scaleDef_orientMir_270.png"" style= ""width:200px""alt=""img"">
                            </div>
                        </div>","32","","0","","","","images/map10_coolwarm_scaleDef_orientMir_270.png","angry","1","10","10","coolwarm","orientMir","scaleDef","270","",""
"","","","","","html-slider-response","77","307091","0.0-73.0","nlbfj8k7dl","47","NaN","<div style=""width:500px;"">
                            <p style=""font-size:50px; font-weight:bold;""
                            >angry</p>
                            <div style=""width:240px; margin: auto;"">
                                <img src=""images/map26_YlOrBr_scaleRev_orientMir_180.png"" style= ""width:200px""alt=""img"">
                            </div>
                        </div>","106","","0","","","","images/map26_YlOrBr_scaleRev_orientMir_180.png","angry","1","26","26","YlOrBr","orientMir","scaleRev","180","",""
"","","","","","html-slider-response","78","308725","0.0-74.0","nlbfj8k7dl","47","NaN","<div style=""width:500px;"">
                            <p style=""font-size:50px; font-weight:bold;""
                            >angry</p>
                            <div style=""width:240px; margin: auto;"">
                                <img src=""images/map07_RdGy_scaleRev_orientMir_180.png"" style= ""width:200px""alt=""img"">
                            </div>
                        </div>","73","","0","","","","images/map07_RdGy_scaleRev_orientMir_180.png","angry","1","07","07","RdGy","orientMir","scaleRev","180","",""
"","","","","","html-slider-response","79","310208","0.0-75.0","nlbfj8k7dl","47","NaN","<div style=""width:500px;"">
                            <p style=""font-size:50px; font-weight:bold;""
                            >angry</p>
                            <div style=""width:240px; margin: auto;"">
                                <img src=""images/map27_RdPu_scaleRev_orientMir_180.png"" style= ""width:200px""alt=""img"">
                            </div>
                        </div>","40","","0","","","","images/map27_RdPu_scaleRev_orientMir_180.png","angry","1","27","27","RdPu","orientMir","scaleRev","180","",""
"","","","","","html-slider-response","80","311892","0.0-76.0","nlbfj8k7dl","47","NaN","<div style=""width:500px;"">
                            <p style=""font-size:50px; font-weight:bold;""
                            >angry</p>
                            <div style=""width:240px; margin: auto;"">
                                <img src=""images/map15_plasma_scaleRev_orientDef_180.png"" style= ""width:200px""alt=""img"">
                            </div>
                        </div>","148","","0","","","","images/map15_plasma_scaleRev_orientDef_180.png","angry","1","15","15","plasma","orientDef","scaleRev","180","",""
"","","","","","html-slider-response","81","313591","0.0-77.0","nlbfj8k7dl","47","NaN","<div style=""width:500px;"">
                            <p style=""font-size:50px; font-weight:bold;""
                            >angry</p>
                            <div style=""width:240px; margin: auto;"">
                                <img src=""images/map10_Spectral_scaleDef_orientMir_090.png"" style= ""width:200px""alt=""img"">
                            </div>
                        </div>","63","","0","","","","images/map10_Spectral_scaleDef_orientMir_090.png","angry","1","10","10","Spectral","orientMir","scaleDef","090","",""
"","","","","","html-slider-response","82","315075","0.0-78.0","nlbfj8k7dl","47","NaN","<div style=""width:500px;"">
                            <p style=""font-size:50px; font-weight:bold;""
                            >angry</p>
                            <div style=""width:240px; margin: auto;"">
                                <img src=""images/map27_PuRd_scaleRev_orientMir_000.png"" style= ""width:200px""alt=""img"">
                            </div>
                        </div>","125","","0","","","","images/map27_PuRd_scaleRev_orientMir_000.png","angry","1","27","27","PuRd","orientMir","scaleRev","000","",""
"","","","","","html-slider-response","83","316825","0.0-79.0","nlbfj8k7dl","47","NaN","<div style=""width:500px;"">
                            <p style=""font-size:50px; font-weight:bold;""
                            >angry</p>
                            <div style=""width:240px; margin: auto;"">
                                <img src=""images/map15_cividis_scaleDef_orientMir_270.png"" style= ""width:200px""alt=""img"">
                            </div>
                        </div>","-55","","0","","","","images/map15_cividis_scaleDef_orientMir_270.png","angry","1","15","15","cividis","orientMir","scaleDef","270","",""
"","","","","","html-slider-response","84","318875","0.0-80.0","nlbfj8k7dl","47","NaN","<div style=""width:500px;"">
                            <p style=""font-size:50px; font-weight:bold;""
                            >angry</p>
                            <div style=""width:240px; margin: auto;"">
                                <img src=""images/map23_cividis_scaleRev_orientDef_000.png"" style= ""width:200px""alt=""img"">
                            </div>
                        </div>","-76","","0","","","","images/map23_cividis_scaleRev_orientDef_000.png","angry","1","23","23","cividis","orientDef","scaleRev","000","",""
"","","","","","html-slider-response","85","320574","0.0-81.0","nlbfj8k7dl","47","NaN","<div style=""width:500px;"">
                            <p style=""font-size:50px; font-weight:bold;""
                            >angry</p>
                            <div style=""width:240px; margin: auto;"">
                                <img src=""images/map23_Purples_scaleRev_orientMir_000.png"" style= ""width:200px""alt=""img"">
                            </div>
                        </div>","-7","","0","","","","images/map23_Purples_scaleRev_orientMir_000.png","angry","1","23","23","Purples","orientMir","scaleRev","000","",""
"","","","","","html-slider-response","86","322192","0.0-82.0","nlbfj8k7dl","47","NaN","<div style=""width:500px;"">
                            <p style=""font-size:50px; font-weight:bold;""
                            >angry</p>
                            <div style=""width:240px; margin: auto;"">
                                <img src=""images/map23_Blues_scaleRev_orientMir_180.png"" style= ""width:200px""alt=""img"">
                            </div>
                        </div>","-164","","0","","","","images/map23_Blues_scaleRev_orientMir_180.png","angry","1","23","23","Blues","orientMir","scaleRev","180","",""
"","","","","","html-slider-response","87","323741","0.0-83.0","nlbfj8k7dl","47","NaN","<div style=""width:500px;"">
                            <p style=""font-size:50px; font-weight:bold;""
                            >angry</p>
                            <div style=""width:240px; margin: auto;"">
                                <img src=""images/map07_BrBG_scaleDef_orientDef_090.png"" style= ""width:200px""alt=""img"">
                            </div>
                        </div>","-44","","0","","","","images/map07_BrBG_scaleDef_orientDef_090.png","angry","1","07","07","BrBG","orientDef","scaleDef","090","",""
"","","","","","html-slider-response","88","325242","0.0-84.0","nlbfj8k7dl","47","NaN","<div style=""width:500px;"">
                            <p style=""font-size:50px; font-weight:bold;""
                            >angry</p>
                            <div style=""width:240px; margin: auto;"">
                                <img src=""images/map13_managua_scaleRev_orientDef_000.png"" style= ""width:200px""alt=""img"">
                            </div>
                        </div>","-46","","0","","","","images/map13_managua_scaleRev_orientDef_000.png","angry","1","13","13","managua","orientDef","scaleRev","000","",""
"","","","","","html-slider-response","89","327008","0.0-85.0","nlbfj8k7dl","47","NaN","<div style=""width:500px;"">
                            <p style=""font-size:50px; font-weight:bold;""
                            >angry</p>
                            <div style=""width:240px; margin: auto;"">
                                <img src=""images/map13_vanimo_scaleRev_orientDef_180.png"" style= ""width:200px""alt=""img"">
                            </div>
                        </div>","29","","0","","","","images/map13_vanimo_scaleRev_orientDef_180.png","angry","1","13","13","vanimo","orientDef","scaleRev","180","",""
"","","","","","html-slider-response","90","328542","0.0-86.0","nlbfj8k7dl","47","NaN","<div style=""width:500px;"">
                            <p style=""font-size:50px; font-weight:bold;""
                            >angry</p>
                            <div style=""width:240px; margin: auto;"">
                                <img src=""images/map12_seismic_scaleDef_orientDef_270.png"" style= ""width:200px""alt=""img"">
                            </div>
                        </div>","140","","0","","","","images/map12_seismic_scaleDef_orientDef_270.png","angry","1","12","12","seismic","orientDef","scaleDef","270","",""
"","","","","","html-slider-response","91","329992","0.0-87.0","nlbfj8k7dl","47","NaN","<div style=""width:500px;"">
                            <p style=""font-size:50px; font-weight:bold;""
                            >angry</p>
                            <div style=""width:240px; margin: auto;"">
                                <img src=""images/map07_PuOr_scaleDef_orientDef_270.png"" style= ""width:200px""alt=""img"">
                            </div>
                        </div>","84","","0","","","","images/map07_PuOr_scaleDef_orientDef_270.png","angry","1","07","07","PuOr","orientDef","scaleDef","270","",""
"","","","","","html-slider-response","92","331459","0.0-88.0","nlbfj8k7dl","47","NaN","<div style=""width:500px;"">
                            <p style=""font-size:50px; font-weight:bold;""
                            >angry</p>
                            <div style=""width:240px; margin: auto;"">
                                <img src=""images/map05_BuGn_scaleRev_orientDef_180.png"" style= ""width:200px""alt=""img"">
                            </div>
                        </div>","31","","0","","","","images/map05_BuGn_scaleRev_orientDef_180.png","angry","1","05","05","BuGn","orientDef","scaleRev","180","",""
"","","","","","html-slider-response","93","332875","0.0-89.0","nlbfj8k7dl","47","NaN","<div style=""width:500px;"">
                            <p style=""font-size:50px; font-weight:bold;""
                            >angry</p>
                            <div style=""width:240px; margin: auto;"">
                                <img src=""images/map05_PiYG_scaleRev_orientMir_180.png"" style= ""width:200px""alt=""img"">
                            </div>
                        </div>","66","","0","","","","images/map05_PiYG_scaleRev_orientMir_180.png","angry","1","05","05","PiYG","orientMir","scaleRev","180","",""
"","","","","","html-slider-response","94","334275","0.0-90.0","nlbfj8k7dl","47","NaN","<div style=""width:500px;"">
                            <p style=""font-size:50px; font-weight:bold;""
                            >angry</p>
                            <div style=""width:240px; margin: auto;"">
                                <img src=""images/map10_RdBu_scaleRev_orientDef_000.png"" style= ""width:200px""alt=""img"">
                            </div>
                        </div>","95","","0","","","","images/map10_RdBu_scaleRev_orientDef_000.png","angry","1","10","10","RdBu","orientDef","scaleRev","000","",""
"","","","","","html-slider-response","95","335608","0.0-91.0","nlbfj8k7dl","47","NaN","<div style=""width:500px;"">
                            <p style=""font-size:50px; font-weight:bold;""
                            >angry</p>
                            <div style=""width:240px; margin: auto;"">
                                <img src=""images/map07_RdBu_scaleDef_orientMir_270.png"" style= ""width:200px""alt=""img"">
                            </div>
                        </div>","138","","0","","","","images/map07_RdBu_scaleDef_orientMir_270.png","angry","1","07","07","RdBu","orientMir","scaleDef","270","",""
"","","","","","html-slider-response","96","337158","0.0-92.0","nlbfj8k7dl","47","NaN","<div style=""width:500px;"">
                            <p style=""font-size:50px; font-weight:bold;""
                            >angry</p>
                            <div style=""width:240px; margin: auto;"">
                                <img src=""images/map02_BuPu_scaleRev_orientDef_000.png"" style= ""width:200px""alt=""img"">
                            </div>
                        </div>","19","","0","","","","images/map02_BuPu_scaleRev_orientDef_000.png","angry","1","02","02","BuPu","orientDef","scaleRev","000","",""
"","","","","","html-slider-response","97","341091","0.0-93.0","nlbfj8k7dl","47","NaN","<div style=""width:500px;"">
                            <p style=""font-size:50px; font-weight:bold;""
                            >angry</p>
                            <div style=""width:240px; margin: auto;"">
                                <img src=""images/map13_gist_earth_scaleDef_orientDef_270.png"" style= ""width:200px""alt=""img"">
                            </div>
                        </div>","18","","0","","","","images/map13_gist_earth_scaleDef_orientDef_270.png","angry","1","13","13","gist","scaleDef","earth","orientDef","",""
"","","","","","html-slider-response","98","342791","0.0-94.0","nlbfj8k7dl","47","NaN","<div style=""width:500px;"">
                            <p style=""font-size:50px; font-weight:bold;""
                            >angry</p>
                            <div style=""width:240px; margin: auto;"">
                                <img src=""images/map15_magma_scaleRev_orientMir_180.png"" style= ""width:200px""alt=""img"">
                            </div>
                        </div>","116","","0","","","","images/map15_magma_scaleRev_orientMir_180.png","angry","1","15","15","magma","orientMir","scaleRev","180","",""
"","","","","","html-button-response","99","345596","0.0-95.0","nlbfj8k7dl","47","2304","<p>Great Job! You've finished block 1.<br></br> You have 4 block(s) left to go.<br></br></p>","0","","","","","","","","","","","","","","","",""
"","","","","","html-button-response","100","346430","0.0-96.0","nlbfj8k7dl","47","833","<p>In this block of trials, you will be asked to rate how much you associate each map with:</p > <p style = 'font-size:150%; font-weight: bold'>happy</p><br></br>","0","","","","","","","","","","","","","","","",""
"","","","","","html-slider-response","101","347624","0.0-97.0","nlbfj8k7dl","47","NaN","<div style=""width:500px;"">
                            <p style=""font-size:50px; font-weight:bold;""
                            >happy</p>
                            <div style=""width:240px; margin: auto;"">
                                <img src=""images/map10_coolwarm_scaleDef_orientMir_270.png"" style= ""width:200px""alt=""img"">
                            </div>
                        </div>","25","","0","","","","images/map10_coolwarm_scaleDef_orientMir_270.png","happy","1","10","10","coolwarm","orientMir","scaleDef","270","",""
"","","","","","html-slider-response","102","349141","0.0-98.0","nlbfj8k7dl","47","NaN","<div style=""width:500px;"">
                            <p style=""font-size:50px; font-weight:bold;""
                            >happy</p>
                            <div style=""width:240px; margin: auto;"">
                                <img src=""images/map07_RdBu_scaleDef_orientMir_270.png"" style= ""width:200px""alt=""img"">
                            </div>
                        </div>","26","","0","","","","images/map07_RdBu_scaleDef_orientMir_270.png","happy","1","07","07","RdBu","orientMir","scaleDef","270","",""
"","","","","","html-slider-response","103","350891","0.0-99.0","nlbfj8k7dl","47","NaN","<div style=""width:500px;"">
                            <p style=""font-size:50px; font-weight:bold;""
                            >happy</p>
                            <div style=""width:240px; margin: auto;"">
                                <img src=""images/map15_magma_scaleDef_orientMir_090.png"" style= ""width:200px""alt=""img"">
                            </div>
                        </div>","-88","","0","","","","images/map15_magma_scaleDef_orientMir_090.png","happy","1","15","15","magma","orientMir","scaleDef","090","",""
"","","","","","html-slider-response","104","352108","0.0-100.0","nlbfj8k7dl","47","NaN","<div style=""width:500px;"">
                            <p style=""font-size:50px; font-weight:bold;""
                            >happy</p>
                            <div style=""width:240px; margin: auto;"">
                                <img src=""images/map07_PuOr_scaleRev_orientMir_000.png"" style= ""width:200px""alt=""img"">
                            </div>
                        </div>","-88","","0","","","","images/map07_PuOr_scaleRev_orientMir_000.png","happy","1","07","07","PuOr","orientMir","scaleRev","000","",""
"","","","","","html-slider-response","105","353341","0.0-101.0","nlbfj8k7dl","47","NaN","<div style=""width:500px;"">
                            <p style=""font-size:50px; font-weight:bold;""
                            >happy</p>
                            <div style=""width:240px; margin: auto;"">
                                <img src=""images/map15_plasma_scaleDef_orientDef_090.png"" style= ""width:200px""alt=""img"">
                            </div>
                        </div>","-86","","0","","","","images/map15_plasma_scaleDef_orientDef_090.png","happy","1","15","15","plasma","orientDef","scaleDef","090","",""
"","","","","","html-slider-response","106","354474","0.0-102.0","nlbfj8k7dl","47","NaN","<div style=""width:500px;"">
                            <p style=""font-size:50px; font-weight:bold;""
                            >happy</p>
                            <div style=""width:240px; margin: auto;"">
                                <img src=""images/map12_bwr_scaleDef_orientDef_090.png"" style= ""width:200px""alt=""img"">
                            </div>
                        </div>","-86","","0","","","","images/map12_bwr_scaleDef_orientDef_090.png","happy","1","12","12","bwr","orientDef","scaleDef","090","",""
"","","","","","html-slider-response","107","355374","0.0-103.0","nlbfj8k7dl","47","NaN","<div style=""width:500px;"">
                            <p style=""font-size:50px; font-weight:bold;""
                            >happy</p>
                            <div style=""width:240px; margin: auto;"">
                                <img src=""images/map23_Greys_scaleDef_orientDef_090.png"" style= ""width:200px""alt=""img"">
                            </div>
                        </div>","-86","","0","","","","images/map23_Greys_scaleDef_orientDef_090.png","happy","1","23","23","Greys","orientDef","scaleDef","090","",""
"","","","","","html-slider-response","108","356224","0.0-104.0","nlbfj8k7dl","47","NaN","<div style=""width:500px;"">
                            <p style=""font-size:50px; font-weight:bold;""
                            >happy</p>
                            <div style=""width:240px; margin: auto;"">
                                <img src=""images/map05_YlGn_scaleRev_orientMir_000.png"" style= ""width:200px""alt=""img"">
                            </div>
                        </div>","-86","","0","","","","images/map05_YlGn_scaleRev_orientMir_000.png","happy","1","05","05","YlGn","orientMir","scaleRev","000","",""
"","","","","","html-slider-response","109","357107","0.0-105.0","nlbfj8k7dl","47","NaN","<div style=""width:500px;"">
                            <p style=""font-size:50px; font-weight:bold;""
                            >happy</p>
                            <div style=""width:240px; margin: auto;"">
                                <img src=""images/map02_YlGnBu_scaleDef_orientMir_090.png"" style= ""width:200px""alt=""img"">
                            </div>
                        </div>","-86","","0","","","","images/map02_YlGnBu_scaleDef_orientMir_090.png","happy","1","02","02","YlGnBu","orientMir","scaleDef","090","",""
"","","","","","html-slider-response","110","357923","0.0-106.0","nlbfj8k7dl","47","NaN","<div style=""width:500px;"">
                            <p style=""font-size:50px; font-weight:bold;""
                            >happy</p>
                            <div style=""width:240px; margin: auto;"">
                                <img src=""images/map13_gist_earth_scaleDef_orientDef_270.png"" style= ""width:200px""alt=""img"">
                            </div>
                        </div>","-86","","0","","","","images/map13_gist_earth_scaleDef_orientDef_270.png","happy","1","13","13","gist","scaleDef","earth","orientDef","",""
"","","","","","html-slider-response","111","358707","0.0-107.0","nlbfj8k7dl","47","NaN","<div style=""width:500px;"">
                            <p style=""font-size:50px; font-weight:bold;""
                            >happy</p>
                            <div style=""width:240px; margin: auto;"">
                                <img src=""images/map23_cividis_scaleRev_orientDef_000.png"" style= ""width:200px""alt=""img"">
                            </div>
                        </div>","-86","","0","","","","images/map23_cividis_scaleRev_orientDef_000.png","happy","1","23","23","cividis","orientDef","scaleRev","000","",""
"","","","","","html-slider-response","112","359640","0.0-108.0","nlbfj8k7dl","47","NaN","<div style=""width:500px;"">
                            <p style=""font-size:50px; font-weight:bold;""
                            >happy</p>
                            <div style=""width:240px; margin: auto;"">
                                <img src=""images/map26_Greens_scaleRev_orientDef_000.png"" style= ""width:200px""alt=""img"">
                            </div>
                        </div>","-86","","0","","","","images/map26_Greens_scaleRev_orientDef_000.png","happy","1","26","26","Greens","orientDef","scaleRev","000","",""
"","","","","","html-slider-response","113","360608","0.0-109.0","nlbfj8k7dl","47","NaN","<div style=""width:500px;"">
                            <p style=""font-size:50px; font-weight:bold;""
                            >happy</p>
                            <div style=""width:240px; margin: auto;"">
                                <img src=""images/map12_seismic_scaleDef_orientDef_270.png"" style= ""width:200px""alt=""img"">
                            </div>
                        </div>","-86","","0","","","","images/map12_seismic_scaleDef_orientDef_270.png","happy","1","12","12","seismic","orientDef","scaleDef","270","",""
"","","","","","html-slider-response","114","361691","0.0-110.0","nlbfj8k7dl","47","NaN","<div style=""width:500px;"">
                            <p style=""font-size:50px; font-weight:bold;""
                            >happy</p>
                            <div style=""width:240px; margin: auto;"">
                                <img src=""images/map26_Oranges_scaleDef_orientDef_090.png"" style= ""width:200px""alt=""img"">
                            </div>
                        </div>","-86","","0","","","","images/map26_Oranges_scaleDef_orientDef_090.png","happy","1","26","26","Oranges","orientDef","scaleDef","090","",""
"","","","","","html-slider-response","115","362941","0.0-111.0","nlbfj8k7dl","47","NaN","<div style=""width:500px;"">
                            <p style=""font-size:50px; font-weight:bold;""
                            >happy</p>
                            <div style=""width:240px; margin: auto;"">
                                <img src=""images/map10_RdYlBu_scaleDef_orientDef_090.png"" style= ""width:200px""alt=""img"">
                            </div>
                        </div>","-86","","0","","","","images/map10_RdYlBu_scaleDef_orientDef_090.png","happy","1","10","10","RdYlBu","orientDef","scaleDef","090","",""
"","","","","","html-slider-response","116","363740","0.0-112.0","nlbfj8k7dl","47","NaN","<div style=""width:500px;"">
                            <p style=""font-size:50px; font-weight:bold;""
                            >happy</p>
                            <div style=""width:240px; margin: auto;"">
                                <img src=""images/map10_RdYlGn_scaleDef_orientDef_270.png"" style= ""width:200px""alt=""img"">
                            </div>
                        </div>","-86","","0","","","","images/map10_RdYlGn_scaleDef_orientDef_270.png","happy","1","10","10","RdYlGn","orientDef","scaleDef","270","",""
"","","","","","html-slider-response","117","364541","0.0-113.0","nlbfj8k7dl","47","NaN","<div style=""width:500px;"">
                            <p style=""font-size:50px; font-weight:bold;""
                            >happy</p>
                            <div style=""width:240px; margin: auto;"">
                                <img src=""images/map15_cividis_scaleDef_orientMir_270.png"" style= ""width:200px""alt=""img"">
                            </div>
                        </div>","-86","","0","","","","images/map15_cividis_scaleDef_orientMir_270.png","happy","1","15","15","cividis","orientMir","scaleDef","270","",""
"","","","","","html-slider-response","118","365257","0.0-114.0","nlbfj8k7dl","47","NaN","<div style=""width:500px;"">
                            <p style=""font-size:50px; font-weight:bold;""
                            >happy</p>
                            <div style=""width:240px; margin: auto;"">
                                <img src=""images/map27_YlOrRd_scaleRev_orientDef_000.png"" style= ""width:200px""alt=""img"">
                            </div>
                        </div>","-86","","0","","","","images/map27_YlOrRd_scaleRev_orientDef_000.png","happy","1","27","27","YlOrRd","orientDef","scaleRev","000","",""
"","","","","","html-slider-response","119","366091","0.0-115.0","nlbfj8k7dl","47","NaN","<div style=""width:500px;"">
                            <p style=""font-size:50px; font-weight:bold;""
                            >happy</p>
                            <div style=""width:240px; margin: auto;"">
                                <img src=""images/map05_PuBuGn_scaleRev_orientDef_000.png"" style= ""width:200px""alt=""img"">
                            </div>
                        </div>","-86","","0","","","","images/map05_PuBuGn_scaleRev_orientDef_000.png","happy","1","05","05","PuBuGn","orientDef","scaleRev","000","",""
"","","","","","html-slider-response","120","366790","0.0-116.0","nlbfj8k7dl","47","NaN","<div style=""width:500px;"">
                            <p style=""font-size:50px; font-weight:bold;""
                            >happy</p>
                            <div style=""width:240px; margin: auto;"">
                                <img src=""images/map05_BuGn_scaleRev_orientDef_180.png"" style= ""width:200px""alt=""img"">
                            </div>
                        </div>","-86","","0","","","","images/map05_BuGn_scaleRev_orientDef_180.png","happy","1","05","05","BuGn","orientDef","scaleRev","180","",""
"","","","","","html-slider-response","121","367691","0.0-117.0","nlbfj8k7dl","47","NaN","<div style=""width:500px;"">
                            <p style=""font-size:50px; font-weight:bold;""
                            >happy</p>
                            <div style=""width:240px; margin: auto;"">
                                <img src=""images/map26_Oranges_scaleRev_orientDef_180.png"" style= ""width:200px""alt=""img"">
                            </div>
                        </div>","-86","","0","","","","images/map26_Oranges_scaleRev_orientDef_180.png","happy","1","26","26","Oranges","orientDef","scaleRev","180","",""
"","","","","","html-slider-response","122","368558","0.0-118.0","nlbfj8k7dl","47","NaN","<div style=""width:500px;"">
                            <p style=""font-size:50px; font-weight:bold;""
                            >happy</p>
                            <div style=""width:240px; margin: auto;"">
                                <img src=""images/map12_seismic_scaleRev_orientMir_000.png"" style= ""width:200px""alt=""img"">
                            </div>
                        </div>","-86","","0","","","","images/map12_seismic_scaleRev_orientMir_000.png","happy","1","12","12","seismic","orientMir","scaleRev","000","",""
"","","","","","html-slider-response","123","369491","0.0-119.0","nlbfj8k7dl","47","NaN","<div style=""width:500px;"">
                            <p style=""font-size:50px; font-weight:bold;""
                            >happy</p>
                            <div style=""width:240px; margin: auto;"">
                                <img src=""images/map26_YlOrRd_scaleDef_orientMir_270.png"" style= ""width:200px""alt=""img"">
                            </div>
                        </div>","-98","","0","","","","images/map26_YlOrRd_scaleDef_orientMir_270.png","happy","1","26","26","YlOrRd","orientMir","scaleDef","270","",""
"","","","","","html-slider-response","124","370474","0.0-120.0","nlbfj8k7dl","47","NaN","<div style=""width:500px;"">
                            <p style=""font-size:50px; font-weight:bold;""
                            >happy</p>
                            <div style=""width:240px; margin: auto;"">
                                <img src=""images/map02_PuBuGn_scaleDef_orientMir_270.png"" style= ""width:200px""alt=""img"">
                            </div>
                        </div>","-137","","0","","","","images/map02_PuBuGn_scaleDef_orientMir_270.png","happy","1","02","02","PuBuGn","orientMir","scaleDef","270","",""
"","","","","","html-slider-response","125","371391","0.0-121.0","nlbfj8k7dl","47","NaN","<div style=""width:500px;"">
                            <p style=""font-size:50px; font-weight:bold;""
                            >happy</p>
                            <div style=""width:240px; margin: auto;"">
                                <img src=""images/map02_YlGnBu_scaleRev_orientMir_180.png"" style= ""width:200px""alt=""img"">
                            </div>
                        </div>","-98","","0","","","","images/map02_YlGnBu_scaleRev_orientMir_180.png","happy","1","02","02","YlGnBu","orientMir","scaleRev","180","",""
"","","","","","html-slider-response","126","372307","0.0-122.0","nlbfj8k7dl","47","NaN","<div style=""width:500px;"">
                            <p style=""font-size:50px; font-weight:bold;""
                            >happy</p>
                            <div style=""width:240px; margin: auto;"">
                                <img src=""images/map10_RdYlBu_scaleRev_orientDef_180.png"" style= ""width:200px""alt=""img"">
                            </div>
                        </div>","-110","","0","","","","images/map10_RdYlBu_scaleRev_orientDef_180.png","happy","1","10","10","RdYlBu","orientDef","scaleRev","180","",""
"","","","","","html-slider-response","127","373174","0.0-123.0","nlbfj8k7dl","47","NaN","<div style=""width:500px;"">
                            <p style=""font-size:50px; font-weight:bold;""
                            >happy</p>
                            <div style=""width:240px; margin: auto;"">
                                <img src=""images/map10_RdBu_scaleRev_orientDef_000.png"" style= ""width:200px""alt=""img"">
                            </div>
                        </div>","-90","","0","","","","images/map10_RdBu_scaleRev_orientDef_000.png","happy","1","10","10","RdBu","orientDef","scaleRev","000","",""
"","","","","","html-slider-response","128","374024","0.0-124.0","nlbfj8k7dl","47","NaN","<div style=""width:500px;"">
                            <p style=""font-size:50px; font-weight:bold;""
                            >happy</p>
                            <div style=""width:240px; margin: auto;"">
                                <img src=""images/map23_Greens_scaleDef_orientMir_270.png"" style= ""width:200px""alt=""img"">
                            </div>
                        </div>","-90","","0","","","","images/map23_Greens_scaleDef_orientMir_270.png","happy","1","23","23","Greens","orientMir","scaleDef","270","",""
"","","","","","html-slider-response","129","374908","0.0-125.0","nlbfj8k7dl","47","NaN","<div style=""width:500px;"">
                            <p style=""font-size:50px; font-weight:bold;""
                            >happy</p>
                            <div style=""width:240px; margin: auto;"">
                                <img src=""images/map27_PuRd_scaleRev_orientMir_000.png"" style= ""width:200px""alt=""img"">
                            </div>
                        </div>","-109","","0","","","","images/map27_PuRd_scaleRev_orientMir_000.png","happy","1","27","27","PuRd","orientMir","scaleRev","000","",""
"","","","","","html-slider-response","130","375858","0.0-126.0","nlbfj8k7dl","47","NaN","<div style=""width:500px;"">
                            <p style=""font-size:50px; font-weight:bold;""
                            >happy</p>
                            <div style=""width:240px; margin: auto;"">
                                <img src=""images/map23_Purples_scaleDef_orientDef_270.png"" style= ""width:200px""alt=""img"">
                            </div>
                        </div>","-74","","0","","","","images/map23_Purples_scaleDef_orientDef_270.png","happy","1","23","23","Purples","orientDef","scaleDef","270","",""
"","","","","","html-slider-response","131","376907","0.0-127.0","nlbfj8k7dl","47","NaN","<div style=""width:500px;"">
                            <p style=""font-size:50px; font-weight:bold;""
                            >happy</p>
                            <div style=""width:240px; margin: auto;"">
                                <img src=""images/map15_viridis_scaleRev_orientDef_000.png"" style= ""width:200px""alt=""img"">
                            </div>
                        </div>","-135","","0","","","","images/map15_viridis_scaleRev_orientDef_000.png","happy","1","15","15","viridis","orientDef","scaleRev","000","",""
"","","","","","html-slider-response","132","378173","0.0-128.0","nlbfj8k7dl","47","NaN","<div style=""width:500px;"">
                            <p style=""font-size:50px; font-weight:bold;""
                            >happy</p>
                            <div style=""width:240px; margin: auto;"">
                                <img src=""images/map07_RdGy_scaleRev_orientMir_180.png"" style= ""width:200px""alt=""img"">
                            </div>
                        </div>","-75","","0","","","","images/map07_RdGy_scaleRev_orientMir_180.png","happy","1","07","07","RdGy","orientMir","scaleRev","180","",""
"","","","","","html-slider-response","133","379640","0.0-129.0","nlbfj8k7dl","47","NaN","<div style=""width:500px;"">
                            <p style=""font-size:50px; font-weight:bold;""
                            >happy</p>
                            <div style=""width:240px; margin: auto;"">
                                <img src=""images/map15_magma_scaleRev_orientMir_180.png"" style= ""width:200px""alt=""img"">
                            </div>
                        </div>","-127","","0","","","","images/map15_magma_scaleRev_orientMir_180.png","happy","1","15","15","magma","orientMir","scaleRev","180","",""
"","","","","","html-slider-response","134","380907","0.0-130.0","nlbfj8k7dl","47","NaN","<div style=""width:500px;"">
                            <p style=""font-size:50px; font-weight:bold;""
                            >happy</p>
                            <div style=""width:240px; margin: auto;"">
                                <img src=""images/map13_viridis_scaleDef_orientMir_270.png"" style= ""width:200px""alt=""img"">
                            </div>
                        </div>","-59","","0","","","","images/map13_viridis_scaleDef_orientMir_270.png","happy","1","13","13","viridis","orientMir","scaleDef","270","",""
"","","","","","html-slider-response","135","382207","0.0-131.0","nlbfj8k7dl","47","NaN","<div style=""width:500px;"">
                            <p style=""font-size:50px; font-weight:bold;""
                            >happy</p>
                            <div style=""width:240px; margin: auto;"">
                                <img src=""images/map27_PuRd_scaleDef_orientDef_270.png"" style= ""width:200px""alt=""img"">
                            </div>
                        </div>","-111","","0","","","","images/map27_PuRd_scaleDef_orientDef_270.png","happy","1","27","27","PuRd","orientDef","scaleDef","270","",""
"","","","","","html-slider-response","136","384124","0.0-132.0","nlbfj8k7dl","47","NaN","<div style=""width:500px;"">
                            <p style=""font-size:50px; font-weight:bold;""
                            >happy</p>
                            <div style=""width:240px; margin: auto;"">
                                <img src=""images/map02_PuBu_scaleDef_orientDef_270.png"" style= ""width:200px""alt=""img"">
                            </div>
                        </div>","110","","0","","","","images/map02_PuBu_scaleDef_orientDef_270.png","happy","1","02","02","PuBu","orientDef","scaleDef","270","",""
"","","","","","html-slider-response","137","385274","0.0-133.0","nlbfj8k7dl","47","NaN","<div style=""width:500px;"">
                            <p style=""font-size:50px; font-weight:bold;""
                            >happy</p>
                            <div style=""width:240px; margin: auto;"">
                                <img src=""images/map27_RdPu_scaleDef_orientMir_090.png"" style= ""width:200px""alt=""img"">
                            </div>
                        </div>","-106","","0","","","","images/map27_RdPu_scaleDef_orientMir_090.png","happy","1","27","27","RdPu","orientMir","scaleDef","090","",""
"","","","","","html-slider-response","138","386241","0.0-134.0","nlbfj8k7dl","47","NaN","<div style=""width:500px;"">
                            <p style=""font-size:50px; font-weight:bold;""
                            >happy</p>
                            <div style=""width:240px; margin: auto;"">
                                <img src=""images/map26_YlOrBr_scaleRev_orientMir_180.png"" style= ""width:200px""alt=""img"">
                            </div>
                        </div>","-106","","0","","","","images/map26_YlOrBr_scaleRev_orientMir_180.png","happy","1","26","26","YlOrBr","orientMir","scaleRev","180","",""
"","","","","","html-slider-response","139","387241","0.0-135.0","nlbfj8k7dl","47","NaN","<div style=""width:500px;"">
                            <p style=""font-size:50px; font-weight:bold;""
                            >happy</p>
                            <div style=""width:240px; margin: auto;"">
                                <img src=""images/map23_Greys_scaleRev_orientDef_180.png"" style= ""width:200px""alt=""img"">
                            </div>
                        </div>","-72","","0","","","","images/map23_Greys_scaleRev_orientDef_180.png","happy","1","23","23","Greys","orientDef","scaleRev","180","",""
"","","","","","html-slider-response","140","388441","0.0-136.0","nlbfj8k7dl","47","NaN","<div style=""width:500px;"">
                            <p style=""font-size:50px; font-weight:bold;""
                            >happy</p>
                            <div style=""width:240px; margin: auto;"">
                                <img src=""images/map13_vanimo_scaleRev_orientDef_180.png"" style= ""width:200px""alt=""img"">
                            </div>
                        </div>","-146","","0","","","","images/map13_vanimo_scaleRev_orientDef_180.png","happy","1","13","13","vanimo","orientDef","scaleRev","180","",""
"","","","","","html-button-response","141","390213","0.0-137.0","nlbfj8k7dl","47","1270","<p>You are doing great!<br></br> You are halway done with the current block. When you are ready to continue, click the 'Continue' button.</p>","0","","","","","","","","","","","","","","","",""
"","","","","","html-slider-response","142","391857","0.0-138.0","nlbfj8k7dl","47","NaN","<div style=""width:500px;"">
                            <p style=""font-size:50px; font-weight:bold;""
                            >happy</p>
                            <div style=""width:240px; margin: auto;"">
                                <img src=""images/map02_GnBu_scaleRev_orientDef_180.png"" style= ""width:200px""alt=""img"">
                            </div>
                        </div>","114","","0","","","","images/map02_GnBu_scaleRev_orientDef_180.png","happy","1","02","02","GnBu","orientDef","scaleRev","180","",""
"","","","","","html-slider-response","143","392857","0.0-139.0","nlbfj8k7dl","47","NaN","<div style=""width:500px;"">
                            <p style=""font-size:50px; font-weight:bold;""
                            >happy</p>
                            <div style=""width:240px; margin: auto;"">
                                <img src=""images/map27_RdPu_scaleRev_orientMir_180.png"" style= ""width:200px""alt=""img"">
                            </div>
                        </div>","-55","","0","","","","images/map27_RdPu_scaleRev_orientMir_180.png","happy","1","27","27","RdPu","orientMir","scaleRev","180","",""
"","","","","","html-slider-response","144","393808","0.0-140.0","nlbfj8k7dl","47","NaN","<div style=""width:500px;"">
                            <p style=""font-size:50px; font-weight:bold;""
                            >happy</p>
                            <div style=""width:240px; margin: auto;"">
                                <img src=""images/map05_PRGn_scaleDef_orientMir_270.png"" style= ""width:200px""alt=""img"">
                            </div>
                        </div>","-98","","0","","","","images/map05_PRGn_scaleDef_orientMir_270.png","happy","1","05","05","PRGn","orientMir","scaleDef","270","",""
"","","","","","html-slider-response","145","395124","0.0-141.0","nlbfj8k7dl","47","NaN","<div style=""width:500px;"">
                            <p style=""font-size:50px; font-weight:bold;""
                            >happy</p>
                            <div style=""width:240px; margin: auto;"">
                                <img src=""images/map23_Blues_scaleDef_orientMir_090.png"" style= ""width:200px""alt=""img"">
                            </div>
                        </div>","126","","0","","","","images/map23_Blues_scaleDef_orientMir_090.png","happy","1","23","23","Blues","orientMir","scaleDef","090","",""
"","","","","","html-slider-response","146","395890","0.0-142.0","nlbfj8k7dl","47","NaN","<div style=""width:500px;"">
                            <p style=""font-size:50px; font-weight:bold;""
                            >happy</p>
                            <div style=""width:240px; margin: auto;"">
                                <img src=""images/map23_Blues_scaleRev_orientMir_180.png"" style= ""width:200px""alt=""img"">
                            </div>
                        </div>","-135","","0","","","","images/map23_Blues_scaleRev_orientMir_180.png","happy","1","23","23","Blues","orientMir","scaleRev","180","",""
"","","","","","html-slider-response","147","397457","0.0-143.0","nlbfj8k7dl","47","NaN","<div style=""width:500px;"">
                            <p style=""font-size:50px; font-weight:bold;""
                            >happy</p>
                            <div style=""width:240px; margin: auto;"">
                                <img src=""images/map05_PiYG_scaleRev_orientMir_180.png"" style= ""width:200px""alt=""img"">
                            </div>
                        </div>","-126","","0","","","","images/map05_PiYG_scaleRev_orientMir_180.png","happy","1","05","05","PiYG","orientMir","scaleRev","180","",""
"","","","","","html-slider-response","148","398507","0.0-144.0","nlbfj8k7dl","47","NaN","<div style=""width:500px;"">
                            <p style=""font-size:50px; font-weight:bold;""
                            >happy</p>
                            <div style=""width:240px; margin: auto;"">
                                <img src=""images/map12_berlin_scaleRev_orientMir_180.png"" style= ""width:200px""alt=""img"">
                            </div>
                        </div>","-79","","0","","","","images/map12_berlin_scaleRev_orientMir_180.png","happy","1","12","12","berlin","orientMir","scaleRev","180","",""
"","","","","","html-slider-response","149","399491","0.0-145.0","nlbfj8k7dl","47","NaN","<div style=""width:500px;"">
                            <p style=""font-size:50px; font-weight:bold;""
                            >happy</p>
                            <div style=""width:240px; margin: auto;"">
                                <img src=""images/map27_BuPu_scaleDef_orientMir_270.png"" style= ""width:200px""alt=""img"">
                            </div>
                        </div>","-123","","0","","","","images/map27_BuPu_scaleDef_orientMir_270.png","happy","1","27","27","BuPu","orientMir","scaleDef","270","",""
"","","","","","html-slider-response","150","400540","0.0-146.0","nlbfj8k7dl","47","NaN","<div style=""width:500px;"">
                            <p style=""font-size:50px; font-weight:bold;""
                            >happy</p>
                            <div style=""width:240px; margin: auto;"">
                                <img src=""images/map13_turbo_scaleDef_orientMir_090.png"" style= ""width:200px""alt=""img"">
                            </div>
                        </div>","-83","","0","","","","images/map13_turbo_scaleDef_orientMir_090.png","happy","1","13","13","turbo","orientMir","scaleDef","090","",""
"","","","","","html-slider-response","151","401574","0.0-147.0","nlbfj8k7dl","47","NaN","<div style=""width:500px;"">
                            <p style=""font-size:50px; font-weight:bold;""
                            >happy</p>
                            <div style=""width:240px; margin: auto;"">
                                <img src=""images/map07_PRGn_scaleRev_orientDef_000.png"" style= ""width:200px""alt=""img"">
                            </div>
                        </div>","-118","","0","","","","images/map07_PRGn_scaleRev_orientDef_000.png","happy","1","07","07","PRGn","orientDef","scaleRev","000","",""
"","","","","","html-slider-response","152","402641","0.0-148.0","nlbfj8k7dl","47","NaN","<div style=""width:500px;"">
                            <p style=""font-size:50px; font-weight:bold;""
                            >happy</p>
                            <div style=""width:240px; margin: auto;"">
                                <img src=""images/map05_YlGn_scaleDef_orientDef_270.png"" style= ""width:200px""alt=""img"">
                            </div>
                        </div>","-91","","0","","","","images/map05_YlGn_scaleDef_orientDef_270.png","happy","1","05","05","YlGn","orientDef","scaleDef","270","",""
"","","","","","html-slider-response","153","403724","0.0-149.0","nlbfj8k7dl","47","NaN","<div style=""width:500px;"">
                            <p style=""font-size:50px; font-weight:bold;""
                            >happy</p>
                            <div style=""width:240px; margin: auto;"">
                                <img src=""images/map07_RdGy_scaleDef_orientMir_090.png"" style= ""width:200px""alt=""img"">
                            </div>
                        </div>","-91","","0","","","","images/map07_RdGy_scaleDef_orientMir_090.png","happy","1","07","07","RdGy","orientMir","scaleDef","090","",""
"","","","","","html-slider-response","154","404724","0.0-150.0","nlbfj8k7dl","47","NaN","<div style=""width:500px;"">
                            <p style=""font-size:50px; font-weight:bold;""
                            >happy</p>
                            <div style=""width:240px; margin: auto;"">
                                <img src=""images/map07_BrBG_scaleRev_orientDef_180.png"" style= ""width:200px""alt=""img"">
                            </div>
                        </div>","-143","","0","","","","images/map07_BrBG_scaleRev_orientDef_180.png","happy","1","07","07","BrBG","orientDef","scaleRev","180","",""
"","","","","","html-slider-response","155","405957","0.0-151.0","nlbfj8k7dl","47","NaN","<div style=""width:500px;"">
                            <p style=""font-size:50px; font-weight:bold;""
                            >happy</p>
                            <div style=""width:240px; margin: auto;"">
                                <img src=""images/map12_coolwarm_scaleRev_orientDef_000.png"" style= ""width:200px""alt=""img"">
                            </div>
                        </div>","-94","","0","","","","images/map12_coolwarm_scaleRev_orientDef_000.png","happy","1","12","12","coolwarm","orientDef","scaleRev","000","",""
"","","","","","html-slider-response","156","407074","0.0-152.0","nlbfj8k7dl","47","NaN","<div style=""width:500px;"">
                            <p style=""font-size:50px; font-weight:bold;""
                            >happy</p>
                            <div style=""width:240px; margin: auto;"">
                                <img src=""images/map27_OrRd_scaleRev_orientDef_180.png"" style= ""width:200px""alt=""img"">
                            </div>
                        </div>","-122","","0","","","","images/map27_OrRd_scaleRev_orientDef_180.png","happy","1","27","27","OrRd","orientDef","scaleRev","180","",""
"","","","","","html-slider-response","157","408223","0.0-153.0","nlbfj8k7dl","47","NaN","<div style=""width:500px;"">
                            <p style=""font-size:50px; font-weight:bold;""
                            >happy</p>
                            <div style=""width:240px; margin: auto;"">
                                <img src=""images/map13_turbo_scaleRev_orientMir_180.png"" style= ""width:200px""alt=""img"">
                            </div>
                        </div>","-74","","0","","","","images/map13_turbo_scaleRev_orientMir_180.png","happy","1","13","13","turbo","orientMir","scaleRev","180","",""
"","","","","","html-slider-response","158","409307","0.0-154.0","nlbfj8k7dl","47","NaN","<div style=""width:500px;"">
