"success","timeout","failed_images","failed_audio","failed_video","trial_type","trial_index","time_elapsed","internal_node_id","subject_id","condition_num","rt","stimulus","response","question_order","slider_start","practiceTrial","practiceTrialNum","correct","image_path","concept","repetition","map_id","map_num","scale_name","orientation_code","mapping_code","rotation_code","ishihara_plate","correct_response"
"true","false","[]","[]","[]","preload","0","420","0.0-0.0","nwq8zkbr5l","13","","","","","","","","","","","","","","","","","","",""
"","","","","","html-button-response","1","17286","0.0-1.0","nwq8zkbr5l","13","16864","Welcome to our experiment!<p>At the bottom of this screen, you will see a button that says ""Begin Experiment"".<br>Please only click that button when you are ready to complete the 30 minute experiment in one sitting.</p><p> Once you click that button, it will not be possible to restart the experiment.","0","","","","","","","","","","","","","","","",""
"true","","","","","fullscreen","2","20803","0.0-2.0","nwq8zkbr5l","13","2515","","","","","","","","","","","","","","","","","",""
"","","","","","survey-multi-select","3","76805","0.0-3.0","nwq8zkbr5l","13","55997","","{""Consent"":[""<strong>I consent</strong>""]}","[0]","","","","","","","","","","","","","","",""
"","","","","","html-button-response","4","80839","0.0-4.0","nwq8zkbr5l","13","4033","Welcome! <p> This experiment involves two parts: demographic information, followed by the experimental task.<p> It will take about 30 minutes to complete both parts.","0","","","","","","","","","","","","","","","",""
"","","","","","survey-text","5","90072","0.0-5.0","nwq8zkbr5l","13","9227","","{""Age"":""19"",""Gender"":""Male"",""Race/ethnicity"":""White"",""Languages"":""English""}","","","","","","","","","","","","","","","",""
"","","","","","html-slider-response","6","126825","0.0-6.0","nwq8zkbr5l","13","36749","<div style='text-align:left; font-size:20px; line-height:25px; width: 1000px;'>
                                During this experiment you will be asked to rate how much you associate maps with                    different concepts.<br> Below, you can see some examples of the maps you will be asked to rate. Above the maps
                    is the list of concepts.<br>You will be asked                    to rate how much you associate each map with each concept on a scale from 'not at all' to 'very much' like the
                    one below. <br><br>
                    Now, please look at the list of concepts and maps. For each concept, think about the map you associate 'very
                    much' with the concept.<br>                     When you see that map during the experiment, please rate it near the 'very much' endpoint of the
                    scale.<br>Now, please think about which map you associate 'not at all'                     with each concept. When you see that map during the experiment, please rate it near the 'not at all' endpoint
                    of the scale.<br>
                    Please use the full range of the scale. That is, if a map is somewhat associated with the concept, you would
                    click partway between the middle point and right side of the scale.                    You will be asked to rate each map for a given concept before moving on to the next concept.<br>Press the
                    'Continue' button for instructions on how to use the slider.                    <br>
                </div>

                <div style=""width: 500px; margin: 0 auto;"">
                    <!-- Centered text paragraphs -->
                    <div style=""text-align: center; width: 500px;"">
                        <p style=""font-size:25px; line-height:15px;"">
                            happy&nbsp;&nbsp;&nbsp;&nbsp;
                            fearful&nbsp;&nbsp;&nbsp;&nbsp;
                            disgust&nbsp;&nbsp;&nbsp;&nbsp;
                            sad&nbsp;&nbsp;&nbsp;&nbsp;
                            angry
                        </p>
                        <!-- <p style=""font-size:20px; line-height:15px;"">fearful</p>
                        <p style=""font-size:20px;line-height:15px;"">disgust</p>
                        <p style=""font-size:20px;line-height:15px;"">sad</p>
                        <p style=""font-size:20px;line-height:15px;"">angry</p> -->
                    </div>
            

                    <!-- Grid section -->
                   <div style=""display: flex; justify-content: center; padding-top: 15px;"">
                    <div style=""display: grid; grid-template-columns: repeat(10, 55px); grid-gap: 5px; width: auto;"">
                        <img src=""images/map26_RdGy_scaleDef_orientDef_270.png"" alt=""map"" style=""width: 100%;""><img src=""images/map23_BrBG_scaleDef_orientMir_270.png"" alt=""map"" style=""width: 100%;""><img src=""images/map27_bwr_scaleDef_orientMir_270.png"" alt=""map"" style=""width: 100%;""><img src=""images/map27_Spectral_scaleRev_orientMir_000.png"" alt=""map"" style=""width: 100%;""><img src=""images/map02_seismic_scaleRev_orientDef_180.png"" alt=""map"" style=""width: 100%;""><img src=""images/map27_coolwarm_scaleRev_orientMir_180.png"" alt=""map"" style=""width: 100%;""><img src=""images/map12_YlOrRd_scaleDef_orientMir_090.png"" alt=""map"" style=""width: 100%;""><img src=""images/map05_gist_earth_scaleDef_orientDef_090.png"" alt=""map"" style=""width: 100%;""><img src=""images/map26_PuOr_scaleRev_orientDef_180.png"" alt=""map"" style=""width: 100%;""><img src=""images/map15_PuBuGn_scaleRev_orientMir_180.png"" alt=""map"" style=""width: 100%;""><img src=""images/map10_Blues_scaleDef_orientDef_270.png"" alt=""map"" style=""width: 100%;""><img src=""images/map13_PuRd_scaleDef_orientDef_090.png"" alt=""map"" style=""width: 100%;""><img src=""images/map15_YlGnBu_scaleRev_orientMir_000.png"" alt=""map"" style=""width: 100%;""><img src=""images/map12_Reds_scaleRev_orientDef_180.png"" alt=""map"" style=""width: 100%;""><img src=""images/map13_BuPu_scaleDef_orientMir_090.png"" alt=""map"" style=""width: 100%;""><img src=""images/map07_inferno_scaleRev_orientDef_180.png"" alt=""map"" style=""width: 100%;""><img src=""images/map07_magma_scaleRev_orientMir_000.png"" alt=""map"" style=""width: 100%;""><img src=""images/map05_viridis_scaleRev_orientMir_180.png"" alt=""map"" style=""width: 100%;""><img src=""images/map23_YlGn_scaleRev_orientDef_180.png"" alt=""map"" style=""width: 100%;""><img src=""images/map12_YlOrBr_scaleRev_orientMir_000.png"" alt=""map"" style=""width: 100%;""><img src=""images/map10_Greens_scaleRev_orientMir_180.png"" alt=""map"" style=""width: 100%;""><img src=""images/map10_Purples_scaleDef_orientDef_090.png"" alt=""map"" style=""width: 100%;""><img src=""images/map15_BuGn_scaleDef_orientMir_270.png"" alt=""map"" style=""width: 100%;""><img src=""images/map27_RdYlGn_scaleDef_orientDef_090.png"" alt=""map"" style=""width: 100%;""><img src=""images/map07_cividis_scaleDef_orientMir_090.png"" alt=""map"" style=""width: 100%;""><img src=""images/map12_Oranges_scaleRev_orientDef_000.png"" alt=""map"" style=""width: 100%;""><img src=""images/map23_PRGn_scaleRev_orientMir_180.png"" alt=""map"" style=""width: 100%;""><img src=""images/map13_RdPu_scaleRev_orientMir_000.png"" alt=""map"" style=""width: 100%;""><img src=""images/map02_vanimo_scaleDef_orientMir_270.png"" alt=""map"" style=""width: 100%;""><img src=""images/map15_GnBu_scaleRev_orientDef_000.png"" alt=""map"" style=""width: 100%;""><img src=""images/map05_plasma_scaleDef_orientMir_270.png"" alt=""map"" style=""width: 100%;""><img src=""images/map05_turbo_scaleRev_orientMir_000.png"" alt=""map"" style=""width: 100%;""><img src=""images/map15_PuBu_scaleDef_orientDef_090.png"" alt=""map"" style=""width: 100%;""><img src=""images/map02_managua_scaleRev_orientMir_180.png"" alt=""map"" style=""width: 100%;""><img src=""images/map26_RdBu_scaleRev_orientMir_180.png"" alt=""map"" style=""width: 100%;""><img src=""images/map12_OrRd_scaleDef_orientMir_270.png"" alt=""map"" style=""width: 100%;""><img src=""images/map26_RdYlBu_scaleDef_orientMir_270.png"" alt=""map"" style=""width: 100%;""><img src=""images/map23_PiYG_scaleDef_orientDef_270.png"" alt=""map"" style=""width: 100%;""><img src=""images/map02_berlin_scaleDef_orientDef_270.png"" alt=""map"" style=""width: 100%;""><img src=""images/map07_Greys_scaleDef_orientMir_270.png"" alt=""map"" style=""width: 100%;"">
                    </div>
                </div>

                    <!-- Clear floats -->
                    <div style=""clear: both;""></div>
                </div>
                            ","1","","0","true","","","","","","","","","","","","",""
"","","","","","html-button-response","7","129741","0.0-7.0","nwq8zkbr5l","13","2916","<div style=""width:800px;""><p style=""text-align:left"">To move the slider, click and drag your cursor to the location of the scale where you would like to make your rating and then let go. When you let go of the slider, your response will be recorded and the next trial will begin. <br>
                    We are interested in your initial impressions of each map for the given concept, so please go with your first intuition. <br>
                    Before you begin the experiment, there will be four training trials for you to practice using the scale. <br>
                     When you are ready to start the training trials, please click ""Continue"".</p><br></div>","0","","","","","","","","","","","","","","","",""
"","","","","","html-slider-response","8","132818","0.0-8.0-0.0","nwq8zkbr5l","13","NaN","<div style=""width:500px;"">
                                    <p style=""font-size:25px;"">Please move the slider all the way to the <br> right endpoint of the scale</p>

                                    </div>
                                </div>","200","","0","true","0","true","","","","","","","","","","",""
"","","","","","html-button-response","9","134658","0.0-8.0-1.0","nwq8zkbr5l","13","1337","<p align='center'><b>Good job!</b> Click on 'Continue' to proceed.</p>","0","","","","","","","","","","","","","","","",""
"","","","","","html-slider-response","10","136585","0.0-9.0-0.0","nwq8zkbr5l","13","NaN","<div style=""width:500px;"">
                                    <p style=""font-size:25px;"">Please move the slider all the way to the <br> left endpoint of the scale</p>

                                    </div>
                                </div>","-200","","0","true","1","true","","","","","","","","","","",""
"","","","","","html-button-response","11","137809","0.0-9.0-1.0","nwq8zkbr5l","13","722","<p align='center'><b>Good job!</b> Click on 'Continue' to proceed.</p>","0","","","","","","","","","","","","","","","",""
"","","","","","html-slider-response","12","144437","0.0-10.0-0.0","nwq8zkbr5l","13","NaN","<div style=""width:500px;"">
                                    <p style=""font-size:25px;"">Please move the slider halfway between the center and right endpoint of the scale</p>

                                    </div>
                                </div>","102","","0","true","2","true","","","","","","","","","","",""
"","","","","","html-button-response","13","145959","0.0-10.0-1.0","nwq8zkbr5l","13","1020","<p align='center'><b>Good job!</b> Click on 'Continue' to proceed.</p>","0","","","","","","","","","","","","","","","",""
"","","","","","html-slider-response","14","149004","0.0-11.0-0.0","nwq8zkbr5l","13","NaN","<div style=""width:500px;"">
                                    <p style=""font-size:25px;"">Please move the slider halfway between the center and left endpoint of the scale</p>

                                    </div>
                                </div>","-111","","0","true","3","false","","","","","","","","","","",""
"","","","","","html-button-response","15","152492","0.0-11.0-1.0","nwq8zkbr5l","13","2986","<p align='center'><b>Not quite!</b> The slider was not placed near the instructed located. Click on 'Continue' to try again. </p>","0","","","","","","","","","","","","","","","",""
"","","","","","html-slider-response","16","157588","0.0-11.1-0.1","nwq8zkbr5l","13","NaN","<div style=""width:500px;"">
                                    <p style=""font-size:25px;"">Please move the slider halfway between the center and left endpoint of the scale</p>

                                    </div>
                                </div>","-110","","0","true","3","true","","","","","","","","","","",""
"","","","","","html-button-response","17","159126","0.0-11.1-1.1","nwq8zkbr5l","13","1036","<p align='center'><b>Good job!</b> Click on 'Continue' to proceed.</p>","0","","","","","","","","","","","","","","","",""
"","","","","","html-button-response","18","160876","0.0-12.0","nwq8zkbr5l","13","1749","<p>Great job! You've completed the practice trials. Now you will begin the main task.</p>","0","","","","","","","","","","","","","","","",""
"","","","","","html-button-response","19","163827","0.0-13.0","nwq8zkbr5l","13","2950","<p>In this block of trials, you will be asked to rate how much you associate each map with:</p > <p style = 'font-size:150%; font-weight: bold'>happy</p><br></br>","0","","","","","","","","","","","","","","","",""
"","","","","","html-slider-response","20","165738","0.0-14.0","nwq8zkbr5l","13","NaN","<div style=""width:500px;"">
                            <p style=""font-size:50px; font-weight:bold;""
                            >happy</p>
                            <div style=""width:240px; margin: auto;"">
                                <img src=""images/map26_BrBG_scaleRev_orientDef_000.png"" style= ""width:200px""alt=""img"">
                            </div>
                        </div>","126","","0","","","","images/map26_BrBG_scaleRev_orientDef_000.png","happy","1","26","26","BrBG","orientDef","scaleRev","000","",""
"","","","","","html-slider-response","21","169559","0.0-15.0","nwq8zkbr5l","13","NaN","<div style=""width:500px;"">
                            <p style=""font-size:50px; font-weight:bold;""
                            >happy</p>
                            <div style=""width:240px; margin: auto;"">
                                <img src=""images/map23_PRGn_scaleRev_orientMir_180.png"" style= ""width:200px""alt=""img"">
                            </div>
                        </div>","-75","","0","","","","images/map23_PRGn_scaleRev_orientMir_180.png","happy","1","23","23","PRGn","orientMir","scaleRev","180","",""
"","","","","","html-slider-response","22","172555","0.0-16.0","nwq8zkbr5l","13","NaN","<div style=""width:500px;"">
                            <p style=""font-size:50px; font-weight:bold;""
                            >happy</p>
                            <div style=""width:240px; margin: auto;"">
                                <img src=""images/map05_gist_earth_scaleDef_orientDef_090.png"" style= ""width:200px""alt=""img"">
                            </div>
                        </div>","-22","","0","","","","images/map05_gist_earth_scaleDef_orientDef_090.png","happy","1","05","05","gist","scaleDef","earth","orientDef","",""
"","","","","","html-slider-response","23","176105","0.0-17.0","nwq8zkbr5l","13","NaN","<div style=""width:500px;"">
                            <p style=""font-size:50px; font-weight:bold;""
                            >happy</p>
                            <div style=""width:240px; margin: auto;"">
                                <img src=""images/map05_turbo_scaleRev_orientMir_000.png"" style= ""width:200px""alt=""img"">
                            </div>
                        </div>","13","","0","","","","images/map05_turbo_scaleRev_orientMir_000.png","happy","1","05","05","turbo","orientMir","scaleRev","000","",""
"","","","","","html-slider-response","24","179904","0.0-18.0","nwq8zkbr5l","13","NaN","<div style=""width:500px;"">
                            <p style=""font-size:50px; font-weight:bold;""
                            >happy</p>
                            <div style=""width:240px; margin: auto;"">
                                <img src=""images/map26_PuOr_scaleDef_orientDef_090.png"" style= ""width:200px""alt=""img"">
                            </div>
                        </div>","78","","0","","","","images/map26_PuOr_scaleDef_orientDef_090.png","happy","1","26","26","PuOr","orientDef","scaleDef","090","",""
"","","","","","html-slider-response","25","182573","0.0-19.0","nwq8zkbr5l","13","NaN","<div style=""width:500px;"">
                            <p style=""font-size:50px; font-weight:bold;""
                            >happy</p>
                            <div style=""width:240px; margin: auto;"">
                                <img src=""images/map07_plasma_scaleRev_orientDef_000.png"" style= ""width:200px""alt=""img"">
                            </div>
                        </div>","-169","","0","","","","images/map07_plasma_scaleRev_orientDef_000.png","happy","1","07","07","plasma","orientDef","scaleRev","000","",""
"","","","","","html-slider-response","26","184988","0.0-20.0","nwq8zkbr5l","13","NaN","<div style=""width:500px;"">
                            <p style=""font-size:50px; font-weight:bold;""
                            >happy</p>
                            <div style=""width:240px; margin: auto;"">
                                <img src=""images/map23_BuGn_scaleRev_orientDef_000.png"" style= ""width:200px""alt=""img"">
                            </div>
                        </div>","-71","","0","","","","images/map23_BuGn_scaleRev_orientDef_000.png","happy","1","23","23","BuGn","orientDef","scaleRev","000","",""
"","","","","","html-slider-response","27","187188","0.0-21.0","nwq8zkbr5l","13","NaN","<div style=""width:500px;"">
                            <p style=""font-size:50px; font-weight:bold;""
                            >happy</p>
                            <div style=""width:240px; margin: auto;"">
                                <img src=""images/map13_GnBu_scaleDef_orientMir_270.png"" style= ""width:200px""alt=""img"">
                            </div>
                        </div>","94","","0","","","","images/map13_GnBu_scaleDef_orientMir_270.png","happy","1","13","13","GnBu","orientMir","scaleDef","270","",""
"","","","","","html-slider-response","28","192323","0.0-22.0","nwq8zkbr5l","13","NaN","<div style=""width:500px;"">
                            <p style=""font-size:50px; font-weight:bold;""
                            >happy</p>
                            <div style=""width:240px; margin: auto;"">
                                <img src=""images/map23_PiYG_scaleRev_orientMir_000.png"" style= ""width:200px""alt=""img"">
                            </div>
                        </div>","37","","0","","","","images/map23_PiYG_scaleRev_orientMir_000.png","happy","1","23","23","PiYG","orientMir","scaleRev","000","",""
"","","","","","html-slider-response","29","194788","0.0-23.0","nwq8zkbr5l","13","NaN","<div style=""width:500px;"">
                            <p style=""font-size:50px; font-weight:bold;""
                            >happy</p>
                            <div style=""width:240px; margin: auto;"">
                                <img src=""images/map26_RdBu_scaleRev_orientMir_180.png"" style= ""width:200px""alt=""img"">
                            </div>
                        </div>","-39","","0","","","","images/map26_RdBu_scaleRev_orientMir_180.png","happy","1","26","26","RdBu","orientMir","scaleRev","180","",""
"","","","","","html-slider-response","30","199491","0.0-24.0","nwq8zkbr5l","13","NaN","<div style=""width:500px;"">
                            <p style=""font-size:50px; font-weight:bold;""
                            >happy</p>
                            <div style=""width:240px; margin: auto;"">
                                <img src=""images/map23_PRGn_scaleDef_orientMir_090.png"" style= ""width:200px""alt=""img"">
                            </div>
                        </div>","-62","","0","","","","images/map23_PRGn_scaleDef_orientMir_090.png","happy","1","23","23","PRGn","orientMir","scaleDef","090","",""
"","","","","","html-slider-response","31","202240","0.0-25.0","nwq8zkbr5l","13","NaN","<div style=""width:500px;"">
                            <p style=""font-size:50px; font-weight:bold;""
                            >happy</p>
                            <div style=""width:240px; margin: auto;"">
                                <img src=""images/map15_PuBuGn_scaleRev_orientMir_180.png"" style= ""width:200px""alt=""img"">
                            </div>
                        </div>","155","","0","","","","images/map15_PuBuGn_scaleRev_orientMir_180.png","happy","1","15","15","PuBuGn","orientMir","scaleRev","180","",""
"","","","","","html-slider-response","32","204856","0.0-26.0","nwq8zkbr5l","13","NaN","<div style=""width:500px;"">
                            <p style=""font-size:50px; font-weight:bold;""
                            >happy</p>
                            <div style=""width:240px; margin: auto;"">
                                <img src=""images/map27_RdYlGn_scaleDef_orientDef_090.png"" style= ""width:200px""alt=""img"">
                            </div>
                        </div>","-155","","0","","","","images/map27_RdYlGn_scaleDef_orientDef_090.png","happy","1","27","27","RdYlGn","orientDef","scaleDef","090","",""
"","","","","","html-slider-response","33","207690","0.0-27.0","nwq8zkbr5l","13","NaN","<div style=""width:500px;"">
                            <p style=""font-size:50px; font-weight:bold;""
                            >happy</p>
                            <div style=""width:240px; margin: auto;"">
                                <img src=""images/map15_GnBu_scaleRev_orientDef_000.png"" style= ""width:200px""alt=""img"">
                            </div>
                        </div>","173","","0","","","","images/map15_GnBu_scaleRev_orientDef_000.png","happy","1","15","15","GnBu","orientDef","scaleRev","000","",""
"","","","","","html-slider-response","34","210773","0.0-28.0","nwq8zkbr5l","13","NaN","<div style=""width:500px;"">
                            <p style=""font-size:50px; font-weight:bold;""
                            >happy</p>
                            <div style=""width:240px; margin: auto;"">
                                <img src=""images/map05_vanimo_scaleRev_orientDef_000.png"" style= ""width:200px""alt=""img"">
                            </div>
                        </div>","-194","","0","","","","images/map05_vanimo_scaleRev_orientDef_000.png","happy","1","05","05","vanimo","orientDef","scaleRev","000","",""
"","","","","","html-slider-response","35","213009","0.0-29.0","nwq8zkbr5l","13","NaN","<div style=""width:500px;"">
                            <p style=""font-size:50px; font-weight:bold;""
                            >happy</p>
                            <div style=""width:240px; margin: auto;"">
                                <img src=""images/map10_Blues_scaleDef_orientDef_270.png"" style= ""width:200px""alt=""img"">
                            </div>
                        </div>","102","","0","","","","images/map10_Blues_scaleDef_orientDef_270.png","happy","1","10","10","Blues","orientDef","scaleDef","270","",""
"","","","","","html-slider-response","36","215390","0.0-30.0","nwq8zkbr5l","13","NaN","<div style=""width:500px;"">
                            <p style=""font-size:50px; font-weight:bold;""
                            >happy</p>
                            <div style=""width:240px; margin: auto;"">
                                <img src=""images/map27_coolwarm_scaleDef_orientMir_090.png"" style= ""width:200px""alt=""img"">
                            </div>
                        </div>","-55","","0","","","","images/map27_coolwarm_scaleDef_orientMir_090.png","happy","1","27","27","coolwarm","orientMir","scaleDef","090","",""
"","","","","","html-slider-response","37","219923","0.0-31.0","nwq8zkbr5l","13","NaN","<div style=""width:500px;"">
                            <p style=""font-size:50px; font-weight:bold;""
                            >happy</p>
                            <div style=""width:240px; margin: auto;"">
                                <img src=""images/map13_RdPu_scaleDef_orientDef_270.png"" style= ""width:200px""alt=""img"">
                            </div>
                        </div>","-80","","0","","","","images/map13_RdPu_scaleDef_orientDef_270.png","happy","1","13","13","RdPu","orientDef","scaleDef","270","",""
"","","","","","html-slider-response","38","221974","0.0-32.0","nwq8zkbr5l","13","NaN","<div style=""width:500px;"">
                            <p style=""font-size:50px; font-weight:bold;""
                            >happy</p>
                            <div style=""width:240px; margin: auto;"">
                                <img src=""images/map02_bwr_scaleRev_orientDef_000.png"" style= ""width:200px""alt=""img"">
                            </div>
                        </div>","-54","","0","","","","images/map02_bwr_scaleRev_orientDef_000.png","happy","1","02","02","bwr","orientDef","scaleRev","000","",""
"","","","","","html-slider-response","39","225158","0.0-33.0","nwq8zkbr5l","13","NaN","<div style=""width:500px;"">
                            <p style=""font-size:50px; font-weight:bold;""
                            >happy</p>
                            <div style=""width:240px; margin: auto;"">
                                <img src=""images/map10_Oranges_scaleDef_orientMir_270.png"" style= ""width:200px""alt=""img"">
                            </div>
                        </div>","-15","","0","","","","images/map10_Oranges_scaleDef_orientMir_270.png","happy","1","10","10","Oranges","orientMir","scaleDef","270","",""
"","","","","","html-slider-response","40","226874","0.0-34.0","nwq8zkbr5l","13","NaN","<div style=""width:500px;"">
                            <p style=""font-size:50px; font-weight:bold;""
                            >happy</p>
                            <div style=""width:240px; margin: auto;"">
                                <img src=""images/map12_Reds_scaleDef_orientDef_090.png"" style= ""width:200px""alt=""img"">
                            </div>
                        </div>","-49","","0","","","","images/map12_Reds_scaleDef_orientDef_090.png","happy","1","12","12","Reds","orientDef","scaleDef","090","",""
"","","","","","html-slider-response","41","229493","0.0-35.0","nwq8zkbr5l","13","NaN","<div style=""width:500px;"">
                            <p style=""font-size:50px; font-weight:bold;""
                            >happy</p>
                            <div style=""width:240px; margin: auto;"">
                                <img src=""images/map27_RdYlGn_scaleRev_orientDef_180.png"" style= ""width:200px""alt=""img"">
                            </div>
                        </div>","-68","","0","","","","images/map27_RdYlGn_scaleRev_orientDef_180.png","happy","1","27","27","RdYlGn","orientDef","scaleRev","180","",""
"","","","","","html-slider-response","42","232424","0.0-36.0","nwq8zkbr5l","13","NaN","<div style=""width:500px;"">
                            <p style=""font-size:50px; font-weight:bold;""
                            >happy</p>
                            <div style=""width:240px; margin: auto;"">
                                <img src=""images/map12_Oranges_scaleRev_orientDef_000.png"" style= ""width:200px""alt=""img"">
                            </div>
                        </div>","-77","","0","","","","images/map12_Oranges_scaleRev_orientDef_000.png","happy","1","12","12","Oranges","orientDef","scaleRev","000","",""
"","","","","","html-slider-response","43","234425","0.0-37.0","nwq8zkbr5l","13","NaN","<div style=""width:500px;"">
                            <p style=""font-size:50px; font-weight:bold;""
                            >happy</p>
                            <div style=""width:240px; margin: auto;"">
                                <img src=""images/map05_plasma_scaleDef_orientMir_270.png"" style= ""width:200px""alt=""img"">
                            </div>
                        </div>","-28","","0","","","","images/map05_plasma_scaleDef_orientMir_270.png","happy","1","05","05","plasma","orientMir","scaleDef","270","",""
"","","","","","html-slider-response","44","237992","0.0-38.0","nwq8zkbr5l","13","NaN","<div style=""width:500px;"">
                            <p style=""font-size:50px; font-weight:bold;""
                            >happy</p>
                            <div style=""width:240px; margin: auto;"">
                                <img src=""images/map02_berlin_scaleRev_orientMir_000.png"" style= ""width:200px""alt=""img"">
                            </div>
                        </div>","-68","","0","","","","images/map02_berlin_scaleRev_orientMir_000.png","happy","1","02","02","berlin","orientMir","scaleRev","000","",""
"","","","","","html-slider-response","45","240108","0.0-39.0","nwq8zkbr5l","13","NaN","<div style=""width:500px;"">
                            <p style=""font-size:50px; font-weight:bold;""
                            >happy</p>
                            <div style=""width:240px; margin: auto;"">
                                <img src=""images/map15_YlGnBu_scaleDef_orientDef_270.png"" style= ""width:200px""alt=""img"">
                            </div>
                        </div>","35","","0","","","","images/map15_YlGnBu_scaleDef_orientDef_270.png","happy","1","15","15","YlGnBu","orientDef","scaleDef","270","",""
"","","","","","html-slider-response","46","241975","0.0-40.0","nwq8zkbr5l","13","NaN","<div style=""width:500px;"">
                            <p style=""font-size:50px; font-weight:bold;""
                            >happy</p>
                            <div style=""width:240px; margin: auto;"">
                                <img src=""images/map27_Spectral_scaleDef_orientDef_270.png"" style= ""width:200px""alt=""img"">
                            </div>
                        </div>","-39","","0","","","","images/map27_Spectral_scaleDef_orientDef_270.png","happy","1","27","27","Spectral","orientDef","scaleDef","270","",""
"","","","","","html-slider-response","47","244525","0.0-41.0","nwq8zkbr5l","13","NaN","<div style=""width:500px;"">
                            <p style=""font-size:50px; font-weight:bold;""
                            >happy</p>
                            <div style=""width:240px; margin: auto;"">
                                <img src=""images/map02_berlin_scaleDef_orientDef_270.png"" style= ""width:200px""alt=""img"">
                            </div>
                        </div>","-136","","0","","","","images/map02_berlin_scaleDef_orientDef_270.png","happy","1","02","02","berlin","orientDef","scaleDef","270","",""
"","","","","","html-slider-response","48","246492","0.0-42.0","nwq8zkbr5l","13","NaN","<div style=""width:500px;"">
                            <p style=""font-size:50px; font-weight:bold;""
                            >happy</p>
                            <div style=""width:240px; margin: auto;"">
                                <img src=""images/map23_PiYG_scaleDef_orientDef_270.png"" style= ""width:200px""alt=""img"">
                            </div>
                        </div>","-67","","0","","","","images/map23_PiYG_scaleDef_orientDef_270.png","happy","1","23","23","PiYG","orientDef","scaleDef","270","",""
"","","","","","html-slider-response","49","248759","0.0-43.0","nwq8zkbr5l","13","NaN","<div style=""width:500px;"">
                            <p style=""font-size:50px; font-weight:bold;""
                            >happy</p>
                            <div style=""width:240px; margin: auto;"">
                                <img src=""images/map13_OrRd_scaleRev_orientDef_000.png"" style= ""width:200px""alt=""img"">
                            </div>
                        </div>","-44","","0","","","","images/map13_OrRd_scaleRev_orientDef_000.png","happy","1","13","13","OrRd","orientDef","scaleRev","000","",""
"","","","","","html-slider-response","50","250874","0.0-44.0","nwq8zkbr5l","13","NaN","<div style=""width:500px;"">
                            <p style=""font-size:50px; font-weight:bold;""
                            >happy</p>
                            <div style=""width:240px; margin: auto;"">
                                <img src=""images/map05_viridis_scaleDef_orientMir_090.png"" style= ""width:200px""alt=""img"">
                            </div>
                        </div>","39","","0","","","","images/map05_viridis_scaleDef_orientMir_090.png","happy","1","05","05","viridis","orientMir","scaleDef","090","",""
"","","","","","html-slider-response","51","253692","0.0-45.0","nwq8zkbr5l","13","NaN","<div style=""width:500px;"">
                            <p style=""font-size:50px; font-weight:bold;""
                            >happy</p>
                            <div style=""width:240px; margin: auto;"">
                                <img src=""images/map10_Greys_scaleRev_orientDef_000.png"" style= ""width:200px""alt=""img"">
                            </div>
                        </div>","-73","","0","","","","images/map10_Greys_scaleRev_orientDef_000.png","happy","1","10","10","Greys","orientDef","scaleRev","000","",""
"","","","","","html-slider-response","52","255609","0.0-46.0","nwq8zkbr5l","13","NaN","<div style=""width:500px;"">
                            <p style=""font-size:50px; font-weight:bold;""
                            >happy</p>
                            <div style=""width:240px; margin: auto;"">
                                <img src=""images/map07_magma_scaleRev_orientMir_000.png"" style= ""width:200px""alt=""img"">
                            </div>
                        </div>","-85","","0","","","","images/map07_magma_scaleRev_orientMir_000.png","happy","1","07","07","magma","orientMir","scaleRev","000","",""
"","","","","","html-slider-response","53","257524","0.0-47.0","nwq8zkbr5l","13","NaN","<div style=""width:500px;"">
                            <p style=""font-size:50px; font-weight:bold;""
                            >happy</p>
                            <div style=""width:240px; margin: auto;"">
                                <img src=""images/map26_RdYlBu_scaleDef_orientMir_270.png"" style= ""width:200px""alt=""img"">
                            </div>
                        </div>","-85","","0","","","","images/map26_RdYlBu_scaleDef_orientMir_270.png","happy","1","26","26","RdYlBu","orientMir","scaleDef","270","",""
"","","","","","html-slider-response","54","260160","0.0-48.0","nwq8zkbr5l","13","NaN","<div style=""width:500px;"">
                            <p style=""font-size:50px; font-weight:bold;""
                            >happy</p>
                            <div style=""width:240px; margin: auto;"">
                                <img src=""images/map07_magma_scaleDef_orientDef_270.png"" style= ""width:200px""alt=""img"">
                            </div>
                        </div>","-150","","0","","","","images/map07_magma_scaleDef_orientDef_270.png","happy","1","07","07","magma","orientDef","scaleDef","270","",""
"","","","","","html-slider-response","55","263328","0.0-49.0","nwq8zkbr5l","13","NaN","<div style=""width:500px;"">
                            <p style=""font-size:50px; font-weight:bold;""
                            >happy</p>
                            <div style=""width:240px; margin: auto;"">
                                <img src=""images/map05_gist_earth_scaleRev_orientDef_180.png"" style= ""width:200px""alt=""img"">
                            </div>
                        </div>","30","","0","","","","images/map05_gist_earth_scaleRev_orientDef_180.png","happy","1","05","05","gist","scaleRev","earth","orientDef","",""
"","","","","","html-slider-response","56","265310","0.0-50.0","nwq8zkbr5l","13","NaN","<div style=""width:500px;"">
                            <p style=""font-size:50px; font-weight:bold;""
                            >happy</p>
                            <div style=""width:240px; margin: auto;"">
                                <img src=""images/map13_BuPu_scaleDef_orientMir_090.png"" style= ""width:200px""alt=""img"">
                            </div>
                        </div>","-80","","0","","","","images/map13_BuPu_scaleDef_orientMir_090.png","happy","1","13","13","BuPu","orientMir","scaleDef","090","",""
"","","","","","html-slider-response","57","267961","0.0-51.0","nwq8zkbr5l","13","NaN","<div style=""width:500px;"">
                            <p style=""font-size:50px; font-weight:bold;""
                            >happy</p>
                            <div style=""width:240px; margin: auto;"">
                                <img src=""images/map23_BrBG_scaleDef_orientMir_270.png"" style= ""width:200px""alt=""img"">
                            </div>
                        </div>","79","","0","","","","images/map23_BrBG_scaleDef_orientMir_270.png","happy","1","23","23","BrBG","orientMir","scaleDef","270","",""
"","","","","","html-slider-response","58","269893","0.0-52.0","nwq8zkbr5l","13","NaN","<div style=""width:500px;"">
                            <p style=""font-size:50px; font-weight:bold;""
                            >happy</p>
                            <div style=""width:240px; margin: auto;"">
                                <img src=""images/map27_Spectral_scaleRev_orientMir_000.png"" style= ""width:200px""alt=""img"">
                            </div>
                        </div>","-110","","0","","","","images/map27_Spectral_scaleRev_orientMir_000.png","happy","1","27","27","Spectral","orientMir","scaleRev","000","",""
"","","","","","html-slider-response","59","273161","0.0-53.0","nwq8zkbr5l","13","NaN","<div style=""width:500px;"">
                            <p style=""font-size:50px; font-weight:bold;""
                            >happy</p>
                            <div style=""width:240px; margin: auto;"">
                                <img src=""images/map10_Purples_scaleRev_orientDef_180.png"" style= ""width:200px""alt=""img"">
                            </div>
                        </div>","23","","0","","","","images/map10_Purples_scaleRev_orientDef_180.png","happy","1","10","10","Purples","orientDef","scaleRev","180","",""
"","","","","","html-button-response","60","276066","0.0-54.0","nwq8zkbr5l","13","2402","<p>You are doing great!<br></br> You are halway done with the current block. When you are ready to continue, click the 'Continue' button.</p>","0","","","","","","","","","","","","","","","",""
"","","","","","html-slider-response","61","280528","0.0-55.0","nwq8zkbr5l","13","NaN","<div style=""width:500px;"">
                            <p style=""font-size:50px; font-weight:bold;""
                            >happy</p>
                            <div style=""width:240px; margin: auto;"">
                                <img src=""images/map15_YlGnBu_scaleRev_orientMir_000.png"" style= ""width:200px""alt=""img"">
                            </div>
                        </div>","36","","0","","","","images/map15_YlGnBu_scaleRev_orientMir_000.png","happy","1","15","15","YlGnBu","orientMir","scaleRev","000","",""
"","","","","","html-slider-response","62","282361","0.0-56.0","nwq8zkbr5l","13","NaN","<div style=""width:500px;"">
                            <p style=""font-size:50px; font-weight:bold;""
                            >happy</p>
                            <div style=""width:240px; margin: auto;"">
                                <img src=""images/map05_viridis_scaleRev_orientMir_180.png"" style= ""width:200px""alt=""img"">
                            </div>
                        </div>","96","","0","","","","images/map05_viridis_scaleRev_orientMir_180.png","happy","1","05","05","viridis","orientMir","scaleRev","180","",""
"","","","","","html-slider-response","63","284128","0.0-57.0","nwq8zkbr5l","13","NaN","<div style=""width:500px;"">
                            <p style=""font-size:50px; font-weight:bold;""
                            >happy</p>
                            <div style=""width:240px; margin: auto;"">
                                <img src=""images/map05_turbo_scaleDef_orientDef_270.png"" style= ""width:200px""alt=""img"">
                            </div>
                        </div>","-134","","0","","","","images/map05_turbo_scaleDef_orientDef_270.png","happy","1","05","05","turbo","orientDef","scaleDef","270","",""
"","","","","","html-slider-response","64","286126","0.0-58.0","nwq8zkbr5l","13","NaN","<div style=""width:500px;"">
                            <p style=""font-size:50px; font-weight:bold;""
                            >happy</p>
                            <div style=""width:240px; margin: auto;"">
                                <img src=""images/map02_seismic_scaleDef_orientDef_090.png"" style= ""width:200px""alt=""img"">
                            </div>
                        </div>","-56","","0","","","","images/map02_seismic_scaleDef_orientDef_090.png","happy","1","02","02","seismic","orientDef","scaleDef","090","",""
"","","","","","html-slider-response","65","287861","0.0-59.0","nwq8zkbr5l","13","NaN","<div style=""width:500px;"">
                            <p style=""font-size:50px; font-weight:bold;""
                            >happy</p>
                            <div style=""width:240px; margin: auto;"">
                                <img src=""images/map15_PuBuGn_scaleDef_orientMir_090.png"" style= ""width:200px""alt=""img"">
                            </div>
                        </div>","-52","","0","","","","images/map15_PuBuGn_scaleDef_orientMir_090.png","happy","1","15","15","PuBuGn","orientMir","scaleDef","090","",""
"","","","","","html-slider-response","66","290711","0.0-60.0","nwq8zkbr5l","13","NaN","<div style=""width:500px;"">
                            <p style=""font-size:50px; font-weight:bold;""
                            >happy</p>
                            <div style=""width:240px; margin: auto;"">
                                <img src=""images/map12_Reds_scaleRev_orientDef_180.png"" style= ""width:200px""alt=""img"">
                            </div>
                        </div>","-52","","0","","","","images/map12_Reds_scaleRev_orientDef_180.png","happy","1","12","12","Reds","orientDef","scaleRev","180","",""
"","","","","","html-slider-response","67","292711","0.0-61.0","nwq8zkbr5l","13","NaN","<div style=""width:500px;"">
                            <p style=""font-size:50px; font-weight:bold;""
                            >happy</p>
                            <div style=""width:240px; margin: auto;"">
                                <img src=""images/map02_managua_scaleRev_orientMir_180.png"" style= ""width:200px""alt=""img"">
                            </div>
                        </div>","26","","0","","","","images/map02_managua_scaleRev_orientMir_180.png","happy","1","02","02","managua","orientMir","scaleRev","180","",""
"","","","","","html-slider-response","68","294293","0.0-62.0","nwq8zkbr5l","13","NaN","<div style=""width:500px;"">
                            <p style=""font-size:50px; font-weight:bold;""
                            >happy</p>
                            <div style=""width:240px; margin: auto;"">
                                <img src=""images/map07_cividis_scaleDef_orientMir_090.png"" style= ""width:200px""alt=""img"">
                            </div>
                        </div>","-135","","0","","","","images/map07_cividis_scaleDef_orientMir_090.png","happy","1","07","07","cividis","orientMir","scaleDef","090","",""
"","","","","","html-slider-response","69","295944","0.0-63.0","nwq8zkbr5l","13","NaN","<div style=""width:500px;"">
                            <p style=""font-size:50px; font-weight:bold;""
                            >happy</p>
                            <div style=""width:240px; margin: auto;"">
                                <img src=""images/map12_YlOrRd_scaleRev_orientMir_180.png"" style= ""width:200px""alt=""img"">
                            </div>
                        </div>","-43","","0","","","","images/map12_YlOrRd_scaleRev_orientMir_180.png","happy","1","12","12","YlOrRd","orientMir","scaleRev","180","",""
"","","","","","html-slider-response","70","297528","0.0-64.0","nwq8zkbr5l","13","NaN","<div style=""width:500px;"">
                            <p style=""font-size:50px; font-weight:bold;""
                            >happy</p>
                            <div style=""width:240px; margin: auto;"">
                                <img src=""images/map15_PuBu_scaleDef_orientDef_090.png"" style= ""width:200px""alt=""img"">
                            </div>
                        </div>","93","","0","","","","images/map15_PuBu_scaleDef_orientDef_090.png","happy","1","15","15","PuBu","orientDef","scaleDef","090","",""
"","","","","","html-slider-response","71","299278","0.0-65.0","nwq8zkbr5l","13","NaN","<div style=""width:500px;"">
                            <p style=""font-size:50px; font-weight:bold;""
                            >happy</p>
                            <div style=""width:240px; margin: auto;"">
                                <img src=""images/map26_RdGy_scaleDef_orientDef_270.png"" style= ""width:200px""alt=""img"">
                            </div>
                        </div>","-66","","0","","","","images/map26_RdGy_scaleDef_orientDef_270.png","happy","1","26","26","RdGy","orientDef","scaleDef","270","",""
"","","","","","html-slider-response","72","300777","0.0-66.0","nwq8zkbr5l","13","NaN","<div style=""width:500px;"">
                            <p style=""font-size:50px; font-weight:bold;""
                            >happy</p>
                            <div style=""width:240px; margin: auto;"">
                                <img src=""images/map27_bwr_scaleDef_orientMir_270.png"" style= ""width:200px""alt=""img"">
                            </div>
                        </div>","-73","","0","","","","images/map27_bwr_scaleDef_orientMir_270.png","happy","1","27","27","bwr","orientMir","scaleDef","270","",""
"","","","","","html-slider-response","73","302378","0.0-67.0","nwq8zkbr5l","13","NaN","<div style=""width:500px;"">
                            <p style=""font-size:50px; font-weight:bold;""
                            >happy</p>
                            <div style=""width:240px; margin: auto;"">
                                <img src=""images/map12_YlOrBr_scaleDef_orientDef_270.png"" style= ""width:200px""alt=""img"">
                            </div>
                        </div>","-110","","0","","","","images/map12_YlOrBr_scaleDef_orientDef_270.png","happy","1","12","12","YlOrBr","orientDef","scaleDef","270","",""
"","","","","","html-slider-response","74","304178","0.0-68.0","nwq8zkbr5l","13","NaN","<div style=""width:500px;"">
                            <p style=""font-size:50px; font-weight:bold;""
                            >happy</p>
                            <div style=""width:240px; margin: auto;"">
                                <img src=""images/map13_PuRd_scaleRev_orientDef_180.png"" style= ""width:200px""alt=""img"">
                            </div>
                        </div>","59","","0","","","","images/map13_PuRd_scaleRev_orientDef_180.png","happy","1","13","13","PuRd","orientDef","scaleRev","180","",""
"","","","","","html-slider-response","75","305843","0.0-69.0","nwq8zkbr5l","13","NaN","<div style=""width:500px;"">
                            <p style=""font-size:50px; font-weight:bold;""
                            >happy</p>
                            <div style=""width:240px; margin: auto;"">
                                <img src=""images/map27_RdYlBu_scaleRev_orientDef_000.png"" style= ""width:200px""alt=""img"">
                            </div>
                        </div>","-63","","0","","","","images/map27_RdYlBu_scaleRev_orientDef_000.png","happy","1","27","27","RdYlBu","orientDef","scaleRev","000","",""
"","","","","","html-slider-response","76","307413","0.0-70.0","nwq8zkbr5l","13","NaN","<div style=""width:500px;"">
                            <p style=""font-size:50px; font-weight:bold;""
                            >happy</p>
                            <div style=""width:240px; margin: auto;"">
                                <img src=""images/map07_inferno_scaleRev_orientDef_180.png"" style= ""width:200px""alt=""img"">
                            </div>
                        </div>","-108","","0","","","","images/map07_inferno_scaleRev_orientDef_180.png","happy","1","07","07","inferno","orientDef","scaleRev","180","",""
"","","","","","html-slider-response","77","309480","0.0-71.0","nwq8zkbr5l","13","NaN","<div style=""width:500px;"">
                            <p style=""font-size:50px; font-weight:bold;""
                            >happy</p>
                            <div style=""width:240px; margin: auto;"">
                                <img src=""images/map13_BuPu_scaleRev_orientMir_180.png"" style= ""width:200px""alt=""img"">
                            </div>
                        </div>","-75","","0","","","","images/map13_BuPu_scaleRev_orientMir_180.png","happy","1","13","13","BuPu","orientMir","scaleRev","180","",""
"","","","","","html-slider-response","78","311128","0.0-72.0","nwq8zkbr5l","13","NaN","<div style=""width:500px;"">
                            <p style=""font-size:50px; font-weight:bold;""
                            >happy</p>
                            <div style=""width:240px; margin: auto;"">
                                <img src=""images/map13_PuRd_scaleDef_orientDef_090.png"" style= ""width:200px""alt=""img"">
                            </div>
                        </div>","38","","0","","","","images/map13_PuRd_scaleDef_orientDef_090.png","happy","1","13","13","PuRd","orientDef","scaleDef","090","",""
"","","","","","html-slider-response","79","312779","0.0-73.0","nwq8zkbr5l","13","NaN","<div style=""width:500px;"">
                            <p style=""font-size:50px; font-weight:bold;""
                            >happy</p>
                            <div style=""width:240px; margin: auto;"">
                                <img src=""images/map02_vanimo_scaleDef_orientMir_270.png"" style= ""width:200px""alt=""img"">
                            </div>
                        </div>","-118","","0","","","","images/map02_vanimo_scaleDef_orientMir_270.png","happy","1","02","02","vanimo","orientMir","scaleDef","270","",""
"","","","","","html-slider-response","80","314396","0.0-74.0","nwq8zkbr5l","13","NaN","<div style=""width:500px;"">
                            <p style=""font-size:50px; font-weight:bold;""
                            >happy</p>
                            <div style=""width:240px; margin: auto;"">
                                <img src=""images/map26_RdGy_scaleRev_orientMir_000.png"" style= ""width:200px""alt=""img"">
                            </div>
                        </div>","-158","","0","","","","images/map26_RdGy_scaleRev_orientMir_000.png","happy","1","26","26","RdGy","orientMir","scaleRev","000","",""
"","","","","","html-slider-response","81","315911","0.0-75.0","nwq8zkbr5l","13","NaN","<div style=""width:500px;"">
                            <p style=""font-size:50px; font-weight:bold;""
                            >happy</p>
                            <div style=""width:240px; margin: auto;"">
                                <img src=""images/map12_YlOrRd_scaleDef_orientMir_090.png"" style= ""width:200px""alt=""img"">
                            </div>
                        </div>","-31","","0","","","","images/map12_YlOrRd_scaleDef_orientMir_090.png","happy","1","12","12","YlOrRd","orientMir","scaleDef","090","",""
"","","","","","html-slider-response","82","317528","0.0-76.0","nwq8zkbr5l","13","NaN","<div style=""width:500px;"">
                            <p style=""font-size:50px; font-weight:bold;""
                            >happy</p>
                            <div style=""width:240px; margin: auto;"">
                                <img src=""images/map23_YlGn_scaleRev_orientDef_180.png"" style= ""width:200px""alt=""img"">
                            </div>
                        </div>","94","","0","","","","images/map23_YlGn_scaleRev_orientDef_180.png","happy","1","23","23","YlGn","orientDef","scaleRev","180","",""
"","","","","","html-slider-response","83","319546","0.0-77.0","nwq8zkbr5l","13","NaN","<div style=""width:500px;"">
                            <p style=""font-size:50px; font-weight:bold;""
                            >happy</p>
                            <div style=""width:240px; margin: auto;"">
                                <img src=""images/map26_PuOr_scaleRev_orientDef_180.png"" style= ""width:200px""alt=""img"">
                            </div>
                        </div>","96","","0","","","","images/map26_PuOr_scaleRev_orientDef_180.png","happy","1","26","26","PuOr","orientDef","scaleRev","180","",""
"","","","","","html-slider-response","84","321330","0.0-78.0","nwq8zkbr5l","13","NaN","<div style=""width:500px;"">
                            <p style=""font-size:50px; font-weight:bold;""
                            >happy</p>
                            <div style=""width:240px; margin: auto;"">
                                <img src=""images/map02_managua_scaleDef_orientMir_090.png"" style= ""width:200px""alt=""img"">
                            </div>
                        </div>","-86","","0","","","","images/map02_managua_scaleDef_orientMir_090.png","happy","1","02","02","managua","orientMir","scaleDef","090","",""
"","","","","","html-slider-response","85","323028","0.0-79.0","nwq8zkbr5l","13","NaN","<div style=""width:500px;"">
                            <p style=""font-size:50px; font-weight:bold;""
                            >happy</p>
                            <div style=""width:240px; margin: auto;"">
                                <img src=""images/map15_BuGn_scaleDef_orientMir_270.png"" style= ""width:200px""alt=""img"">
                            </div>
                        </div>","86","","0","","","","images/map15_BuGn_scaleDef_orientMir_270.png","happy","1","15","15","BuGn","orientMir","scaleDef","270","",""
"","","","","","html-slider-response","86","324613","0.0-80.0","nwq8zkbr5l","13","NaN","<div style=""width:500px;"">
                            <p style=""font-size:50px; font-weight:bold;""
                            >happy</p>
                            <div style=""width:240px; margin: auto;"">
                                <img src=""images/map10_Greens_scaleRev_orientMir_180.png"" style= ""width:200px""alt=""img"">
                            </div>
                        </div>","70","","0","","","","images/map10_Greens_scaleRev_orientMir_180.png","happy","1","10","10","Greens","orientMir","scaleRev","180","",""
"","","","","","html-slider-response","87","326880","0.0-81.0","nwq8zkbr5l","13","NaN","<div style=""width:500px;"">
                            <p style=""font-size:50px; font-weight:bold;""
                            >happy</p>
                            <div style=""width:240px; margin: auto;"">
                                <img src=""images/map10_Greens_scaleDef_orientMir_090.png"" style= ""width:200px""alt=""img"">
                            </div>
                        </div>","82","","0","","","","images/map10_Greens_scaleDef_orientMir_090.png","happy","1","10","10","Greens","orientMir","scaleDef","090","",""
"","","","","","html-slider-response","88","328779","0.0-82.0","nwq8zkbr5l","13","NaN","<div style=""width:500px;"">
                            <p style=""font-size:50px; font-weight:bold;""
                            >happy</p>
                            <div style=""width:240px; margin: auto;"">
                                <img src=""images/map07_Greys_scaleDef_orientMir_270.png"" style= ""width:200px""alt=""img"">
                            </div>
                        </div>","-82","","0","","","","images/map07_Greys_scaleDef_orientMir_270.png","happy","1","07","07","Greys","orientMir","scaleDef","270","",""
"","","","","","html-slider-response","89","330314","0.0-83.0","nwq8zkbr5l","13","NaN","<div style=""width:500px;"">
                            <p style=""font-size:50px; font-weight:bold;""
                            >happy</p>
                            <div style=""width:240px; margin: auto;"">
                                <img src=""images/map23_YlGn_scaleDef_orientDef_090.png"" style= ""width:200px""alt=""img"">
                            </div>
                        </div>","82","","0","","","","images/map23_YlGn_scaleDef_orientDef_090.png","happy","1","23","23","YlGn","orientDef","scaleDef","090","",""
"","","","","","html-slider-response","90","331879","0.0-84.0","nwq8zkbr5l","13","NaN","<div style=""width:500px;"">
                            <p style=""font-size:50px; font-weight:bold;""
                            >happy</p>
                            <div style=""width:240px; margin: auto;"">
                                <img src=""images/map26_RdBu_scaleDef_orientMir_090.png"" style= ""width:200px""alt=""img"">
                            </div>
                        </div>","-70","","0","","","","images/map26_RdBu_scaleDef_orientMir_090.png","happy","1","26","26","RdBu","orientMir","scaleDef","090","",""
"","","","","","html-slider-response","91","333381","0.0-85.0","nwq8zkbr5l","13","NaN","<div style=""width:500px;"">
                            <p style=""font-size:50px; font-weight:bold;""
                            >happy</p>
                            <div style=""width:240px; margin: auto;"">
                                <img src=""images/map15_PuBu_scaleRev_orientDef_180.png"" style= ""width:200px""alt=""img"">
                            </div>
                        </div>","101","","0","","","","images/map15_PuBu_scaleRev_orientDef_180.png","happy","1","15","15","PuBu","orientDef","scaleRev","180","",""
"","","","","","html-slider-response","92","334881","0.0-86.0","nwq8zkbr5l","13","NaN","<div style=""width:500px;"">
                            <p style=""font-size:50px; font-weight:bold;""
                            >happy</p>
                            <div style=""width:240px; margin: auto;"">
                                <img src=""images/map13_RdPu_scaleRev_orientMir_000.png"" style= ""width:200px""alt=""img"">
                            </div>
                        </div>","-78","","0","","","","images/map13_RdPu_scaleRev_orientMir_000.png","happy","1","13","13","RdPu","orientMir","scaleRev","000","",""
"","","","","","html-slider-response","93","336579","0.0-87.0","nwq8zkbr5l","13","NaN","<div style=""width:500px;"">
                            <p style=""font-size:50px; font-weight:bold;""
                            >happy</p>
                            <div style=""width:240px; margin: auto;"">
                                <img src=""images/map10_Purples_scaleDef_orientDef_090.png"" style= ""width:200px""alt=""img"">
                            </div>
                        </div>","-90","","0","","","","images/map10_Purples_scaleDef_orientDef_090.png","happy","1","10","10","Purples","orientDef","scaleDef","090","",""
"","","","","","html-slider-response","94","338196","0.0-88.0","nwq8zkbr5l","13","NaN","<div style=""width:500px;"">
                            <p style=""font-size:50px; font-weight:bold;""
                            >happy</p>
                            <div style=""width:240px; margin: auto;"">
                                <img src=""images/map27_coolwarm_scaleRev_orientMir_180.png"" style= ""width:200px""alt=""img"">
                            </div>
                        </div>","-64","","0","","","","images/map27_coolwarm_scaleRev_orientMir_180.png","happy","1","27","27","coolwarm","orientMir","scaleRev","180","",""
"","","","","","html-slider-response","95","339847","0.0-89.0","nwq8zkbr5l","13","NaN","<div style=""width:500px;"">
                            <p style=""font-size:50px; font-weight:bold;""
                            >happy</p>
                            <div style=""width:240px; margin: auto;"">
                                <img src=""images/map07_inferno_scaleDef_orientDef_090.png"" style= ""width:200px""alt=""img"">
                            </div>
                        </div>","-138","","0","","","","images/map07_inferno_scaleDef_orientDef_090.png","happy","1","07","07","inferno","orientDef","scaleDef","090","",""
"","","","","","html-slider-response","96","341363","0.0-90.0","nwq8zkbr5l","13","NaN","<div style=""width:500px;"">
                            <p style=""font-size:50px; font-weight:bold;""
                            >happy</p>
                            <div style=""width:240px; margin: auto;"">
                                <img src=""images/map02_seismic_scaleRev_orientDef_180.png"" style= ""width:200px""alt=""img"">
                            </div>
                        </div>","-29","","0","","","","images/map02_seismic_scaleRev_orientDef_180.png","happy","1","02","02","seismic","orientDef","scaleRev","180","",""
"","","","","","html-slider-response","97","342997","0.0-91.0","nwq8zkbr5l","13","NaN","<div style=""width:500px;"">
                            <p style=""font-size:50px; font-weight:bold;""
                            >happy</p>
                            <div style=""width:240px; margin: auto;"">
                                <img src=""images/map10_Blues_scaleRev_orientMir_000.png"" style= ""width:200px""alt=""img"">
                            </div>
                        </div>","112","","0","","","","images/map10_Blues_scaleRev_orientMir_000.png","happy","1","10","10","Blues","orientMir","scaleRev","000","",""
"","","","","","html-slider-response","98","345047","0.0-92.0","nwq8zkbr5l","13","NaN","<div style=""width:500px;"">
                            <p style=""font-size:50px; font-weight:bold;""
                            >happy</p>
                            <div style=""width:240px; margin: auto;"">
                                <img src=""images/map07_cividis_scaleRev_orientMir_180.png"" style= ""width:200px""alt=""img"">
                            </div>
                        </div>","-158","","0","","","","images/map07_cividis_scaleRev_orientMir_180.png","happy","1","07","07","cividis","orientMir","scaleRev","180","",""
"","","","","","html-slider-response","99","346632","0.0-93.0","nwq8zkbr5l","13","NaN","<div style=""width:500px;"">
                            <p style=""font-size:50px; font-weight:bold;""
                            >happy</p>
                            <div style=""width:240px; margin: auto;"">
                                <img src=""images/map12_YlOrBr_scaleRev_orientMir_000.png"" style= ""width:200px""alt=""img"">
                            </div>
                        </div>","-31","","0","","","","images/map12_YlOrBr_scaleRev_orientMir_000.png","happy","1","12","12","YlOrBr","orientMir","scaleRev","000","",""
"","","","","","html-slider-response","100","348180","0.0-94.0","nwq8zkbr5l","13","NaN","<div style=""width:500px;"">
                            <p style=""font-size:50px; font-weight:bold;""
                            >happy</p>
                            <div style=""width:240px; margin: auto;"">
                                <img src=""images/map12_OrRd_scaleDef_orientMir_270.png"" style= ""width:200px""alt=""img"">
                            </div>
                        </div>","-10","","0","","","","images/map12_OrRd_scaleDef_orientMir_270.png","happy","1","12","12","OrRd","orientMir","scaleDef","270","",""
"","","","","","html-button-response","101","367454","0.0-95.0","nwq8zkbr5l","13","18772","<p>Great Job! You've finished block 1.<br></br> You have 4 block(s) left to go.<br></br></p>","0","","","","","","","","","","","","","","","",""
"","","","","","html-button-response","102","420555","0.0-96.0","nwq8zkbr5l","13","53100","<p>In this block of trials, you will be asked to rate how much you associate each map with:</p > <p style = 'font-size:150%; font-weight: bold'>fearful</p><br></br>","0","","","","","","","","","","","","","","","",""
"","","","","","html-slider-response","103","422352","0.0-97.0","nwq8zkbr5l","13","NaN","<div style=""width:500px;"">
                            <p style=""font-size:50px; font-weight:bold;""
                            >fearful</p>
                            <div style=""width:240px; margin: auto;"">
                                <img src=""images/map10_Blues_scaleDef_orientDef_270.png"" style= ""width:200px""alt=""img"">
                            </div>
                        </div>","-81","","0","","","","images/map10_Blues_scaleDef_orientDef_270.png","fearful","1","10","10","Blues","orientDef","scaleDef","270","",""
"","","","","","html-slider-response","104","424018","0.0-98.0","nwq8zkbr5l","13","NaN","<div style=""width:500px;"">
                            <p style=""font-size:50px; font-weight:bold;""
                            >fearful</p>
                            <div style=""width:240px; margin: auto;"">
                                <img src=""images/map15_PuBuGn_scaleRev_orientMir_180.png"" style= ""width:200px""alt=""img"">
                            </div>
                        </div>","-51","","0","","","","images/map15_PuBuGn_scaleRev_orientMir_180.png","fearful","1","15","15","PuBuGn","orientMir","scaleRev","180","",""
"","","","","","html-slider-response","105","426169","0.0-99.0","nwq8zkbr5l","13","NaN","<div style=""width:500px;"">
                            <p style=""font-size:50px; font-weight:bold;""
                            >fearful</p>
                            <div style=""width:240px; margin: auto;"">
                                <img src=""images/map23_PiYG_scaleRev_orientMir_000.png"" style= ""width:200px""alt=""img"">
                            </div>
                        </div>","-30","","0","","","","images/map23_PiYG_scaleRev_orientMir_000.png","fearful","1","23","23","PiYG","orientMir","scaleRev","000","",""
"","","","","","html-slider-response","106","427901","0.0-100.0","nwq8zkbr5l","13","NaN","<div style=""width:500px;"">
                            <p style=""font-size:50px; font-weight:bold;""
                            >fearful</p>
                            <div style=""width:240px; margin: auto;"">
                                <img src=""images/map05_gist_earth_scaleDef_orientDef_090.png"" style= ""width:200px""alt=""img"">
                            </div>
                        </div>","-80","","0","","","","images/map05_gist_earth_scaleDef_orientDef_090.png","fearful","1","05","05","gist","scaleDef","earth","orientDef","",""
"","","","","","html-slider-response","107","429572","0.0-101.0","nwq8zkbr5l","13","NaN","<div style=""width:500px;"">
                            <p style=""font-size:50px; font-weight:bold;""
                            >fearful</p>
                            <div style=""width:240px; margin: auto;"">
                                <img src=""images/map12_Reds_scaleDef_orientDef_090.png"" style= ""width:200px""alt=""img"">
                            </div>
                        </div>","113","","0","","","","images/map12_Reds_scaleDef_orientDef_090.png","fearful","1","12","12","Reds","orientDef","scaleDef","090","",""
"","","","","","html-slider-response","108","431204","0.0-102.0","nwq8zkbr5l","13","NaN","<div style=""width:500px;"">
                            <p style=""font-size:50px; font-weight:bold;""
                            >fearful</p>
                            <div style=""width:240px; margin: auto;"">
                                <img src=""images/map23_PiYG_scaleDef_orientDef_270.png"" style= ""width:200px""alt=""img"">
                            </div>
                        </div>","-55","","0","","","","images/map23_PiYG_scaleDef_orientDef_270.png","fearful","1","23","23","PiYG","orientDef","scaleDef","270","",""
"","","","","","html-slider-response","109","432885","0.0-103.0","nwq8zkbr5l","13","NaN","<div style=""width:500px;"">
                            <p style=""font-size:50px; font-weight:bold;""
                            >fearful</p>
                            <div style=""width:240px; margin: auto;"">
                                <img src=""images/map12_YlOrBr_scaleDef_orientDef_270.png"" style= ""width:200px""alt=""img"">
                            </div>
                        </div>","37","","0","","","","images/map12_YlOrBr_scaleDef_orientDef_270.png","fearful","1","12","12","YlOrBr","orientDef","scaleDef","270","",""
"","","","","","html-slider-response","110","434669","0.0-104.0","nwq8zkbr5l","13","NaN","<div style=""width:500px;"">
                            <p style=""font-size:50px; font-weight:bold;""
                            >fearful</p>
                            <div style=""width:240px; margin: auto;"">
                                <img src=""images/map02_berlin_scaleRev_orientMir_000.png"" style= ""width:200px""alt=""img"">
                            </div>
                        </div>","121","","0","","","","images/map02_berlin_scaleRev_orientMir_000.png","fearful","1","02","02","berlin","orientMir","scaleRev","000","",""
"","","","","","html-slider-response","111","437070","0.0-105.0","nwq8zkbr5l","13","NaN","<div style=""width:500px;"">
                            <p style=""font-size:50px; font-weight:bold;""
                            >fearful</p>
                            <div style=""width:240px; margin: auto;"">
                                <img src=""images/map10_Greens_scaleRev_orientMir_180.png"" style= ""width:200px""alt=""img"">
                            </div>
                        </div>","-163","","0","","","","images/map10_Greens_scaleRev_orientMir_180.png","fearful","1","10","10","Greens","orientMir","scaleRev","180","",""
"","","","","","html-slider-response","112","438768","0.0-106.0","nwq8zkbr5l","13","NaN","<div style=""width:500px;"">
                            <p style=""font-size:50px; font-weight:bold;""
                            >fearful</p>
                            <div style=""width:240px; margin: auto;"">
                                <img src=""images/map15_YlGnBu_scaleRev_orientMir_000.png"" style= ""width:200px""alt=""img"">
                            </div>
                        </div>","-87","","0","","","","images/map15_YlGnBu_scaleRev_orientMir_000.png","fearful","1","15","15","YlGnBu","orientMir","scaleRev","000","",""
"","","","","","html-slider-response","113","440936","0.0-107.0","nwq8zkbr5l","13","NaN","<div style=""width:500px;"">
                            <p style=""font-size:50px; font-weight:bold;""
                            >fearful</p>
                            <div style=""width:240px; margin: auto;"">
                                <img src=""images/map26_PuOr_scaleDef_orientDef_090.png"" style= ""width:200px""alt=""img"">
                            </div>
                        </div>","-38","","0","","","","images/map26_PuOr_scaleDef_orientDef_090.png","fearful","1","26","26","PuOr","orientDef","scaleDef","090","",""
"","","","","","html-slider-response","114","442653","0.0-108.0","nwq8zkbr5l","13","NaN","<div style=""width:500px;"">
                            <p style=""font-size:50px; font-weight:bold;""
                            >fearful</p>
                            <div style=""width:240px; margin: auto;"">
                                <img src=""images/map15_GnBu_scaleRev_orientDef_000.png"" style= ""width:200px""alt=""img"">
                            </div>
                        </div>","-125","","0","","","","images/map15_GnBu_scaleRev_orientDef_000.png","fearful","1","15","15","GnBu","orientDef","scaleRev","000","",""
"","","","","","html-slider-response","115","444387","0.0-109.0","nwq8zkbr5l","13","NaN","<div style=""width:500px;"">
                            <p style=""font-size:50px; font-weight:bold;""
                            >fearful</p>
                            <div style=""width:240px; margin: auto;"">
                                <img src=""images/map13_RdPu_scaleRev_orientMir_000.png"" style= ""width:200px""alt=""img"">
                            </div>
                        </div>","35","","0","","","","images/map13_RdPu_scaleRev_orientMir_000.png","fearful","1","13","13","RdPu","orientMir","scaleRev","000","",""
"","","","","","html-slider-response","116","446204","0.0-110.0","nwq8zkbr5l","13","NaN","<div style=""width:500px;"">
                            <p style=""font-size:50px; font-weight:bold;""
                            >fearful</p>
                            <div style=""width:240px; margin: auto;"">
                                <img src=""images/map13_BuPu_scaleRev_orientMir_180.png"" style= ""width:200px""alt=""img"">
                            </div>
                        </div>","24","","0","","","","images/map13_BuPu_scaleRev_orientMir_180.png","fearful","1","13","13","BuPu","orientMir","scaleRev","180","",""
"","","","","","html-slider-response","117","448520","0.0-111.0","nwq8zkbr5l","13","NaN","<div style=""width:500px;"">
                            <p style=""font-size:50px; font-weight:bold;""
                            >fearful</p>
                            <div style=""width:240px; margin: auto;"">
                                <img src=""images/map07_magma_scaleRev_orientMir_000.png"" style= ""width:200px""alt=""img"">
                            </div>
                        </div>","192","","0","","","","images/map07_magma_scaleRev_orientMir_000.png","fearful","1","07","07","magma","orientMir","scaleRev","000","",""
"","","","","","html-slider-response","118","450287","0.0-112.0","nwq8zkbr5l","13","NaN","<div style=""width:500px;"">
                            <p style=""font-size:50px; font-weight:bold;""
                            >fearful</p>
                            <div style=""width:240px; margin: auto;"">
                                <img src=""images/map02_seismic_scaleDef_orientDef_090.png"" style= ""width:200px""alt=""img"">
                            </div>
                        </div>","80","","0","","","","images/map02_seismic_scaleDef_orientDef_090.png","fearful","1","02","02","seismic","orientDef","scaleDef","090","",""
"","","","","","html-slider-response","119","451752","0.0-113.0","nwq8zkbr5l","13","NaN","<div style=""width:500px;"">
                            <p style=""font-size:50px; font-weight:bold;""
                            >fearful</p>
                            <div style=""width:240px; margin: auto;"">
                                <img src=""images/map15_YlGnBu_scaleDef_orientDef_270.png"" style= ""width:200px""alt=""img"">
                            </div>
                        </div>","-82","","0","","","","images/map15_YlGnBu_scaleDef_orientDef_270.png","fearful","1","15","15","YlGnBu","orientDef","scaleDef","270","",""
"","","","","","html-slider-response","120","454619","0.0-114.0","nwq8zkbr5l","13","NaN","<div style=""width:500px;"">
                            <p style=""font-size:50px; font-weight:bold;""
                            >fearful</p>
                            <div style=""width:240px; margin: auto;"">
                                <img src=""images/map26_BrBG_scaleRev_orientDef_000.png"" style= ""width:200px""alt=""img"">
                            </div>
                        </div>","-46","","0","","","","images/map26_BrBG_scaleRev_orientDef_000.png","fearful","1","26","26","BrBG","orientDef","scaleRev","000","",""
"","","","","","html-slider-response","121","456152","0.0-115.0","nwq8zkbr5l","13","NaN","<div style=""width:500px;"">
                            <p style=""font-size:50px; font-weight:bold;""
                            >fearful</p>
                            <div style=""width:240px; margin: auto;"">
                                <img src=""images/map05_plasma_scaleDef_orientMir_270.png"" style= ""width:200px""alt=""img"">
                            </div>
                        </div>","106","","0","","","","images/map05_plasma_scaleDef_orientMir_270.png","fearful","1","05","05","plasma","orientMir","scaleDef","270","",""
"","","","","","html-slider-response","122","457818","0.0-116.0","nwq8zkbr5l","13","NaN","<div style=""width:500px;"">
                            <p style=""font-size:50px; font-weight:bold;""
                            >fearful</p>
                            <div style=""width:240px; margin: auto;"">
                                <img src=""images/map05_gist_earth_scaleRev_orientDef_180.png"" style= ""width:200px""alt=""img"">
                            </div>
                        </div>","-94","","0","","","","images/map05_gist_earth_scaleRev_orientDef_180.png","fearful","1","05","05","gist","scaleRev","earth","orientDef","",""
"","","","","","html-slider-response","123","459405","0.0-117.0","nwq8zkbr5l","13","NaN","<div style=""width:500px;"">
                            <p style=""font-size:50px; font-weight:bold;""
                            >fearful</p>
                            <div style=""width:240px; margin: auto;"">
                                <img src=""images/map23_PRGn_scaleRev_orientMir_180.png"" style= ""width:200px""alt=""img"">
                            </div>
                        </div>","-53","","0","","","","images/map23_PRGn_scaleRev_orientMir_180.png","fearful","1","23","23","PRGn","orientMir","scaleRev","180","",""
"","","","","","html-slider-response","124","461386","0.0-118.0","nwq8zkbr5l","13","NaN","<div style=""width:500px;"">
                            <p style=""font-size:50px; font-weight:bold;""
                            >fearful</p>
                            <div style=""width:240px; margin: auto;"">
                                <img src=""images/map26_PuOr_scaleRev_orientDef_180.png"" style= ""width:200px""alt=""img"">
                            </div>
                        </div>","-49","","0","","","","images/map26_PuOr_scaleRev_orientDef_180.png","fearful","1","26","26","PuOr","orientDef","scaleRev","180","",""
"","","","","","html-slider-response","125","463287","0.0-119.0","nwq8zkbr5l","13","NaN","<div style=""width:500px;"">
                            <p style=""font-size:50px; font-weight:bold;""
                            >fearful</p>
                            <div style=""width:240px; margin: auto;"">
                                <img src=""images/map10_Greys_scaleRev_orientDef_000.png"" style= ""width:200px""alt=""img"">
                            </div>
                        </div>","45","","0","","","","images/map10_Greys_scaleRev_orientDef_000.png","fearful","1","10","10","Greys","orientDef","scaleRev","000","",""
"","","","","","html-slider-response","126","464988","0.0-120.0","nwq8zkbr5l","13","NaN","<div style=""width:500px;"">
                            <p style=""font-size:50px; font-weight:bold;""
                            >fearful</p>
                            <div style=""width:240px; margin: auto;"">
                                <img src=""images/map05_turbo_scaleRev_orientMir_000.png"" style= ""width:200px""alt=""img"">
                            </div>
                        </div>","70","","0","","","","images/map05_turbo_scaleRev_orientMir_000.png","fearful","1","05","05","turbo","orientMir","scaleRev","000","",""
"","","","","","html-slider-response","127","466504","0.0-121.0","nwq8zkbr5l","13","NaN","<div style=""width:500px;"">
                            <p style=""font-size:50px; font-weight:bold;""
                            >fearful</p>
                            <div style=""width:240px; margin: auto;"">
                                <img src=""images/map27_RdYlGn_scaleRev_orientDef_180.png"" style= ""width:200px""alt=""img"">
                            </div>
                        </div>","75","","0","","","","images/map27_RdYlGn_scaleRev_orientDef_180.png","fearful","1","27","27","RdYlGn","orientDef","scaleRev","180","",""
"","","","","","html-slider-response","128","468221","0.0-122.0","nwq8zkbr5l","13","NaN","<div style=""width:500px;"">
                            <p style=""font-size:50px; font-weight:bold;""
                            >fearful</p>
                            <div style=""width:240px; margin: auto;"">
                                <img src=""images/map12_OrRd_scaleDef_orientMir_270.png"" style= ""width:200px""alt=""img"">
                            </div>
                        </div>","116","","0","","","","images/map12_OrRd_scaleDef_orientMir_270.png","fearful","1","12","12","OrRd","orientMir","scaleDef","270","",""
"","","","","","html-slider-response","129","470273","0.0-123.0","nwq8zkbr5l","13","NaN","<div style=""width:500px;"">
                            <p style=""font-size:50px; font-weight:bold;""
                            >fearful</p>
                            <div style=""width:240px; margin: auto;"">
                                <img src=""images/map02_berlin_scaleDef_orientDef_270.png"" style= ""width:200px""alt=""img"">
                            </div>
                        </div>","200","","0","","","","images/map02_berlin_scaleDef_orientDef_270.png","fearful","1","02","02","berlin","orientDef","scaleDef","270","",""
"","","","","","html-slider-response","130","472288","0.0-124.0","nwq8zkbr5l","13","NaN","<div style=""width:500px;"">
                            <p style=""font-size:50px; font-weight:bold;""
                            >fearful</p>
                            <div style=""width:240px; margin: auto;"">
                                <img src=""images/map27_RdYlBu_scaleRev_orientDef_000.png"" style= ""width:200px""alt=""img"">
                            </div>
                        </div>","37","","0","","","","images/map27_RdYlBu_scaleRev_orientDef_000.png","fearful","1","27","27","RdYlBu","orientDef","scaleRev","000","",""
"","","","","","html-slider-response","131","473870","0.0-125.0","nwq8zkbr5l","13","NaN","<div style=""width:500px;"">
                            <p style=""font-size:50px; font-weight:bold;""
                            >fearful</p>
                            <div style=""width:240px; margin: auto;"">
                                <img src=""images/map05_viridis_scaleDef_orientMir_090.png"" style= ""width:200px""alt=""img"">
                            </div>
                        </div>","-96","","0","","","","images/map05_viridis_scaleDef_orientMir_090.png","fearful","1","05","05","viridis","orientMir","scaleDef","090","",""
"","","","","","html-slider-response","132","475237","0.0-126.0","nwq8zkbr5l","13","NaN","<div style=""width:500px;"">
                            <p style=""font-size:50px; font-weight:bold;""
                            >fearful</p>
                            <div style=""width:240px; margin: auto;"">
                                <img src=""images/map13_RdPu_scaleDef_orientDef_270.png"" style= ""width:200px""alt=""img"">
                            </div>
                        </div>","141","","0","","","","images/map13_RdPu_scaleDef_orientDef_270.png","fearful","1","13","13","RdPu","orientDef","scaleDef","270","",""
"","","","","","html-slider-response","133","476638","0.0-127.0","nwq8zkbr5l","13","NaN","<div style=""width:500px;"">
                            <p style=""font-size:50px; font-weight:bold;""
                            >fearful</p>
                            <div style=""width:240px; margin: auto;"">
                                <img src=""images/map13_OrRd_scaleRev_orientDef_000.png"" style= ""width:200px""alt=""img"">
                            </div>
                        </div>","37","","0","","","","images/map13_OrRd_scaleRev_orientDef_000.png","fearful","1","13","13","OrRd","orientDef","scaleRev","000","",""
"","","","","","html-slider-response","134","478288","0.0-128.0","nwq8zkbr5l","13","NaN","<div style=""width:500px;"">
                            <p style=""font-size:50px; font-weight:bold;""
                            >fearful</p>
                            <div style=""width:240px; margin: auto;"">
                                <img src=""images/map02_bwr_scaleRev_orientDef_000.png"" style= ""width:200px""alt=""img"">
                            </div>
                        </div>","30","","0","","","","images/map02_bwr_scaleRev_orientDef_000.png","fearful","1","02","02","bwr","orientDef","scaleRev","000","",""
"","","","","","html-slider-response","135","479971","0.0-129.0","nwq8zkbr5l","13","NaN","<div style=""width:500px;"">
                            <p style=""font-size:50px; font-weight:bold;""
                            >fearful</p>
                            <div style=""width:240px; margin: auto;"">
                                <img src=""images/map07_inferno_scaleRev_orientDef_180.png"" style= ""width:200px""alt=""img"">
                            </div>
                        </div>","160","","0","","","","images/map07_inferno_scaleRev_orientDef_180.png","fearful","1","07","07","inferno","orientDef","scaleRev","180","",""
"","","","","","html-slider-response","136","481821","0.0-130.0","nwq8zkbr5l","13","NaN","<div style=""width:500px;"">
                            <p style=""font-size:50px; font-weight:bold;""
                            >fearful</p>
                            <div style=""width:240px; margin: auto;"">
                                <img src=""images/map07_plasma_scaleRev_orientDef_000.png"" style= ""width:200px""alt=""img"">
                            </div>
                        </div>","161","","0","","","","images/map07_plasma_scaleRev_orientDef_000.png","fearful","1","07","07","plasma","orientDef","scaleRev","000","",""
"","","","","","html-slider-response","137","483988","0.0-131.0","nwq8zkbr5l","13","NaN","<div style=""width:500px;"">
                            <p style=""font-size:50px; font-weight:bold;""
                            >fearful</p>
                            <div style=""width:240px; margin: auto;"">
                                <img src=""images/map07_magma_scaleDef_orientDef_270.png"" style= ""width:200px""alt=""img"">
                            </div>
                        </div>","190","","0","","","","images/map07_magma_scaleDef_orientDef_270.png","fearful","1","07","07","magma","orientDef","scaleDef","270","",""
"","","","","","html-slider-response","138","485489","0.0-132.0","nwq8zkbr5l","13","NaN","<div style=""width:500px;"">
                            <p style=""font-size:50px; font-weight:bold;""
                            >fearful</p>
                            <div style=""width:240px; margin: auto;"">
                                <img src=""images/map12_YlOrBr_scaleRev_orientMir_000.png"" style= ""width:200px""alt=""img"">
                            </div>
                        </div>","43","","0","","","","images/map12_YlOrBr_scaleRev_orientMir_000.png","fearful","1","12","12","YlOrBr","orientMir","scaleRev","000","",""
"","","","","","html-slider-response","139","486904","0.0-133.0","nwq8zkbr5l","13","NaN","<div style=""width:500px;"">
                            <p style=""font-size:50px; font-weight:bold;""
                            >fearful</p>
                            <div style=""width:240px; margin: auto;"">
                                <img src=""images/map26_RdBu_scaleDef_orientMir_090.png"" style= ""width:200px""alt=""img"">
                            </div>
                        </div>","46","","0","","","","images/map26_RdBu_scaleDef_orientMir_090.png","fearful","1","26","26","RdBu","orientMir","scaleDef","090","",""
"","","","","","html-slider-response","140","488454","0.0-134.0","nwq8zkbr5l","13","NaN","<div style=""width:500px;"">
                            <p style=""font-size:50px; font-weight:bold;""
                            >fearful</p>
                            <div style=""width:240px; margin: auto;"">
                                <img src=""images/map23_YlGn_scaleRev_orientDef_180.png"" style= ""width:200px""alt=""img"">
                            </div>
                        </div>","-166","","0","","","","images/map23_YlGn_scaleRev_orientDef_180.png","fearful","1","23","23","YlGn","orientDef","scaleRev","180","",""
"","","","","","html-slider-response","141","490374","0.0-135.0","nwq8zkbr5l","13","NaN","<div style=""width:500px;"">
                            <p style=""font-size:50px; font-weight:bold;""
                            >fearful</p>
                            <div style=""width:240px; margin: auto;"">
                                <img src=""images/map10_Blues_scaleRev_orientMir_000.png"" style= ""width:200px""alt=""img"">
                            </div>
                        </div>","-200","","0","","","","images/map10_Blues_scaleRev_orientMir_000.png","fearful","1","10","10","Blues","orientMir","scaleRev","000","",""
"","","","","","html-slider-response","142","491905","0.0-136.0","nwq8zkbr5l","13","NaN","<div style=""width:500px;"">
                            <p style=""font-size:50px; font-weight:bold;""
                            >fearful</p>
                            <div style=""width:240px; margin: auto;"">
                                <img src=""images/map23_BuGn_scaleRev_orientDef_000.png"" style= ""width:200px""alt=""img"">
                            </div>
                        </div>","-73","","0","","","","images/map23_BuGn_scaleRev_orientDef_000.png","fearful","1","23","23","BuGn","orientDef","scaleRev","000","",""
"","","","","","html-button-response","143","494211","0.0-137.0","nwq8zkbr5l","13","1804","<p>You are doing great!<br></br> You are halway done with the current block. When you are ready to continue, click the 'Continue' button.</p>","0","","","","","","","","","","","","","","","",""
"","","","","","html-slider-response","144","496656","0.0-138.0","nwq8zkbr5l","13","NaN","<div style=""width:500px;"">
                            <p style=""font-size:50px; font-weight:bold;""
                            >fearful</p>
                            <div style=""width:240px; margin: auto;"">
                                <img src=""images/map27_Spectral_scaleDef_orientDef_270.png"" style= ""width:200px""alt=""img"">
                            </div>
                        </div>","33","","0","","","","images/map27_Spectral_scaleDef_orientDef_270.png","fearful","1","27","27","Spectral","orientDef","scaleDef","270","",""
"","","","","","html-slider-response","145","498123","0.0-139.0","nwq8zkbr5l","13","NaN","<div style=""width:500px;"">
                            <p style=""font-size:50px; font-weight:bold;""
                            >fearful</p>
                            <div style=""width:240px; margin: auto;"">
                                <img src=""images/map07_Greys_scaleDef_orientMir_270.png"" style= ""width:200px""alt=""img"">
                            </div>
                        </div>","106","","0","","","","images/map07_Greys_scaleDef_orientMir_270.png","fearful","1","07","07","Greys","orientMir","scaleDef","270","",""
"","","","","","html-slider-response","146","499472","0.0-140.0","nwq8zkbr5l","13","NaN","<div style=""width:500px;"">
                            <p style=""font-size:50px; font-weight:bold;""
                            >fearful</p>
                            <div style=""width:240px; margin: auto;"">
                                <img src=""images/map15_PuBu_scaleRev_orientDef_180.png"" style= ""width:200px""alt=""img"">
                            </div>
                        </div>","-122","","0","","","","images/map15_PuBu_scaleRev_orientDef_180.png","fearful","1","15","15","PuBu","orientDef","scaleRev","180","",""
"","","","","","html-slider-response","147","500921","0.0-141.0","nwq8zkbr5l","13","NaN","<div style=""width:500px;"">
                            <p style=""font-size:50px; font-weight:bold;""
                            >fearful</p>
                            <div style=""width:240px; margin: auto;"">
                                <img src=""images/map26_RdGy_scaleDef_orientDef_270.png"" style= ""width:200px""alt=""img"">
                            </div>
                        </div>","62","","0","","","","images/map26_RdGy_scaleDef_orientDef_270.png","fearful","1","26","26","RdGy","orientDef","scaleDef","270","",""
"","","","","","html-slider-response","148","502371","0.0-142.0","nwq8zkbr5l","13","NaN","<div style=""width:500px;"">
                            <p style=""font-size:50px; font-weight:bold;""
                            >fearful</p>
                            <div style=""width:240px; margin: auto;"">
                                <img src=""images/map12_Oranges_scaleRev_orientDef_000.png"" style= ""width:200px""alt=""img"">
                            </div>
                        </div>","34","","0","","","","images/map12_Oranges_scaleRev_orientDef_000.png","fearful","1","12","12","Oranges","orientDef","scaleRev","000","",""
"","","","","","html-slider-response","149","504007","0.0-143.0","nwq8zkbr5l","13","NaN","<div style=""width:500px;"">
                            <p style=""font-size:50px; font-weight:bold;""
                            >fearful</p>
                            <div style=""width:240px; margin: auto;"">
                                <img src=""images/map12_Reds_scaleRev_orientDef_180.png"" style= ""width:200px""alt=""img"">
                            </div>
                        </div>","60","","0","","","","images/map12_Reds_scaleRev_orientDef_180.png","fearful","1","12","12","Reds","orientDef","scaleRev","180","",""
"","","","","","html-slider-response","150","505356","0.0-144.0","nwq8zkbr5l","13","NaN","<div style=""width:500px;"">
                            <p style=""font-size:50px; font-weight:bold;""
                            >fearful</p>
                            <div style=""width:240px; margin: auto;"">
                                <img src=""images/map10_Greens_scaleDef_orientMir_090.png"" style= ""width:200px""alt=""img"">
                            </div>
                        </div>","-154","","0","","","","images/map10_Greens_scaleDef_orientMir_090.png","fearful","1","10","10","Greens","orientMir","scaleDef","090","",""
"","","","","","html-slider-response","151","506824","0.0-145.0","nwq8zkbr5l","13","NaN","<div style=""width:500px;"">
                            <p style=""font-size:50px; font-weight:bold;""
                            >fearful</p>
                            <div style=""width:240px; margin: auto;"">
                                <img src=""images/map02_managua_scaleRev_orientMir_180.png"" style= ""width:200px""alt=""img"">
                            </div>
                        </div>","111","","0","","","","images/map02_managua_scaleRev_orientMir_180.png","fearful","1","02","02","managua","orientMir","scaleRev","180","",""
"","","","","","html-slider-response","152","508823","0.0-146.0","nwq8zkbr5l","13","NaN","<div style=""width:500px;"">
                            <p style=""font-size:50px; font-weight:bold;""
                            >fearful</p>
                            <div style=""width:240px; margin: auto;"">
                                <img src=""images/map23_BrBG_scaleDef_orientMir_270.png"" style= ""width:200px""alt=""img"">
                            </div>
                        </div>","-64","","0","","","","images/map23_BrBG_scaleDef_orientMir_270.png","fearful","1","23","23","BrBG","orientMir","scaleDef","270","",""
"","","","","","html-slider-response","153","510155","0.0-147.0","nwq8zkbr5l","13","NaN","<div style=""width:500px;"">
                            <p style=""font-size:50px; font-weight:bold;""
                            >fearful</p>
                            <div style=""width:240px; margin: auto;"">
                                <img src=""images/map26_RdGy_scaleRev_orientMir_000.png"" style= ""width:200px""alt=""img"">
                            </div>
                        </div>","105","","0","","","","images/map26_RdGy_scaleRev_orientMir_000.png","fearful","1","26","26","RdGy","orientMir","scaleRev","000","",""
"","","","","","html-slider-response","154","511555","0.0-148.0","nwq8zkbr5l","13","NaN","<div style=""width:500px;"">
                            <p style=""font-size:50px; font-weight:bold;""
                            >fearful</p>
                            <div style=""width:240px; margin: auto;"">
                                <img src=""images/map23_YlGn_scaleDef_orientDef_090.png"" style= ""width:200px""alt=""img"">
                            </div>
                        </div>","-163","","0","","","","images/map23_YlGn_scaleDef_orientDef_090.png","fearful","1","23","23","YlGn","orientDef","scaleDef","090","",""
"","","","","","html-slider-response","155","513174","0.0-149.0","nwq8zkbr5l","13","NaN","<div style=""width:500px;"">
                            <p style=""font-size:50px; font-weight:bold;""
                            >fearful</p>
                            <div style=""width:240px; margin: auto;"">
                                <img src=""images/map07_cividis_scaleRev_orientMir_180.png"" style= ""width:200px""alt=""img"">
                            </div>
                        </div>","158","","0","","","","images/map07_cividis_scaleRev_orientMir_180.png","fearful","1","07","07","cividis","orientMir","scaleRev","180","",""
"","","","","","html-slider-response","156","514873","0.0-150.0","nwq8zkbr5l","13","NaN","<div style=""width:500px;"">
                            <p style=""font-size:50px; font-weight:bold;""
                            >fearful</p>
                            <div style=""width:240px; margin: auto;"">
                                <img src=""images/map27_Spectral_scaleRev_orientMir_000.png"" style= ""width:200px""alt=""img"">
                            </div>
                        </div>","22","","0","","","","images/map27_Spectral_scaleRev_orientMir_000.png","fearful","1","27","27","Spectral","orientMir","scaleRev","000","",""
"","","","","","html-slider-response","157","516423","0.0-151.0","nwq8zkbr5l","13","NaN","<div style=""width:500px;"">
                            <p style=""font-size:50px; font-weight:bold;""
                            >fearful</p>
                            <div style=""width:240px; margin: auto;"">
                                <img src=""images/map27_bwr_scaleDef_orientMir_270.png"" style= ""width:200px""alt=""img"">
                            </div>
                        </div>","79","","0","","","","images/map27_bwr_scaleDef_orientMir_270.png","fearful","1","27","27","bwr","orientMir","scaleDef","270","",""
"","","","","","html-slider-response","158","517741","0.0-152.0","nwq8zkbr5l","13","NaN","<div style=""width:500px;"">
                            <p style=""font-size:50px; font-weight:bold;""
                            >fearful</p>
                            <div style=""width:240px; margin: auto;"">
                                <img src=""images/map05_viridis_scaleRev_orientMir_180.png"" style= ""width:200px""alt=""img"">
                            </div>
