"success","timeout","failed_images","failed_audio","failed_video","trial_type","trial_index","time_elapsed","internal_node_id","subject_id","condition_num","rt","stimulus","response","question_order","slider_start","practiceTrial","practiceTrialNum","correct","image_path","concept","repetition","map_id","map_num","scale_name","orientation_code","mapping_code","rotation_code","ishihara_plate","correct_response"
"true","false","[]","[]","[]","preload","0","931","0.0-0.0","nzaey1h256","50","","","","","","","","","","","","","","","","","","",""
"","","","","","html-button-response","1","3091","0.0-1.0","nzaey1h256","50","2158","Welcome to our experiment!<p>At the bottom of this screen, you will see a button that says ""Begin Experiment"".<br>Please only click that button when you are ready to complete the 30 minute experiment in one sitting.</p><p> Once you click that button, it will not be possible to restart the experiment.","0","","","","","","","","","","","","","","","",""
"true","","","","","fullscreen","2","5629","0.0-2.0","nzaey1h256","50","1530","","","","","","","","","","","","","","","","","",""
"","","","","","survey-multi-select","3","20055","0.0-3.0","nzaey1h256","50","14421","","{""Consent"":[""<strong>I consent</strong>""]}","[0]","","","","","","","","","","","","","","",""
"","","","","","html-button-response","4","22593","0.0-4.0","nzaey1h256","50","2537","Welcome! <p> This experiment involves two parts: demographic information, followed by the experimental task.<p> It will take about 30 minutes to complete both parts.","0","","","","","","","","","","","","","","","",""
"","","","","","survey-text","5","34349","0.0-5.0","nzaey1h256","50","11747","","{""Age"":""21"",""Gender"":""female"",""Race/ethnicity"":""white"",""Languages"":""english""}","","","","","","","","","","","","","","","",""
"","","","","","html-slider-response","6","85428","0.0-6.0","nzaey1h256","50","51077","<div style='text-align:left; font-size:20px; line-height:25px; width: 1000px;'>
                                During this experiment you will be asked to rate how much you associate maps with                    different concepts.<br> Below, you can see some examples of the maps you will be asked to rate. Above the maps
                    is the list of concepts.<br>You will be asked                    to rate how much you associate each map with each concept on a scale from 'not at all' to 'very much' like the
                    one below. <br><br>
                    Now, please look at the list of concepts and maps. For each concept, think about the map you associate 'very
                    much' with the concept.<br>                     When you see that map during the experiment, please rate it near the 'very much' endpoint of the
                    scale.<br>Now, please think about which map you associate 'not at all'                     with each concept. When you see that map during the experiment, please rate it near the 'not at all' endpoint
                    of the scale.<br>
                    Please use the full range of the scale. That is, if a map is somewhat associated with the concept, you would
                    click partway between the middle point and right side of the scale.                    You will be asked to rate each map for a given concept before moving on to the next concept.<br>Press the
                    'Continue' button for instructions on how to use the slider.                    <br>
                </div>

                <div style=""width: 500px; margin: 0 auto;"">
                    <!-- Centered text paragraphs -->
                    <div style=""text-align: center; width: 500px;"">
                        <p style=""font-size:25px; line-height:15px;"">
                            angry&nbsp;&nbsp;&nbsp;&nbsp;
                            happy&nbsp;&nbsp;&nbsp;&nbsp;
                            fearful&nbsp;&nbsp;&nbsp;&nbsp;
                            disgust&nbsp;&nbsp;&nbsp;&nbsp;
                            sad
                        </p>
                        <!-- <p style=""font-size:20px; line-height:15px;"">happy</p>
                        <p style=""font-size:20px;line-height:15px;"">fearful</p>
                        <p style=""font-size:20px;line-height:15px;"">disgust</p>
                        <p style=""font-size:20px;line-height:15px;"">sad</p> -->
                    </div>
            

                    <!-- Grid section -->
                   <div style=""display: flex; justify-content: center; padding-top: 15px;"">
                    <div style=""display: grid; grid-template-columns: repeat(10, 55px); grid-gap: 5px; width: auto;"">
                        <img src=""images/map10_RdGy_scaleDef_orientDef_000.png"" alt=""map"" style=""width: 100%;""><img src=""images/map26_Reds_scaleDef_orientMir_180.png"" alt=""map"" style=""width: 100%;""><img src=""images/map10_RdYlBu_scaleDef_orientMir_000.png"" alt=""map"" style=""width: 100%;""><img src=""images/map15_viridis_scaleRev_orientDef_270.png"" alt=""map"" style=""width: 100%;""><img src=""images/map12_bwr_scaleDef_orientMir_000.png"" alt=""map"" style=""width: 100%;""><img src=""images/map23_magma_scaleDef_orientDef_000.png"" alt=""map"" style=""width: 100%;""><img src=""images/map27_YlOrBr_scaleRev_orientDef_090.png"" alt=""map"" style=""width: 100%;""><img src=""images/map02_PuBu_scaleDef_orientMir_180.png"" alt=""map"" style=""width: 100%;""><img src=""images/map07_PRGn_scaleRev_orientDef_270.png"" alt=""map"" style=""width: 100%;""><img src=""images/map13_berlin_scaleRev_orientDef_090.png"" alt=""map"" style=""width: 100%;""><img src=""images/map10_RdYlGn_scaleRev_orientMir_270.png"" alt=""map"" style=""width: 100%;""><img src=""images/map13_managua_scaleRev_orientDef_270.png"" alt=""map"" style=""width: 100%;""><img src=""images/map15_plasma_scaleDef_orientMir_000.png"" alt=""map"" style=""width: 100%;""><img src=""images/map07_BrBG_scaleDef_orientMir_000.png"" alt=""map"" style=""width: 100%;""><img src=""images/map02_GnBu_scaleDef_orientMir_000.png"" alt=""map"" style=""width: 100%;""><img src=""images/map15_inferno_scaleDef_orientMir_180.png"" alt=""map"" style=""width: 100%;""><img src=""images/map26_Oranges_scaleDef_orientMir_000.png"" alt=""map"" style=""width: 100%;""><img src=""images/map12_Spectral_scaleRev_orientDef_090.png"" alt=""map"" style=""width: 100%;""><img src=""images/map02_RdPu_scaleDef_orientDef_000.png"" alt=""map"" style=""width: 100%;""><img src=""images/map23_Greys_scaleDef_orientMir_000.png"" alt=""map"" style=""width: 100%;""><img src=""images/map12_seismic_scaleRev_orientMir_270.png"" alt=""map"" style=""width: 100%;""><img src=""images/map23_cividis_scaleDef_orientDef_180.png"" alt=""map"" style=""width: 100%;""><img src=""images/map27_OrRd_scaleRev_orientMir_090.png"" alt=""map"" style=""width: 100%;""><img src=""images/map26_Blues_scaleRev_orientDef_090.png"" alt=""map"" style=""width: 100%;""><img src=""images/map07_PuOr_scaleRev_orientMir_270.png"" alt=""map"" style=""width: 100%;""><img src=""images/map27_YlOrRd_scaleRev_orientDef_270.png"" alt=""map"" style=""width: 100%;""><img src=""images/map05_PuBuGn_scaleDef_orientDef_180.png"" alt=""map"" style=""width: 100%;""><img src=""images/map10_RdBu_scaleRev_orientDef_270.png"" alt=""map"" style=""width: 100%;""><img src=""images/map26_Greens_scaleRev_orientDef_270.png"" alt=""map"" style=""width: 100%;""><img src=""images/map15_turbo_scaleRev_orientDef_090.png"" alt=""map"" style=""width: 100%;""><img src=""images/map12_coolwarm_scaleRev_orientDef_270.png"" alt=""map"" style=""width: 100%;""><img src=""images/map23_Purples_scaleDef_orientMir_180.png"" alt=""map"" style=""width: 100%;""><img src=""images/map13_vanimo_scaleRev_orientMir_090.png"" alt=""map"" style=""width: 100%;""><img src=""images/map27_PuRd_scaleDef_orientMir_180.png"" alt=""map"" style=""width: 100%;""><img src=""images/map13_gist_earth_scaleDef_orientMir_180.png"" alt=""map"" style=""width: 100%;""><img src=""images/map05_YlGn_scaleDef_orientMir_180.png"" alt=""map"" style=""width: 100%;""><img src=""images/map07_PiYG_scaleDef_orientDef_000.png"" alt=""map"" style=""width: 100%;""><img src=""images/map05_BuGn_scaleDef_orientMir_000.png"" alt=""map"" style=""width: 100%;""><img src=""images/map05_YlGnBu_scaleRev_orientDef_090.png"" alt=""map"" style=""width: 100%;""><img src=""images/map02_BuPu_scaleDef_orientDef_180.png"" alt=""map"" style=""width: 100%;"">
                    </div>
                </div>

                    <!-- Clear floats -->
                    <div style=""clear: both;""></div>
                </div>
                            ","0","","0","true","","","","","","","","","","","","",""
"","","","","","html-button-response","7","87127","0.0-7.0","nzaey1h256","50","1697","<div style=""width:800px;""><p style=""text-align:left"">To move the slider, click and drag your cursor to the location of the scale where you would like to make your rating and then let go. When you let go of the slider, your response will be recorded and the next trial will begin. <br>
                    We are interested in your initial impressions of each map for the given concept, so please go with your first intuition. <br>
                    Before you begin the experiment, there will be four training trials for you to practice using the scale. <br>
                     When you are ready to start the training trials, please click ""Continue"".</p><br></div>","0","","","","","","","","","","","","","","","",""
"","","","","","html-slider-response","8","89441","0.0-8.0-0.0","nzaey1h256","50","NaN","<div style=""width:500px;"">
                                    <p style=""font-size:25px;"">Please move the slider all the way to the <br> right endpoint of the scale</p>

                                    </div>
                                </div>","200","","0","true","0","true","","","","","","","","","","",""
"","","","","","html-button-response","9","90726","0.0-8.0-1.0","nzaey1h256","50","784","<p align='center'><b>Good job!</b> Click on 'Continue' to proceed.</p>","0","","","","","","","","","","","","","","","",""
"","","","","","html-slider-response","10","91996","0.0-9.0-0.0","nzaey1h256","50","NaN","<div style=""width:500px;"">
                                    <p style=""font-size:25px;"">Please move the slider all the way to the <br> left endpoint of the scale</p>

                                    </div>
                                </div>","-200","","0","true","1","true","","","","","","","","","","",""
"","","","","","html-button-response","11","93317","0.0-9.0-1.0","nzaey1h256","50","816","<p align='center'><b>Good job!</b> Click on 'Continue' to proceed.</p>","0","","","","","","","","","","","","","","","",""
"","","","","","html-slider-response","12","97372","0.0-10.0-0.0","nzaey1h256","50","NaN","<div style=""width:500px;"">
                                    <p style=""font-size:25px;"">Please move the slider halfway between the center and right endpoint of the scale</p>

                                    </div>
                                </div>","109","","0","true","2","true","","","","","","","","","","",""
"","","","","","html-button-response","13","98458","0.0-10.0-1.0","nzaey1h256","50","583","<p align='center'><b>Good job!</b> Click on 'Continue' to proceed.</p>","0","","","","","","","","","","","","","","","",""
"","","","","","html-slider-response","14","100289","0.0-11.0-0.0","nzaey1h256","50","NaN","<div style=""width:500px;"">
                                    <p style=""font-size:25px;"">Please move the slider halfway between the center and left endpoint of the scale</p>

                                    </div>
                                </div>","-110","","0","true","3","true","","","","","","","","","","",""
"","","","","","html-button-response","15","101454","0.0-11.0-1.0","nzaey1h256","50","664","<p align='center'><b>Good job!</b> Click on 'Continue' to proceed.</p>","0","","","","","","","","","","","","","","","",""
"","","","","","html-button-response","16","102344","0.0-12.0","nzaey1h256","50","890","<p>Great job! You've completed the practice trials. Now you will begin the main task.</p>","0","","","","","","","","","","","","","","","",""
"","","","","","html-button-response","17","104270","0.0-13.0","nzaey1h256","50","1925","<p>In this block of trials, you will be asked to rate how much you associate each map with:</p > <p style = 'font-size:150%; font-weight: bold'>angry</p><br></br>","0","","","","","","","","","","","","","","","",""
"","","","","","html-slider-response","18","107171","0.0-14.0","nzaey1h256","50","NaN","<div style=""width:500px;"">
                            <p style=""font-size:50px; font-weight:bold;""
                            >angry</p>
                            <div style=""width:240px; margin: auto;"">
                                <img src=""images/map15_turbo_scaleDef_orientDef_000.png"" style= ""width:200px""alt=""img"">
                            </div>
                        </div>","34","","0","","","","images/map15_turbo_scaleDef_orientDef_000.png","angry","1","15","15","turbo","orientDef","scaleDef","000","",""
"","","","","","html-slider-response","19","111000","0.0-15.0","nzaey1h256","50","NaN","<div style=""width:500px;"">
                            <p style=""font-size:50px; font-weight:bold;""
                            >angry</p>
                            <div style=""width:240px; margin: auto;"">
                                <img src=""images/map10_RdYlGn_scaleDef_orientMir_180.png"" style= ""width:200px""alt=""img"">
                            </div>
                        </div>","-34","","0","","","","images/map10_RdYlGn_scaleDef_orientMir_180.png","angry","1","10","10","RdYlGn","orientMir","scaleDef","180","",""
"","","","","","html-slider-response","20","114502","0.0-16.0","nzaey1h256","50","NaN","<div style=""width:500px;"">
                            <p style=""font-size:50px; font-weight:bold;""
                            >angry</p>
                            <div style=""width:240px; margin: auto;"">
                                <img src=""images/map15_plasma_scaleDef_orientMir_000.png"" style= ""width:200px""alt=""img"">
                            </div>
                        </div>","-98","","0","","","","images/map15_plasma_scaleDef_orientMir_000.png","angry","1","15","15","plasma","orientMir","scaleDef","000","",""
"","","","","","html-slider-response","21","117052","0.0-17.0","nzaey1h256","50","NaN","<div style=""width:500px;"">
                            <p style=""font-size:50px; font-weight:bold;""
                            >angry</p>
                            <div style=""width:240px; margin: auto;"">
                                <img src=""images/map27_PuRd_scaleDef_orientMir_180.png"" style= ""width:200px""alt=""img"">
                            </div>
                        </div>","58","","0","","","","images/map27_PuRd_scaleDef_orientMir_180.png","angry","1","27","27","PuRd","orientMir","scaleDef","180","",""
"","","","","","html-slider-response","22","119116","0.0-18.0","nzaey1h256","50","NaN","<div style=""width:500px;"">
                            <p style=""font-size:50px; font-weight:bold;""
                            >angry</p>
                            <div style=""width:240px; margin: auto;"">
                                <img src=""images/map12_bwr_scaleRev_orientMir_090.png"" style= ""width:200px""alt=""img"">
                            </div>
                        </div>","4","","0","","","","images/map12_bwr_scaleRev_orientMir_090.png","angry","1","12","12","bwr","orientMir","scaleRev","090","",""
"","","","","","html-slider-response","23","121794","0.0-19.0","nzaey1h256","50","NaN","<div style=""width:500px;"">
                            <p style=""font-size:50px; font-weight:bold;""
                            >angry</p>
                            <div style=""width:240px; margin: auto;"">
                                <img src=""images/map27_PuRd_scaleRev_orientMir_270.png"" style= ""width:200px""alt=""img"">
                            </div>
                        </div>","-132","","0","","","","images/map27_PuRd_scaleRev_orientMir_270.png","angry","1","27","27","PuRd","orientMir","scaleRev","270","",""
"","","","","","html-slider-response","24","124977","0.0-20.0","nzaey1h256","50","NaN","<div style=""width:500px;"">
                            <p style=""font-size:50px; font-weight:bold;""
                            >angry</p>
                            <div style=""width:240px; margin: auto;"">
                                <img src=""images/map13_managua_scaleRev_orientDef_270.png"" style= ""width:200px""alt=""img"">
                            </div>
                        </div>","-198","","0","","","","images/map13_managua_scaleRev_orientDef_270.png","angry","1","13","13","managua","orientDef","scaleRev","270","",""
"","","","","","html-slider-response","25","126770","0.0-21.0","nzaey1h256","50","NaN","<div style=""width:500px;"">
                            <p style=""font-size:50px; font-weight:bold;""
                            >angry</p>
                            <div style=""width:240px; margin: auto;"">
                                <img src=""images/map02_RdPu_scaleDef_orientDef_000.png"" style= ""width:200px""alt=""img"">
                            </div>
                        </div>","-126","","0","","","","images/map02_RdPu_scaleDef_orientDef_000.png","angry","1","02","02","RdPu","orientDef","scaleDef","000","",""
"","","","","","html-slider-response","26","129322","0.0-22.0","nzaey1h256","50","NaN","<div style=""width:500px;"">
                            <p style=""font-size:50px; font-weight:bold;""
                            >angry</p>
                            <div style=""width:240px; margin: auto;"">
                                <img src=""images/map15_inferno_scaleDef_orientMir_180.png"" style= ""width:200px""alt=""img"">
                            </div>
                        </div>","173","","0","","","","images/map15_inferno_scaleDef_orientMir_180.png","angry","1","15","15","inferno","orientMir","scaleDef","180","",""
"","","","","","html-slider-response","27","131405","0.0-23.0","nzaey1h256","50","NaN","<div style=""width:500px;"">
                            <p style=""font-size:50px; font-weight:bold;""
                            >angry</p>
                            <div style=""width:240px; margin: auto;"">
                                <img src=""images/map12_bwr_scaleDef_orientMir_000.png"" style= ""width:200px""alt=""img"">
                            </div>
                        </div>","-200","","0","","","","images/map12_bwr_scaleDef_orientMir_000.png","angry","1","12","12","bwr","orientMir","scaleDef","000","",""
"","","","","","html-slider-response","28","133423","0.0-24.0","nzaey1h256","50","NaN","<div style=""width:500px;"">
                            <p style=""font-size:50px; font-weight:bold;""
                            >angry</p>
                            <div style=""width:240px; margin: auto;"">
                                <img src=""images/map02_GnBu_scaleDef_orientMir_000.png"" style= ""width:200px""alt=""img"">
                            </div>
                        </div>","-200","","0","","","","images/map02_GnBu_scaleDef_orientMir_000.png","angry","1","02","02","GnBu","orientMir","scaleDef","000","",""
"","","","","","html-slider-response","29","135850","0.0-25.0","nzaey1h256","50","NaN","<div style=""width:500px;"">
                            <p style=""font-size:50px; font-weight:bold;""
                            >angry</p>
                            <div style=""width:240px; margin: auto;"">
                                <img src=""images/map05_YlGn_scaleRev_orientMir_270.png"" style= ""width:200px""alt=""img"">
                            </div>
                        </div>","-150","","0","","","","images/map05_YlGn_scaleRev_orientMir_270.png","angry","1","05","05","YlGn","orientMir","scaleRev","270","",""
"","","","","","html-slider-response","30","138134","0.0-26.0","nzaey1h256","50","NaN","<div style=""width:500px;"">
                            <p style=""font-size:50px; font-weight:bold;""
                            >angry</p>
                            <div style=""width:240px; margin: auto;"">
                                <img src=""images/map02_RdPu_scaleRev_orientDef_090.png"" style= ""width:200px""alt=""img"">
                            </div>
                        </div>","-177","","0","","","","images/map02_RdPu_scaleRev_orientDef_090.png","angry","1","02","02","RdPu","orientDef","scaleRev","090","",""
"","","","","","html-slider-response","31","140484","0.0-27.0","nzaey1h256","50","NaN","<div style=""width:500px;"">
                            <p style=""font-size:50px; font-weight:bold;""
                            >angry</p>
                            <div style=""width:240px; margin: auto;"">
                                <img src=""images/map26_Reds_scaleRev_orientMir_270.png"" style= ""width:200px""alt=""img"">
                            </div>
                        </div>","142","","0","","","","images/map26_Reds_scaleRev_orientMir_270.png","angry","1","26","26","Reds","orientMir","scaleRev","270","",""
"","","","","","html-slider-response","32","142908","0.0-28.0","nzaey1h256","50","NaN","<div style=""width:500px;"">
                            <p style=""font-size:50px; font-weight:bold;""
                            >angry</p>
                            <div style=""width:240px; margin: auto;"">
                                <img src=""images/map10_RdGy_scaleDef_orientDef_000.png"" style= ""width:200px""alt=""img"">
                            </div>
                        </div>","66","","0","","","","images/map10_RdGy_scaleDef_orientDef_000.png","angry","1","10","10","RdGy","orientDef","scaleDef","000","",""
"","","","","","html-slider-response","33","144878","0.0-29.0","nzaey1h256","50","NaN","<div style=""width:500px;"">
                            <p style=""font-size:50px; font-weight:bold;""
                            >angry</p>
                            <div style=""width:240px; margin: auto;"">
                                <img src=""images/map10_RdYlBu_scaleRev_orientMir_090.png"" style= ""width:200px""alt=""img"">
                            </div>
                        </div>","48","","0","","","","images/map10_RdYlBu_scaleRev_orientMir_090.png","angry","1","10","10","RdYlBu","orientMir","scaleRev","090","",""
"","","","","","html-slider-response","34","147617","0.0-30.0","nzaey1h256","50","NaN","<div style=""width:500px;"">
                            <p style=""font-size:50px; font-weight:bold;""
                            >angry</p>
                            <div style=""width:240px; margin: auto;"">
                                <img src=""images/map23_magma_scaleRev_orientDef_090.png"" style= ""width:200px""alt=""img"">
                            </div>
                        </div>","11","","0","","","","images/map23_magma_scaleRev_orientDef_090.png","angry","1","23","23","magma","orientDef","scaleRev","090","",""
"","","","","","html-slider-response","35","149918","0.0-31.0","nzaey1h256","50","NaN","<div style=""width:500px;"">
                            <p style=""font-size:50px; font-weight:bold;""
                            >angry</p>
                            <div style=""width:240px; margin: auto;"">
                                <img src=""images/map02_BuPu_scaleRev_orientDef_270.png"" style= ""width:200px""alt=""img"">
                            </div>
                        </div>","-200","","0","","","","images/map02_BuPu_scaleRev_orientDef_270.png","angry","1","02","02","BuPu","orientDef","scaleRev","270","",""
"","","","","","html-slider-response","36","151672","0.0-32.0","nzaey1h256","50","NaN","<div style=""width:500px;"">
                            <p style=""font-size:50px; font-weight:bold;""
                            >angry</p>
                            <div style=""width:240px; margin: auto;"">
                                <img src=""images/map05_PuBuGn_scaleRev_orientDef_270.png"" style= ""width:200px""alt=""img"">
                            </div>
                        </div>","-200","","0","","","","images/map05_PuBuGn_scaleRev_orientDef_270.png","angry","1","05","05","PuBuGn","orientDef","scaleRev","270","",""
"","","","","","html-slider-response","37","153844","0.0-33.0","nzaey1h256","50","NaN","<div style=""width:500px;"">
                            <p style=""font-size:50px; font-weight:bold;""
                            >angry</p>
                            <div style=""width:240px; margin: auto;"">
                                <img src=""images/map26_Greens_scaleRev_orientDef_270.png"" style= ""width:200px""alt=""img"">
                            </div>
                        </div>","-144","","0","","","","images/map26_Greens_scaleRev_orientDef_270.png","angry","1","26","26","Greens","orientDef","scaleRev","270","",""
"","","","","","html-slider-response","38","156151","0.0-34.0","nzaey1h256","50","NaN","<div style=""width:500px;"">
                            <p style=""font-size:50px; font-weight:bold;""
                            >angry</p>
                            <div style=""width:240px; margin: auto;"">
                                <img src=""images/map26_Oranges_scaleRev_orientMir_090.png"" style= ""width:200px""alt=""img"">
                            </div>
                        </div>","35","","0","","","","images/map26_Oranges_scaleRev_orientMir_090.png","angry","1","26","26","Oranges","orientMir","scaleRev","090","",""
"","","","","","html-slider-response","39","159162","0.0-35.0","nzaey1h256","50","NaN","<div style=""width:500px;"">
                            <p style=""font-size:50px; font-weight:bold;""
                            >angry</p>
                            <div style=""width:240px; margin: auto;"">
                                <img src=""images/map15_viridis_scaleDef_orientDef_180.png"" style= ""width:200px""alt=""img"">
                            </div>
                        </div>","-122","","0","","","","images/map15_viridis_scaleDef_orientDef_180.png","angry","1","15","15","viridis","orientDef","scaleDef","180","",""
"","","","","","html-slider-response","40","161012","0.0-36.0","nzaey1h256","50","NaN","<div style=""width:500px;"">
                            <p style=""font-size:50px; font-weight:bold;""
                            >angry</p>
                            <div style=""width:240px; margin: auto;"">
                                <img src=""images/map26_Greens_scaleDef_orientDef_180.png"" style= ""width:200px""alt=""img"">
                            </div>
                        </div>","-59","","0","","","","images/map26_Greens_scaleDef_orientDef_180.png","angry","1","26","26","Greens","orientDef","scaleDef","180","",""
"","","","","","html-slider-response","41","164278","0.0-37.0","nzaey1h256","50","NaN","<div style=""width:500px;"">
                            <p style=""font-size:50px; font-weight:bold;""
                            >angry</p>
                            <div style=""width:240px; margin: auto;"">
                                <img src=""images/map07_PRGn_scaleDef_orientDef_180.png"" style= ""width:200px""alt=""img"">
                            </div>
                        </div>","-136","","0","","","","images/map07_PRGn_scaleDef_orientDef_180.png","angry","1","07","07","PRGn","orientDef","scaleDef","180","",""
"","","","","","html-slider-response","42","165860","0.0-38.0","nzaey1h256","50","NaN","<div style=""width:500px;"">
                            <p style=""font-size:50px; font-weight:bold;""
                            >angry</p>
                            <div style=""width:240px; margin: auto;"">
                                <img src=""images/map26_Blues_scaleDef_orientDef_000.png"" style= ""width:200px""alt=""img"">
                            </div>
                        </div>","-200","","0","","","","images/map26_Blues_scaleDef_orientDef_000.png","angry","1","26","26","Blues","orientDef","scaleDef","000","",""
"","","","","","html-slider-response","43","167961","0.0-39.0","nzaey1h256","50","NaN","<div style=""width:500px;"">
                            <p style=""font-size:50px; font-weight:bold;""
                            >angry</p>
                            <div style=""width:240px; margin: auto;"">
                                <img src=""images/map13_berlin_scaleDef_orientDef_000.png"" style= ""width:200px""alt=""img"">
                            </div>
                        </div>","51","","0","","","","images/map13_berlin_scaleDef_orientDef_000.png","angry","1","13","13","berlin","orientDef","scaleDef","000","",""
"","","","","","html-slider-response","44","172692","0.0-40.0","nzaey1h256","50","NaN","<div style=""width:500px;"">
                            <p style=""font-size:50px; font-weight:bold;""
                            >angry</p>
                            <div style=""width:240px; margin: auto;"">
                                <img src=""images/map23_magma_scaleDef_orientDef_000.png"" style= ""width:200px""alt=""img"">
                            </div>
                        </div>","6","","0","","","","images/map23_magma_scaleDef_orientDef_000.png","angry","1","23","23","magma","orientDef","scaleDef","000","",""
"","","","","","html-slider-response","45","174726","0.0-41.0","nzaey1h256","50","NaN","<div style=""width:500px;"">
                            <p style=""font-size:50px; font-weight:bold;""
                            >angry</p>
                            <div style=""width:240px; margin: auto;"">
                                <img src=""images/map05_BuGn_scaleDef_orientMir_000.png"" style= ""width:200px""alt=""img"">
                            </div>
                        </div>","-138","","0","","","","images/map05_BuGn_scaleDef_orientMir_000.png","angry","1","05","05","BuGn","orientMir","scaleDef","000","",""
"","","","","","html-slider-response","46","177324","0.0-42.0","nzaey1h256","50","NaN","<div style=""width:500px;"">
                            <p style=""font-size:50px; font-weight:bold;""
                            >angry</p>
                            <div style=""width:240px; margin: auto;"">
                                <img src=""images/map15_viridis_scaleRev_orientDef_270.png"" style= ""width:200px""alt=""img"">
                            </div>
                        </div>","-160","","0","","","","images/map15_viridis_scaleRev_orientDef_270.png","angry","1","15","15","viridis","orientDef","scaleRev","270","",""
"","","","","","html-slider-response","47","179133","0.0-43.0","nzaey1h256","50","NaN","<div style=""width:500px;"">
                            <p style=""font-size:50px; font-weight:bold;""
                            >angry</p>
                            <div style=""width:240px; margin: auto;"">
                                <img src=""images/map26_Oranges_scaleDef_orientMir_000.png"" style= ""width:200px""alt=""img"">
                            </div>
                        </div>","-34","","0","","","","images/map26_Oranges_scaleDef_orientMir_000.png","angry","1","26","26","Oranges","orientMir","scaleDef","000","",""
"","","","","","html-slider-response","48","181556","0.0-44.0","nzaey1h256","50","NaN","<div style=""width:500px;"">
                            <p style=""font-size:50px; font-weight:bold;""
                            >angry</p>
                            <div style=""width:240px; margin: auto;"">
                                <img src=""images/map07_PiYG_scaleDef_orientDef_000.png"" style= ""width:200px""alt=""img"">
                            </div>
                        </div>","-191","","0","","","","images/map07_PiYG_scaleDef_orientDef_000.png","angry","1","07","07","PiYG","orientDef","scaleDef","000","",""
"","","","","","html-slider-response","49","183577","0.0-45.0","nzaey1h256","50","NaN","<div style=""width:500px;"">
                            <p style=""font-size:50px; font-weight:bold;""
                            >angry</p>
                            <div style=""width:240px; margin: auto;"">
                                <img src=""images/map27_YlOrRd_scaleDef_orientDef_180.png"" style= ""width:200px""alt=""img"">
                            </div>
                        </div>","77","","0","","","","images/map27_YlOrRd_scaleDef_orientDef_180.png","angry","1","27","27","YlOrRd","orientDef","scaleDef","180","",""
"","","","","","html-slider-response","50","187008","0.0-46.0","nzaey1h256","50","NaN","<div style=""width:500px;"">
                            <p style=""font-size:50px; font-weight:bold;""
                            >angry</p>
                            <div style=""width:240px; margin: auto;"">
                                <img src=""images/map12_coolwarm_scaleDef_orientDef_180.png"" style= ""width:200px""alt=""img"">
                            </div>
                        </div>","-18","","0","","","","images/map12_coolwarm_scaleDef_orientDef_180.png","angry","1","12","12","coolwarm","orientDef","scaleDef","180","",""
"","","","","","html-slider-response","51","189593","0.0-47.0","nzaey1h256","50","NaN","<div style=""width:500px;"">
                            <p style=""font-size:50px; font-weight:bold;""
                            >angry</p>
                            <div style=""width:240px; margin: auto;"">
                                <img src=""images/map13_gist_earth_scaleDef_orientMir_180.png"" style= ""width:200px""alt=""img"">
                            </div>
                        </div>","-163","","0","","","","images/map13_gist_earth_scaleDef_orientMir_180.png","angry","1","13","13","gist","scaleDef","earth","orientMir","",""
"","","","","","html-slider-response","52","191622","0.0-48.0","nzaey1h256","50","NaN","<div style=""width:500px;"">
                            <p style=""font-size:50px; font-weight:bold;""
                            >angry</p>
                            <div style=""width:240px; margin: auto;"">
                                <img src=""images/map13_gist_earth_scaleRev_orientMir_270.png"" style= ""width:200px""alt=""img"">
                            </div>
                        </div>","-159","","0","","","","images/map13_gist_earth_scaleRev_orientMir_270.png","angry","1","13","13","gist","scaleRev","earth","orientMir","",""
"","","","","","html-slider-response","53","193980","0.0-49.0","nzaey1h256","50","NaN","<div style=""width:500px;"">
                            <p style=""font-size:50px; font-weight:bold;""
                            >angry</p>
                            <div style=""width:240px; margin: auto;"">
                                <img src=""images/map12_coolwarm_scaleRev_orientDef_270.png"" style= ""width:200px""alt=""img"">
                            </div>
                        </div>","-28","","0","","","","images/map12_coolwarm_scaleRev_orientDef_270.png","angry","1","12","12","coolwarm","orientDef","scaleRev","270","",""
"","","","","","html-slider-response","54","196191","0.0-50.0","nzaey1h256","50","NaN","<div style=""width:500px;"">
                            <p style=""font-size:50px; font-weight:bold;""
                            >angry</p>
                            <div style=""width:240px; margin: auto;"">
                                <img src=""images/map23_cividis_scaleRev_orientDef_270.png"" style= ""width:200px""alt=""img"">
                            </div>
                        </div>","85","","0","","","","images/map23_cividis_scaleRev_orientDef_270.png","angry","1","23","23","cividis","orientDef","scaleRev","270","",""
"","","","","","html-slider-response","55","198517","0.0-51.0","nzaey1h256","50","NaN","<div style=""width:500px;"">
                            <p style=""font-size:50px; font-weight:bold;""
                            >angry</p>
                            <div style=""width:240px; margin: auto;"">
                                <img src=""images/map15_inferno_scaleRev_orientMir_270.png"" style= ""width:200px""alt=""img"">
                            </div>
                        </div>","191","","0","","","","images/map15_inferno_scaleRev_orientMir_270.png","angry","1","15","15","inferno","orientMir","scaleRev","270","",""
"","","","","","html-slider-response","56","200606","0.0-52.0","nzaey1h256","50","NaN","<div style=""width:500px;"">
                            <p style=""font-size:50px; font-weight:bold;""
                            >angry</p>
                            <div style=""width:240px; margin: auto;"">
                                <img src=""images/map23_Purples_scaleDef_orientMir_180.png"" style= ""width:200px""alt=""img"">
                            </div>
                        </div>","-200","","0","","","","images/map23_Purples_scaleDef_orientMir_180.png","angry","1","23","23","Purples","orientMir","scaleDef","180","",""
"","","","","","html-slider-response","57","202605","0.0-53.0","nzaey1h256","50","NaN","<div style=""width:500px;"">
                            <p style=""font-size:50px; font-weight:bold;""
                            >angry</p>
                            <div style=""width:240px; margin: auto;"">
                                <img src=""images/map10_RdYlGn_scaleRev_orientMir_270.png"" style= ""width:200px""alt=""img"">
                            </div>
                        </div>","142","","0","","","","images/map10_RdYlGn_scaleRev_orientMir_270.png","angry","1","10","10","RdYlGn","orientMir","scaleRev","270","",""
"","","","","","html-button-response","58","205680","0.0-54.0","nzaey1h256","50","2571","<p>You are doing great!<br></br> You are halway done with the current block. When you are ready to continue, click the 'Continue' button.</p>","0","","","","","","","","","","","","","","","",""
"","","","","","html-slider-response","59","208258","0.0-55.0","nzaey1h256","50","NaN","<div style=""width:500px;"">
                            <p style=""font-size:50px; font-weight:bold;""
                            >angry</p>
                            <div style=""width:240px; margin: auto;"">
                                <img src=""images/map26_Blues_scaleRev_orientDef_090.png"" style= ""width:200px""alt=""img"">
                            </div>
                        </div>","-200","","0","","","","images/map26_Blues_scaleRev_orientDef_090.png","angry","1","26","26","Blues","orientDef","scaleRev","090","",""
"","","","","","html-slider-response","60","210212","0.0-56.0","nzaey1h256","50","NaN","<div style=""width:500px;"">
                            <p style=""font-size:50px; font-weight:bold;""
                            >angry</p>
                            <div style=""width:240px; margin: auto;"">
                                <img src=""images/map12_Spectral_scaleRev_orientDef_090.png"" style= ""width:200px""alt=""img"">
                            </div>
                        </div>","-77","","0","","","","images/map12_Spectral_scaleRev_orientDef_090.png","angry","1","12","12","Spectral","orientDef","scaleRev","090","",""
"","","","","","html-slider-response","61","211786","0.0-57.0","nzaey1h256","50","NaN","<div style=""width:500px;"">
                            <p style=""font-size:50px; font-weight:bold;""
                            >angry</p>
                            <div style=""width:240px; margin: auto;"">
                                <img src=""images/map07_PiYG_scaleRev_orientDef_090.png"" style= ""width:200px""alt=""img"">
                            </div>
                        </div>","-83","","0","","","","images/map07_PiYG_scaleRev_orientDef_090.png","angry","1","07","07","PiYG","orientDef","scaleRev","090","",""
"","","","","","html-slider-response","62","215234","0.0-58.0","nzaey1h256","50","NaN","<div style=""width:500px;"">
                            <p style=""font-size:50px; font-weight:bold;""
                            >angry</p>
                            <div style=""width:240px; margin: auto;"">
                                <img src=""images/map13_vanimo_scaleDef_orientMir_000.png"" style= ""width:200px""alt=""img"">
                            </div>
                        </div>","75","","0","","","","images/map13_vanimo_scaleDef_orientMir_000.png","angry","1","13","13","vanimo","orientMir","scaleDef","000","",""
"","","","","","html-slider-response","63","217105","0.0-59.0","nzaey1h256","50","NaN","<div style=""width:500px;"">
                            <p style=""font-size:50px; font-weight:bold;""
                            >angry</p>
                            <div style=""width:240px; margin: auto;"">
                                <img src=""images/map23_cividis_scaleDef_orientDef_180.png"" style= ""width:200px""alt=""img"">
                            </div>
                        </div>","-43","","0","","","","images/map23_cividis_scaleDef_orientDef_180.png","angry","1","23","23","cividis","orientDef","scaleDef","180","",""
"","","","","","html-slider-response","64","219553","0.0-60.0","nzaey1h256","50","NaN","<div style=""width:500px;"">
                            <p style=""font-size:50px; font-weight:bold;""
                            >angry</p>
                            <div style=""width:240px; margin: auto;"">
                                <img src=""images/map05_YlGn_scaleDef_orientMir_180.png"" style= ""width:200px""alt=""img"">
                            </div>
                        </div>","-114","","0","","","","images/map05_YlGn_scaleDef_orientMir_180.png","angry","1","05","05","YlGn","orientMir","scaleDef","180","",""
"","","","","","html-slider-response","65","221312","0.0-61.0","nzaey1h256","50","NaN","<div style=""width:500px;"">
                            <p style=""font-size:50px; font-weight:bold;""
                            >angry</p>
                            <div style=""width:240px; margin: auto;"">
                                <img src=""images/map02_GnBu_scaleRev_orientMir_090.png"" style= ""width:200px""alt=""img"">
                            </div>
                        </div>","-200","","0","","","","images/map02_GnBu_scaleRev_orientMir_090.png","angry","1","02","02","GnBu","orientMir","scaleRev","090","",""
"","","","","","html-slider-response","66","223321","0.0-62.0","nzaey1h256","50","NaN","<div style=""width:500px;"">
                            <p style=""font-size:50px; font-weight:bold;""
                            >angry</p>
                            <div style=""width:240px; margin: auto;"">
                                <img src=""images/map13_managua_scaleDef_orientDef_180.png"" style= ""width:200px""alt=""img"">
                            </div>
                        </div>","77","","0","","","","images/map13_managua_scaleDef_orientDef_180.png","angry","1","13","13","managua","orientDef","scaleDef","180","",""
"","","","","","html-slider-response","67","225834","0.0-63.0","nzaey1h256","50","NaN","<div style=""width:500px;"">
                            <p style=""font-size:50px; font-weight:bold;""
                            >angry</p>
                            <div style=""width:240px; margin: auto;"">
                                <img src=""images/map23_Greys_scaleDef_orientMir_000.png"" style= ""width:200px""alt=""img"">
                            </div>
                        </div>","21","","0","","","","images/map23_Greys_scaleDef_orientMir_000.png","angry","1","23","23","Greys","orientMir","scaleDef","000","",""
"","","","","","html-slider-response","68","227518","0.0-64.0","nzaey1h256","50","NaN","<div style=""width:500px;"">
                            <p style=""font-size:50px; font-weight:bold;""
                            >angry</p>
                            <div style=""width:240px; margin: auto;"">
                                <img src=""images/map07_PuOr_scaleRev_orientMir_270.png"" style= ""width:200px""alt=""img"">
                            </div>
                        </div>","25","","0","","","","images/map07_PuOr_scaleRev_orientMir_270.png","angry","1","07","07","PuOr","orientMir","scaleRev","270","",""
"","","","","","html-slider-response","69","229580","0.0-65.0","nzaey1h256","50","NaN","<div style=""width:500px;"">
                            <p style=""font-size:50px; font-weight:bold;""
                            >angry</p>
                            <div style=""width:240px; margin: auto;"">
                                <img src=""images/map02_PuBu_scaleRev_orientMir_270.png"" style= ""width:200px""alt=""img"">
                            </div>
                        </div>","-200","","0","","","","images/map02_PuBu_scaleRev_orientMir_270.png","angry","1","02","02","PuBu","orientMir","scaleRev","270","",""
"","","","","","html-slider-response","70","232013","0.0-66.0","nzaey1h256","50","NaN","<div style=""width:500px;"">
                            <p style=""font-size:50px; font-weight:bold;""
                            >angry</p>
                            <div style=""width:240px; margin: auto;"">
                                <img src=""images/map10_RdGy_scaleRev_orientDef_090.png"" style= ""width:200px""alt=""img"">
                            </div>
                        </div>","110","","0","","","","images/map10_RdGy_scaleRev_orientDef_090.png","angry","1","10","10","RdGy","orientDef","scaleRev","090","",""
"","","","","","html-slider-response","71","233758","0.0-67.0","nzaey1h256","50","NaN","<div style=""width:500px;"">
                            <p style=""font-size:50px; font-weight:bold;""
                            >angry</p>
                            <div style=""width:240px; margin: auto;"">
                                <img src=""images/map02_PuBu_scaleDef_orientMir_180.png"" style= ""width:200px""alt=""img"">
                            </div>
                        </div>","-124","","0","","","","images/map02_PuBu_scaleDef_orientMir_180.png","angry","1","02","02","PuBu","orientMir","scaleDef","180","",""
"","","","","","html-slider-response","72","235618","0.0-68.0","nzaey1h256","50","NaN","<div style=""width:500px;"">
                            <p style=""font-size:50px; font-weight:bold;""
                            >angry</p>
                            <div style=""width:240px; margin: auto;"">
                                <img src=""images/map27_OrRd_scaleDef_orientMir_000.png"" style= ""width:200px""alt=""img"">
                            </div>
                        </div>","171","","0","","","","images/map27_OrRd_scaleDef_orientMir_000.png","angry","1","27","27","OrRd","orientMir","scaleDef","000","",""
"","","","","","html-slider-response","73","238509","0.0-69.0","nzaey1h256","50","NaN","<div style=""width:500px;"">
                            <p style=""font-size:50px; font-weight:bold;""
                            >angry</p>
                            <div style=""width:240px; margin: auto;"">
                                <img src=""images/map15_turbo_scaleRev_orientDef_090.png"" style= ""width:200px""alt=""img"">
                            </div>
                        </div>","56","","0","","","","images/map15_turbo_scaleRev_orientDef_090.png","angry","1","15","15","turbo","orientDef","scaleRev","090","",""
"","","","","","html-slider-response","74","240566","0.0-70.0","nzaey1h256","50","NaN","<div style=""width:500px;"">
                            <p style=""font-size:50px; font-weight:bold;""
                            >angry</p>
                            <div style=""width:240px; margin: auto;"">
                                <img src=""images/map05_PuBuGn_scaleDef_orientDef_180.png"" style= ""width:200px""alt=""img"">
                            </div>
                        </div>","-149","","0","","","","images/map05_PuBuGn_scaleDef_orientDef_180.png","angry","1","05","05","PuBuGn","orientDef","scaleDef","180","",""
"","","","","","html-slider-response","75","243133","0.0-71.0","nzaey1h256","50","NaN","<div style=""width:500px;"">
                            <p style=""font-size:50px; font-weight:bold;""
                            >angry</p>
                            <div style=""width:240px; margin: auto;"">
                                <img src=""images/map26_Reds_scaleDef_orientMir_180.png"" style= ""width:200px""alt=""img"">
                            </div>
                        </div>","190","","0","","","","images/map26_Reds_scaleDef_orientMir_180.png","angry","1","26","26","Reds","orientMir","scaleDef","180","",""
"","","","","","html-slider-response","76","245699","0.0-72.0","nzaey1h256","50","NaN","<div style=""width:500px;"">
                            <p style=""font-size:50px; font-weight:bold;""
                            >angry</p>
                            <div style=""width:240px; margin: auto;"">
                                <img src=""images/map27_YlOrBr_scaleDef_orientDef_000.png"" style= ""width:200px""alt=""img"">
                            </div>
                        </div>","101","","0","","","","images/map27_YlOrBr_scaleDef_orientDef_000.png","angry","1","27","27","YlOrBr","orientDef","scaleDef","000","",""
"","","","","","html-slider-response","77","247572","0.0-73.0","nzaey1h256","50","NaN","<div style=""width:500px;"">
                            <p style=""font-size:50px; font-weight:bold;""
                            >angry</p>
                            <div style=""width:240px; margin: auto;"">
                                <img src=""images/map27_YlOrRd_scaleRev_orientDef_270.png"" style= ""width:200px""alt=""img"">
                            </div>
                        </div>","124","","0","","","","images/map27_YlOrRd_scaleRev_orientDef_270.png","angry","1","27","27","YlOrRd","orientDef","scaleRev","270","",""
"","","","","","html-slider-response","78","249452","0.0-74.0","nzaey1h256","50","NaN","<div style=""width:500px;"">
                            <p style=""font-size:50px; font-weight:bold;""
                            >angry</p>
                            <div style=""width:240px; margin: auto;"">
                                <img src=""images/map05_BuGn_scaleRev_orientMir_090.png"" style= ""width:200px""alt=""img"">
                            </div>
                        </div>","-154","","0","","","","images/map05_BuGn_scaleRev_orientMir_090.png","angry","1","05","05","BuGn","orientMir","scaleRev","090","",""
"","","","","","html-slider-response","79","251368","0.0-75.0","nzaey1h256","50","NaN","<div style=""width:500px;"">
                            <p style=""font-size:50px; font-weight:bold;""
                            >angry</p>
                            <div style=""width:240px; margin: auto;"">
                                <img src=""images/map07_PuOr_scaleDef_orientMir_180.png"" style= ""width:200px""alt=""img"">
                            </div>
                        </div>","-58","","0","","","","images/map07_PuOr_scaleDef_orientMir_180.png","angry","1","07","07","PuOr","orientMir","scaleDef","180","",""
"","","","","","html-slider-response","80","253048","0.0-76.0","nzaey1h256","50","NaN","<div style=""width:500px;"">
                            <p style=""font-size:50px; font-weight:bold;""
                            >angry</p>
                            <div style=""width:240px; margin: auto;"">
                                <img src=""images/map07_PRGn_scaleRev_orientDef_270.png"" style= ""width:200px""alt=""img"">
                            </div>
                        </div>","-70","","0","","","","images/map07_PRGn_scaleRev_orientDef_270.png","angry","1","07","07","PRGn","orientDef","scaleRev","270","",""
"","","","","","html-slider-response","81","255768","0.0-77.0","nzaey1h256","50","NaN","<div style=""width:500px;"">
                            <p style=""font-size:50px; font-weight:bold;""
                            >angry</p>
                            <div style=""width:240px; margin: auto;"">
                                <img src=""images/map12_seismic_scaleRev_orientMir_270.png"" style= ""width:200px""alt=""img"">
                            </div>
                        </div>","177","","0","","","","images/map12_seismic_scaleRev_orientMir_270.png","angry","1","12","12","seismic","orientMir","scaleRev","270","",""
"","","","","","html-slider-response","82","257540","0.0-78.0","nzaey1h256","50","NaN","<div style=""width:500px;"">
                            <p style=""font-size:50px; font-weight:bold;""
                            >angry</p>
                            <div style=""width:240px; margin: auto;"">
                                <img src=""images/map07_BrBG_scaleDef_orientMir_000.png"" style= ""width:200px""alt=""img"">
                            </div>
                        </div>","-53","","0","","","","images/map07_BrBG_scaleDef_orientMir_000.png","angry","1","07","07","BrBG","orientMir","scaleDef","000","",""
"","","","","","html-slider-response","83","260055","0.0-79.0","nzaey1h256","50","NaN","<div style=""width:500px;"">
                            <p style=""font-size:50px; font-weight:bold;""
                            >angry</p>
                            <div style=""width:240px; margin: auto;"">
                                <img src=""images/map05_YlGnBu_scaleRev_orientDef_090.png"" style= ""width:200px""alt=""img"">
                            </div>
                        </div>","-171","","0","","","","images/map05_YlGnBu_scaleRev_orientDef_090.png","angry","1","05","05","YlGnBu","orientDef","scaleRev","090","",""
"","","","","","html-slider-response","84","262477","0.0-80.0","nzaey1h256","50","NaN","<div style=""width:500px;"">
                            <p style=""font-size:50px; font-weight:bold;""
                            >angry</p>
                            <div style=""width:240px; margin: auto;"">
                                <img src=""images/map12_seismic_scaleDef_orientMir_180.png"" style= ""width:200px""alt=""img"">
                            </div>
                        </div>","174","","0","","","","images/map12_seismic_scaleDef_orientMir_180.png","angry","1","12","12","seismic","orientMir","scaleDef","180","",""
"","","","","","html-slider-response","85","265812","0.0-81.0","nzaey1h256","50","NaN","<div style=""width:500px;"">
                            <p style=""font-size:50px; font-weight:bold;""
                            >angry</p>
                            <div style=""width:240px; margin: auto;"">
                                <img src=""images/map02_BuPu_scaleDef_orientDef_180.png"" style= ""width:200px""alt=""img"">
                            </div>
                        </div>","-200","","0","","","","images/map02_BuPu_scaleDef_orientDef_180.png","angry","1","02","02","BuPu","orientDef","scaleDef","180","",""
"","","","","","html-slider-response","86","267545","0.0-82.0","nzaey1h256","50","NaN","<div style=""width:500px;"">
                            <p style=""font-size:50px; font-weight:bold;""
                            >angry</p>
                            <div style=""width:240px; margin: auto;"">
                                <img src=""images/map23_Greys_scaleRev_orientMir_090.png"" style= ""width:200px""alt=""img"">
                            </div>
                        </div>","62","","0","","","","images/map23_Greys_scaleRev_orientMir_090.png","angry","1","23","23","Greys","orientMir","scaleRev","090","",""
"","","","","","html-slider-response","87","269795","0.0-83.0","nzaey1h256","50","NaN","<div style=""width:500px;"">
                            <p style=""font-size:50px; font-weight:bold;""
                            >angry</p>
                            <div style=""width:240px; margin: auto;"">
                                <img src=""images/map05_YlGnBu_scaleDef_orientDef_000.png"" style= ""width:200px""alt=""img"">
                            </div>
                        </div>","-106","","0","","","","images/map05_YlGnBu_scaleDef_orientDef_000.png","angry","1","05","05","YlGnBu","orientDef","scaleDef","000","",""
"","","","","","html-slider-response","88","271631","0.0-84.0","nzaey1h256","50","NaN","<div style=""width:500px;"">
                            <p style=""font-size:50px; font-weight:bold;""
                            >angry</p>
                            <div style=""width:240px; margin: auto;"">
                                <img src=""images/map13_berlin_scaleRev_orientDef_090.png"" style= ""width:200px""alt=""img"">
                            </div>
                        </div>","29","","0","","","","images/map13_berlin_scaleRev_orientDef_090.png","angry","1","13","13","berlin","orientDef","scaleRev","090","",""
"","","","","","html-slider-response","89","273928","0.0-85.0","nzaey1h256","50","NaN","<div style=""width:500px;"">
                            <p style=""font-size:50px; font-weight:bold;""
                            >angry</p>
                            <div style=""width:240px; margin: auto;"">
                                <img src=""images/map07_BrBG_scaleRev_orientMir_090.png"" style= ""width:200px""alt=""img"">
                            </div>
                        </div>","-13","","0","","","","images/map07_BrBG_scaleRev_orientMir_090.png","angry","1","07","07","BrBG","orientMir","scaleRev","090","",""
"","","","","","html-slider-response","90","276409","0.0-86.0","nzaey1h256","50","NaN","<div style=""width:500px;"">
                            <p style=""font-size:50px; font-weight:bold;""
                            >angry</p>
                            <div style=""width:240px; margin: auto;"">
                                <img src=""images/map10_RdBu_scaleRev_orientDef_270.png"" style= ""width:200px""alt=""img"">
                            </div>
                        </div>","-35","","0","","","","images/map10_RdBu_scaleRev_orientDef_270.png","angry","1","10","10","RdBu","orientDef","scaleRev","270","",""
"","","","","","html-slider-response","91","278282","0.0-87.0","nzaey1h256","50","NaN","<div style=""width:500px;"">
                            <p style=""font-size:50px; font-weight:bold;""
                            >angry</p>
                            <div style=""width:240px; margin: auto;"">
                                <img src=""images/map10_RdBu_scaleDef_orientDef_180.png"" style= ""width:200px""alt=""img"">
                            </div>
                        </div>","-48","","0","","","","images/map10_RdBu_scaleDef_orientDef_180.png","angry","1","10","10","RdBu","orientDef","scaleDef","180","",""
"","","","","","html-slider-response","92","280882","0.0-88.0","nzaey1h256","50","NaN","<div style=""width:500px;"">
                            <p style=""font-size:50px; font-weight:bold;""
                            >angry</p>
                            <div style=""width:240px; margin: auto;"">
                                <img src=""images/map27_YlOrBr_scaleRev_orientDef_090.png"" style= ""width:200px""alt=""img"">
                            </div>
                        </div>","91","","0","","","","images/map27_YlOrBr_scaleRev_orientDef_090.png","angry","1","27","27","YlOrBr","orientDef","scaleRev","090","",""
"","","","","","html-slider-response","93","282802","0.0-89.0","nzaey1h256","50","NaN","<div style=""width:500px;"">
                            <p style=""font-size:50px; font-weight:bold;""
                            >angry</p>
                            <div style=""width:240px; margin: auto;"">
                                <img src=""images/map15_plasma_scaleRev_orientMir_090.png"" style= ""width:200px""alt=""img"">
                            </div>
                        </div>","138","","0","","","","images/map15_plasma_scaleRev_orientMir_090.png","angry","1","15","15","plasma","orientMir","scaleRev","090","",""
"","","","","","html-slider-response","94","285876","0.0-90.0","nzaey1h256","50","NaN","<div style=""width:500px;"">
                            <p style=""font-size:50px; font-weight:bold;""
                            >angry</p>
                            <div style=""width:240px; margin: auto;"">
                                <img src=""images/map12_Spectral_scaleDef_orientDef_000.png"" style= ""width:200px""alt=""img"">
                            </div>
                        </div>","-22","","0","","","","images/map12_Spectral_scaleDef_orientDef_000.png","angry","1","12","12","Spectral","orientDef","scaleDef","000","",""
"","","","","","html-slider-response","95","287665","0.0-91.0","nzaey1h256","50","NaN","<div style=""width:500px;"">
                            <p style=""font-size:50px; font-weight:bold;""
                            >angry</p>
                            <div style=""width:240px; margin: auto;"">
                                <img src=""images/map27_OrRd_scaleRev_orientMir_090.png"" style= ""width:200px""alt=""img"">
                            </div>
                        </div>","96","","0","","","","images/map27_OrRd_scaleRev_orientMir_090.png","angry","1","27","27","OrRd","orientMir","scaleRev","090","",""
"","","","","","html-slider-response","96","290059","0.0-92.0","nzaey1h256","50","NaN","<div style=""width:500px;"">
                            <p style=""font-size:50px; font-weight:bold;""
                            >angry</p>
                            <div style=""width:240px; margin: auto;"">
                                <img src=""images/map10_RdYlBu_scaleDef_orientMir_000.png"" style= ""width:200px""alt=""img"">
                            </div>
                        </div>","-64","","0","","","","images/map10_RdYlBu_scaleDef_orientMir_000.png","angry","1","10","10","RdYlBu","orientMir","scaleDef","000","",""
"","","","","","html-slider-response","97","294224","0.0-93.0","nzaey1h256","50","NaN","<div style=""width:500px;"">
                            <p style=""font-size:50px; font-weight:bold;""
                            >angry</p>
                            <div style=""width:240px; margin: auto;"">
                                <img src=""images/map13_vanimo_scaleRev_orientMir_090.png"" style= ""width:200px""alt=""img"">
                            </div>
                        </div>","59","","0","","","","images/map13_vanimo_scaleRev_orientMir_090.png","angry","1","13","13","vanimo","orientMir","scaleRev","090","",""
"","","","","","html-slider-response","98","296007","0.0-94.0","nzaey1h256","50","NaN","<div style=""width:500px;"">
                            <p style=""font-size:50px; font-weight:bold;""
                            >angry</p>
                            <div style=""width:240px; margin: auto;"">
                                <img src=""images/map23_Purples_scaleRev_orientMir_270.png"" style= ""width:200px""alt=""img"">
                            </div>
                        </div>","-200","","0","","","","images/map23_Purples_scaleRev_orientMir_270.png","angry","1","23","23","Purples","orientMir","scaleRev","270","",""
"","","","","","html-button-response","99","297624","0.0-95.0","nzaey1h256","50","1111","<p>Great Job! You've finished block 1.<br></br> You have 4 block(s) left to go.<br></br></p>","0","","","","","","","","","","","","","","","",""
"","","","","","html-button-response","100","298506","0.0-96.0","nzaey1h256","50","881","<p>In this block of trials, you will be asked to rate how much you associate each map with:</p > <p style = 'font-size:150%; font-weight: bold'>happy</p><br></br>","0","","","","","","","","","","","","","","","",""
"","","","","","html-slider-response","101","304061","0.0-97.0","nzaey1h256","50","NaN","<div style=""width:500px;"">
                            <p style=""font-size:50px; font-weight:bold;""
                            >happy</p>
                            <div style=""width:240px; margin: auto;"">
                                <img src=""images/map27_PuRd_scaleRev_orientMir_270.png"" style= ""width:200px""alt=""img"">
                            </div>
                        </div>","134","","0","","","","images/map27_PuRd_scaleRev_orientMir_270.png","happy","1","27","27","PuRd","orientMir","scaleRev","270","",""
"","","","","","html-slider-response","102","309605","0.0-98.0","nzaey1h256","50","NaN","<div style=""width:500px;"">
                            <p style=""font-size:50px; font-weight:bold;""
                            >happy</p>
                            <div style=""width:240px; margin: auto;"">
                                <img src=""images/map23_cividis_scaleDef_orientDef_180.png"" style= ""width:200px""alt=""img"">
                            </div>
                        </div>","-98","","0","","","","images/map23_cividis_scaleDef_orientDef_180.png","happy","1","23","23","cividis","orientDef","scaleDef","180","",""
"","","","","","html-slider-response","103","312154","0.0-99.0","nzaey1h256","50","NaN","<div style=""width:500px;"">
                            <p style=""font-size:50px; font-weight:bold;""
                            >happy</p>
                            <div style=""width:240px; margin: auto;"">
                                <img src=""images/map15_viridis_scaleDef_orientDef_180.png"" style= ""width:200px""alt=""img"">
                            </div>
                        </div>","61","","0","","","","images/map15_viridis_scaleDef_orientDef_180.png","happy","1","15","15","viridis","orientDef","scaleDef","180","",""
"","","","","","html-slider-response","104","315500","0.0-100.0","nzaey1h256","50","NaN","<div style=""width:500px;"">
                            <p style=""font-size:50px; font-weight:bold;""
                            >happy</p>
                            <div style=""width:240px; margin: auto;"">
                                <img src=""images/map12_seismic_scaleRev_orientMir_270.png"" style= ""width:200px""alt=""img"">
                            </div>
                        </div>","-51","","0","","","","images/map12_seismic_scaleRev_orientMir_270.png","happy","1","12","12","seismic","orientMir","scaleRev","270","",""
"","","","","","html-slider-response","105","318598","0.0-101.0","nzaey1h256","50","NaN","<div style=""width:500px;"">
                            <p style=""font-size:50px; font-weight:bold;""
                            >happy</p>
                            <div style=""width:240px; margin: auto;"">
                                <img src=""images/map10_RdYlBu_scaleDef_orientMir_000.png"" style= ""width:200px""alt=""img"">
                            </div>
                        </div>","139","","0","","","","images/map10_RdYlBu_scaleDef_orientMir_000.png","happy","1","10","10","RdYlBu","orientMir","scaleDef","000","",""
"","","","","","html-slider-response","106","322024","0.0-102.0","nzaey1h256","50","NaN","<div style=""width:500px;"">
                            <p style=""font-size:50px; font-weight:bold;""
                            >happy</p>
                            <div style=""width:240px; margin: auto;"">
                                <img src=""images/map13_berlin_scaleDef_orientDef_000.png"" style= ""width:200px""alt=""img"">
                            </div>
                        </div>","-188","","0","","","","images/map13_berlin_scaleDef_orientDef_000.png","happy","1","13","13","berlin","orientDef","scaleDef","000","",""
"","","","","","html-slider-response","107","327016","0.0-103.0","nzaey1h256","50","NaN","<div style=""width:500px;"">
                            <p style=""font-size:50px; font-weight:bold;""
                            >happy</p>
                            <div style=""width:240px; margin: auto;"">
                                <img src=""images/map07_PuOr_scaleRev_orientMir_270.png"" style= ""width:200px""alt=""img"">
                            </div>
                        </div>","-30","","0","","","","images/map07_PuOr_scaleRev_orientMir_270.png","happy","1","07","07","PuOr","orientMir","scaleRev","270","",""
"","","","","","html-slider-response","108","330195","0.0-104.0","nzaey1h256","50","NaN","<div style=""width:500px;"">
                            <p style=""font-size:50px; font-weight:bold;""
                            >happy</p>
                            <div style=""width:240px; margin: auto;"">
                                <img src=""images/map23_Purples_scaleRev_orientMir_270.png"" style= ""width:200px""alt=""img"">
                            </div>
                        </div>","-107","","0","","","","images/map23_Purples_scaleRev_orientMir_270.png","happy","1","23","23","Purples","orientMir","scaleRev","270","",""
"","","","","","html-slider-response","109","332965","0.0-105.0","nzaey1h256","50","NaN","<div style=""width:500px;"">
                            <p style=""font-size:50px; font-weight:bold;""
                            >happy</p>
                            <div style=""width:240px; margin: auto;"">
                                <img src=""images/map05_YlGn_scaleRev_orientMir_270.png"" style= ""width:200px""alt=""img"">
                            </div>
                        </div>","22","","0","","","","images/map05_YlGn_scaleRev_orientMir_270.png","happy","1","05","05","YlGn","orientMir","scaleRev","270","",""
"","","","","","html-slider-response","110","335445","0.0-106.0","nzaey1h256","50","NaN","<div style=""width:500px;"">
                            <p style=""font-size:50px; font-weight:bold;""
                            >happy</p>
                            <div style=""width:240px; margin: auto;"">
                                <img src=""images/map13_vanimo_scaleRev_orientMir_090.png"" style= ""width:200px""alt=""img"">
                            </div>
                        </div>","-150","","0","","","","images/map13_vanimo_scaleRev_orientMir_090.png","happy","1","13","13","vanimo","orientMir","scaleRev","090","",""
"","","","","","html-slider-response","111","339810","0.0-107.0","nzaey1h256","50","NaN","<div style=""width:500px;"">
                            <p style=""font-size:50px; font-weight:bold;""
                            >happy</p>
                            <div style=""width:240px; margin: auto;"">
                                <img src=""images/map27_YlOrRd_scaleRev_orientDef_270.png"" style= ""width:200px""alt=""img"">
                            </div>
                        </div>","-13","","0","","","","images/map27_YlOrRd_scaleRev_orientDef_270.png","happy","1","27","27","YlOrRd","orientDef","scaleRev","270","",""
"","","","","","html-slider-response","112","342069","0.0-108.0","nzaey1h256","50","NaN","<div style=""width:500px;"">
                            <p style=""font-size:50px; font-weight:bold;""
                            >happy</p>
                            <div style=""width:240px; margin: auto;"">
                                <img src=""images/map26_Greens_scaleDef_orientDef_180.png"" style= ""width:200px""alt=""img"">
                            </div>
                        </div>","27","","0","","","","images/map26_Greens_scaleDef_orientDef_180.png","happy","1","26","26","Greens","orientDef","scaleDef","180","",""
"","","","","","html-slider-response","113","345227","0.0-109.0","nzaey1h256","50","NaN","<div style=""width:500px;"">
                            <p style=""font-size:50px; font-weight:bold;""
                            >happy</p>
                            <div style=""width:240px; margin: auto;"">
                                <img src=""images/map23_magma_scaleRev_orientDef_090.png"" style= ""width:200px""alt=""img"">
                            </div>
                        </div>","-101","","0","","","","images/map23_magma_scaleRev_orientDef_090.png","happy","1","23","23","magma","orientDef","scaleRev","090","",""
"","","","","","html-slider-response","114","348544","0.0-110.0","nzaey1h256","50","NaN","<div style=""width:500px;"">
                            <p style=""font-size:50px; font-weight:bold;""
                            >happy</p>
                            <div style=""width:240px; margin: auto;"">
                                <img src=""images/map27_OrRd_scaleRev_orientMir_090.png"" style= ""width:200px""alt=""img"">
                            </div>
                        </div>","-55","","0","","","","images/map27_OrRd_scaleRev_orientMir_090.png","happy","1","27","27","OrRd","orientMir","scaleRev","090","",""
"","","","","","html-slider-response","115","350972","0.0-111.0","nzaey1h256","50","NaN","<div style=""width:500px;"">
                            <p style=""font-size:50px; font-weight:bold;""
                            >happy</p>
                            <div style=""width:240px; margin: auto;"">
                                <img src=""images/map15_inferno_scaleDef_orientMir_180.png"" style= ""width:200px""alt=""img"">
                            </div>
                        </div>","67","","0","","","","images/map15_inferno_scaleDef_orientMir_180.png","happy","1","15","15","inferno","orientMir","scaleDef","180","",""
"","","","","","html-slider-response","116","355077","0.0-112.0","nzaey1h256","50","NaN","<div style=""width:500px;"">
                            <p style=""font-size:50px; font-weight:bold;""
                            >happy</p>
                            <div style=""width:240px; margin: auto;"">
                                <img src=""images/map26_Blues_scaleDef_orientDef_000.png"" style= ""width:200px""alt=""img"">
                            </div>
                        </div>","2","","0","","","","images/map26_Blues_scaleDef_orientDef_000.png","happy","1","26","26","Blues","orientDef","scaleDef","000","",""
"","","","","","html-slider-response","117","357394","0.0-113.0","nzaey1h256","50","NaN","<div style=""width:500px;"">
                            <p style=""font-size:50px; font-weight:bold;""
                            >happy</p>
                            <div style=""width:240px; margin: auto;"">
                                <img src=""images/map10_RdBu_scaleRev_orientDef_270.png"" style= ""width:200px""alt=""img"">
                            </div>
                        </div>","-14","","0","","","","images/map10_RdBu_scaleRev_orientDef_270.png","happy","1","10","10","RdBu","orientDef","scaleRev","270","",""
"","","","","","html-slider-response","118","360208","0.0-114.0","nzaey1h256","50","NaN","<div style=""width:500px;"">
                            <p style=""font-size:50px; font-weight:bold;""
                            >happy</p>
                            <div style=""width:240px; margin: auto;"">
                                <img src=""images/map12_seismic_scaleDef_orientMir_180.png"" style= ""width:200px""alt=""img"">
                            </div>
                        </div>","-13","","0","","","","images/map12_seismic_scaleDef_orientMir_180.png","happy","1","12","12","seismic","orientMir","scaleDef","180","",""
"","","","","","html-slider-response","119","362990","0.0-115.0","nzaey1h256","50","NaN","<div style=""width:500px;"">
                            <p style=""font-size:50px; font-weight:bold;""
                            >happy</p>
                            <div style=""width:240px; margin: auto;"">
                                <img src=""images/map07_BrBG_scaleRev_orientMir_090.png"" style= ""width:200px""alt=""img"">
                            </div>
                        </div>","-22","","0","","","","images/map07_BrBG_scaleRev_orientMir_090.png","happy","1","07","07","BrBG","orientMir","scaleRev","090","",""
"","","","","","html-slider-response","120","365543","0.0-116.0","nzaey1h256","50","NaN","<div style=""width:500px;"">
                            <p style=""font-size:50px; font-weight:bold;""
                            >happy</p>
                            <div style=""width:240px; margin: auto;"">
                                <img src=""images/map02_RdPu_scaleDef_orientDef_000.png"" style= ""width:200px""alt=""img"">
                            </div>
                        </div>","48","","0","","","","images/map02_RdPu_scaleDef_orientDef_000.png","happy","1","02","02","RdPu","orientDef","scaleDef","000","",""
"","","","","","html-slider-response","121","367676","0.0-117.0","nzaey1h256","50","NaN","<div style=""width:500px;"">
                            <p style=""font-size:50px; font-weight:bold;""
                            >happy</p>
                            <div style=""width:240px; margin: auto;"">
                                <img src=""images/map02_PuBu_scaleRev_orientMir_270.png"" style= ""width:200px""alt=""img"">
                            </div>
                        </div>","-26","","0","","","","images/map02_PuBu_scaleRev_orientMir_270.png","happy","1","02","02","PuBu","orientMir","scaleRev","270","",""
"","","","","","html-slider-response","122","374689","0.0-118.0","nzaey1h256","50","NaN","<div style=""width:500px;"">
                            <p style=""font-size:50px; font-weight:bold;""
                            >happy</p>
                            <div style=""width:240px; margin: auto;"">
                                <img src=""images/map07_BrBG_scaleDef_orientMir_000.png"" style= ""width:200px""alt=""img"">
                            </div>
                        </div>","19","","0","","","","images/map07_BrBG_scaleDef_orientMir_000.png","happy","1","07","07","BrBG","orientMir","scaleDef","000","",""
"","","","","","html-slider-response","123","376841","0.0-119.0","nzaey1h256","50","NaN","<div style=""width:500px;"">
                            <p style=""font-size:50px; font-weight:bold;""
                            >happy</p>
                            <div style=""width:240px; margin: auto;"">
                                <img src=""images/map05_YlGnBu_scaleDef_orientDef_000.png"" style= ""width:200px""alt=""img"">
                            </div>
                        </div>","77","","0","","","","images/map05_YlGnBu_scaleDef_orientDef_000.png","happy","1","05","05","YlGnBu","orientDef","scaleDef","000","",""
"","","","","","html-slider-response","124","379187","0.0-120.0","nzaey1h256","50","NaN","<div style=""width:500px;"">
                            <p style=""font-size:50px; font-weight:bold;""
                            >happy</p>
                            <div style=""width:240px; margin: auto;"">
                                <img src=""images/map10_RdGy_scaleRev_orientDef_090.png"" style= ""width:200px""alt=""img"">
                            </div>
                        </div>","-106","","0","","","","images/map10_RdGy_scaleRev_orientDef_090.png","happy","1","10","10","RdGy","orientDef","scaleRev","090","",""
"","","","","","html-slider-response","125","383023","0.0-121.0","nzaey1h256","50","NaN","<div style=""width:500px;"">
                            <p style=""font-size:50px; font-weight:bold;""
                            >happy</p>
                            <div style=""width:240px; margin: auto;"">
                                <img src=""images/map15_turbo_scaleRev_orientDef_090.png"" style= ""width:200px""alt=""img"">
                            </div>
                        </div>","120","","0","","","","images/map15_turbo_scaleRev_orientDef_090.png","happy","1","15","15","turbo","orientDef","scaleRev","090","",""
"","","","","","html-slider-response","126","386021","0.0-122.0","nzaey1h256","50","NaN","<div style=""width:500px;"">
                            <p style=""font-size:50px; font-weight:bold;""
                            >happy</p>
                            <div style=""width:240px; margin: auto;"">
                                <img src=""images/map27_OrRd_scaleDef_orientMir_000.png"" style= ""width:200px""alt=""img"">
                            </div>
                        </div>","-149","","0","","","","images/map27_OrRd_scaleDef_orientMir_000.png","happy","1","27","27","OrRd","orientMir","scaleDef","000","",""
"","","","","","html-slider-response","127","388136","0.0-123.0","nzaey1h256","50","NaN","<div style=""width:500px;"">
                            <p style=""font-size:50px; font-weight:bold;""
                            >happy</p>
                            <div style=""width:240px; margin: auto;"">
                                <img src=""images/map02_BuPu_scaleRev_orientDef_270.png"" style= ""width:200px""alt=""img"">
                            </div>
                        </div>","-149","","0","","","","images/map02_BuPu_scaleRev_orientDef_270.png","happy","1","02","02","BuPu","orientDef","scaleRev","270","",""
"","","","","","html-slider-response","128","390370","0.0-124.0","nzaey1h256","50","NaN","<div style=""width:500px;"">
                            <p style=""font-size:50px; font-weight:bold;""
                            >happy</p>
                            <div style=""width:240px; margin: auto;"">
                                <img src=""images/map26_Blues_scaleRev_orientDef_090.png"" style= ""width:200px""alt=""img"">
                            </div>
                        </div>","-66","","0","","","","images/map26_Blues_scaleRev_orientDef_090.png","happy","1","26","26","Blues","orientDef","scaleRev","090","",""
"","","","","","html-slider-response","129","391824","0.0-125.0","nzaey1h256","50","NaN","<div style=""width:500px;"">
                            <p style=""font-size:50px; font-weight:bold;""
                            >happy</p>
                            <div style=""width:240px; margin: auto;"">
                                <img src=""images/map02_PuBu_scaleDef_orientMir_180.png"" style= ""width:200px""alt=""img"">
                            </div>
                        </div>","-66","","0","","","","images/map02_PuBu_scaleDef_orientMir_180.png","happy","1","02","02","PuBu","orientMir","scaleDef","180","",""
"","","","","","html-slider-response","130","394001","0.0-126.0","nzaey1h256","50","NaN","<div style=""width:500px;"">
                            <p style=""font-size:50px; font-weight:bold;""
                            >happy</p>
                            <div style=""width:240px; margin: auto;"">
                                <img src=""images/map05_PuBuGn_scaleDef_orientDef_180.png"" style= ""width:200px""alt=""img"">
                            </div>
                        </div>","-70","","0","","","","images/map05_PuBuGn_scaleDef_orientDef_180.png","happy","1","05","05","PuBuGn","orientDef","scaleDef","180","",""
"","","","","","html-slider-response","131","396037","0.0-127.0","nzaey1h256","50","NaN","<div style=""width:500px;"">
                            <p style=""font-size:50px; font-weight:bold;""
                            >happy</p>
                            <div style=""width:240px; margin: auto;"">
                                <img src=""images/map02_RdPu_scaleRev_orientDef_090.png"" style= ""width:200px""alt=""img"">
                            </div>
                        </div>","72","","0","","","","images/map02_RdPu_scaleRev_orientDef_090.png","happy","1","02","02","RdPu","orientDef","scaleRev","090","",""
"","","","","","html-slider-response","132","398337","0.0-128.0","nzaey1h256","50","NaN","<div style=""width:500px;"">
                            <p style=""font-size:50px; font-weight:bold;""
                            >happy</p>
                            <div style=""width:240px; margin: auto;"">
                                <img src=""images/map07_PRGn_scaleRev_orientDef_270.png"" style= ""width:200px""alt=""img"">
                            </div>
                        </div>","-152","","0","","","","images/map07_PRGn_scaleRev_orientDef_270.png","happy","1","07","07","PRGn","orientDef","scaleRev","270","",""
"","","","","","html-slider-response","133","401254","0.0-129.0","nzaey1h256","50","NaN","<div style=""width:500px;"">
                            <p style=""font-size:50px; font-weight:bold;""
                            >happy</p>
                            <div style=""width:240px; margin: auto;"">
                                <img src=""images/map12_Spectral_scaleDef_orientDef_000.png"" style= ""width:200px""alt=""img"">
                            </div>
                        </div>","139","","0","","","","images/map12_Spectral_scaleDef_orientDef_000.png","happy","1","12","12","Spectral","orientDef","scaleDef","000","",""
"","","","","","html-slider-response","134","403802","0.0-130.0","nzaey1h256","50","NaN","<div style=""width:500px;"">
                            <p style=""font-size:50px; font-weight:bold;""
                            >happy</p>
                            <div style=""width:240px; margin: auto;"">
                                <img src=""images/map15_inferno_scaleRev_orientMir_270.png"" style= ""width:200px""alt=""img"">
                            </div>
                        </div>","-191","","0","","","","images/map15_inferno_scaleRev_orientMir_270.png","happy","1","15","15","inferno","orientMir","scaleRev","270","",""
"","","","","","html-slider-response","135","406603","0.0-131.0","nzaey1h256","50","NaN","<div style=""width:500px;"">
                            <p style=""font-size:50px; font-weight:bold;""
                            >happy</p>
                            <div style=""width:240px; margin: auto;"">
                                <img src=""images/map13_managua_scaleDef_orientDef_180.png"" style= ""width:200px""alt=""img"">
                            </div>
                        </div>","30","","0","","","","images/map13_managua_scaleDef_orientDef_180.png","happy","1","13","13","managua","orientDef","scaleDef","180","",""
"","","","","","html-slider-response","136","409100","0.0-132.0","nzaey1h256","50","NaN","<div style=""width:500px;"">
                            <p style=""font-size:50px; font-weight:bold;""
                            >happy</p>
                            <div style=""width:240px; margin: auto;"">
                                <img src=""images/map07_PuOr_scaleDef_orientMir_180.png"" style= ""width:200px""alt=""img"">
                            </div>
                        </div>","-21","","0","","","","images/map07_PuOr_scaleDef_orientMir_180.png","happy","1","07","07","PuOr","orientMir","scaleDef","180","",""
"","","","","","html-slider-response","137","411966","0.0-133.0","nzaey1h256","50","NaN","<div style=""width:500px;"">
                            <p style=""font-size:50px; font-weight:bold;""
                            >happy</p>
                            <div style=""width:240px; margin: auto;"">
                                <img src=""images/map12_coolwarm_scaleRev_orientDef_270.png"" style= ""width:200px""alt=""img"">
                            </div>
                        </div>","171","","0","","","","images/map12_coolwarm_scaleRev_orientDef_270.png","happy","1","12","12","coolwarm","orientDef","scaleRev","270","",""
"","","","","","html-slider-response","138","414255","0.0-134.0","nzaey1h256","50","NaN","<div style=""width:500px;"">
                            <p style=""font-size:50px; font-weight:bold;""
                            >happy</p>
                            <div style=""width:240px; margin: auto;"">
                                <img src=""images/map13_gist_earth_scaleRev_orientMir_270.png"" style= ""width:200px""alt=""img"">
                            </div>
                        </div>","-157","","0","","","","images/map13_gist_earth_scaleRev_orientMir_270.png","happy","1","13","13","gist","scaleRev","earth","orientMir","",""
"","","","","","html-slider-response","139","417138","0.0-135.0","nzaey1h256","50","NaN","<div style=""width:500px;"">
                            <p style=""font-size:50px; font-weight:bold;""
                            >happy</p>
                            <div style=""width:240px; margin: auto;"">
                                <img src=""images/map27_YlOrRd_scaleDef_orientDef_180.png"" style= ""width:200px""alt=""img"">
                            </div>
                        </div>","-94","","0","","","","images/map27_YlOrRd_scaleDef_orientDef_180.png","happy","1","27","27","YlOrRd","orientDef","scaleDef","180","",""
"","","","","","html-slider-response","140","418798","0.0-136.0","nzaey1h256","50","NaN","<div style=""width:500px;"">
                            <p style=""font-size:50px; font-weight:bold;""
                            >happy</p>
                            <div style=""width:240px; margin: auto;"">
                                <img src=""images/map27_YlOrBr_scaleRev_orientDef_090.png"" style= ""width:200px""alt=""img"">
                            </div>
                        </div>","-94","","0","","","","images/map27_YlOrBr_scaleRev_orientDef_090.png","happy","1","27","27","YlOrBr","orientDef","scaleRev","090","",""
"","","","","","html-button-response","141","420473","0.0-137.0","nzaey1h256","50","1163","<p>You are doing great!<br></br> You are halway done with the current block. When you are ready to continue, click the 'Continue' button.</p>","0","","","","","","","","","","","","","","","",""
"","","","","","html-slider-response","142","422314","0.0-138.0","nzaey1h256","50","NaN","<div style=""width:500px;"">
                            <p style=""font-size:50px; font-weight:bold;""
                            >happy</p>
                            <div style=""width:240px; margin: auto;"">
                                <img src=""images/map12_bwr_scaleRev_orientMir_090.png"" style= ""width:200px""alt=""img"">
                            </div>
                        </div>","134","","0","","","","images/map12_bwr_scaleRev_orientMir_090.png","happy","1","12","12","bwr","orientMir","scaleRev","090","",""
"","","","","","html-slider-response","143","424582","0.0-139.0","nzaey1h256","50","NaN","<div style=""width:500px;"">
                            <p style=""font-size:50px; font-weight:bold;""
                            >happy</p>
                            <div style=""width:240px; margin: auto;"">
                                <img src=""images/map15_plasma_scaleRev_orientMir_090.png"" style= ""width:200px""alt=""img"">
                            </div>
                        </div>","-114","","0","","","","images/map15_plasma_scaleRev_orientMir_090.png","happy","1","15","15","plasma","orientMir","scaleRev","090","",""
"","","","","","html-slider-response","144","426824","0.0-140.0","nzaey1h256","50","NaN","<div style=""width:500px;"">
                            <p style=""font-size:50px; font-weight:bold;""
                            >happy</p>
                            <div style=""width:240px; margin: auto;"">
                                <img src=""images/map13_vanimo_scaleDef_orientMir_000.png"" style= ""width:200px""alt=""img"">
                            </div>
                        </div>","-194","","0","","","","images/map13_vanimo_scaleDef_orientMir_000.png","happy","1","13","13","vanimo","orientMir","scaleDef","000","",""
"","","","","","html-slider-response","145","428851","0.0-141.0","nzaey1h256","50","NaN","<div style=""width:500px;"">
                            <p style=""font-size:50px; font-weight:bold;""
                            >happy</p>
                            <div style=""width:240px; margin: auto;"">
                                <img src=""images/map23_Greys_scaleDef_orientMir_000.png"" style= ""width:200px""alt=""img"">
                            </div>
                        </div>","-197","","0","","","","images/map23_Greys_scaleDef_orientMir_000.png","happy","1","23","23","Greys","orientMir","scaleDef","000","",""
"","","","","","html-slider-response","146","431580","0.0-142.0","nzaey1h256","50","NaN","<div style=""width:500px;"">
                            <p style=""font-size:50px; font-weight:bold;""
                            >happy</p>
                            <div style=""width:240px; margin: auto;"">
                                <img src=""images/map10_RdBu_scaleDef_orientDef_180.png"" style= ""width:200px""alt=""img"">
                            </div>
                        </div>","185","","0","","","","images/map10_RdBu_scaleDef_orientDef_180.png","happy","1","10","10","RdBu","orientDef","scaleDef","180","",""
"","","","","","html-slider-response","147","433337","0.0-143.0","nzaey1h256","50","NaN","<div style=""width:500px;"">
                            <p style=""font-size:50px; font-weight:bold;""
                            >happy</p>
                            <div style=""width:240px; margin: auto;"">
                                <img src=""images/map02_BuPu_scaleDef_orientDef_180.png"" style= ""width:200px""alt=""img"">
                            </div>
                        </div>","-69","","0","","","","images/map02_BuPu_scaleDef_orientDef_180.png","happy","1","02","02","BuPu","orientDef","scaleDef","180","",""
"","","","","","html-slider-response","148","435729","0.0-144.0","nzaey1h256","50","NaN","<div style=""width:500px;"">
                            <p style=""font-size:50px; font-weight:bold;""
                            >happy</p>
                            <div style=""width:240px; margin: auto;"">
                                <img src=""images/map15_turbo_scaleDef_orientDef_000.png"" style= ""width:200px""alt=""img"">
                            </div>
                        </div>","128","","0","","","","images/map15_turbo_scaleDef_orientDef_000.png","happy","1","15","15","turbo","orientDef","scaleDef","000","",""
"","","","","","html-slider-response","149","439113","0.0-145.0","nzaey1h256","50","NaN","<div style=""width:500px;"">
                            <p style=""font-size:50px; font-weight:bold;""
                            >happy</p>
                            <div style=""width:240px; margin: auto;"">
                                <img src=""images/map13_managua_scaleRev_orientDef_270.png"" style= ""width:200px""alt=""img"">
                            </div>
                        </div>","2","","0","","","","images/map13_managua_scaleRev_orientDef_270.png","happy","1","13","13","managua","orientDef","scaleRev","270","",""
"","","","","","html-slider-response","150","441451","0.0-146.0","nzaey1h256","50","NaN","<div style=""width:500px;"">
                            <p style=""font-size:50px; font-weight:bold;""
                            >happy</p>
                            <div style=""width:240px; margin: auto;"">
                                <img src=""images/map07_PiYG_scaleDef_orientDef_000.png"" style= ""width:200px""alt=""img"">
                            </div>
                        </div>","75","","0","","","","images/map07_PiYG_scaleDef_orientDef_000.png","happy","1","07","07","PiYG","orientDef","scaleDef","000","",""
"","","","","","html-slider-response","151","444684","0.0-147.0","nzaey1h256","50","NaN","<div style=""width:500px;"">
                            <p style=""font-size:50px; font-weight:bold;""
                            >happy</p>
                            <div style=""width:240px; margin: auto;"">
                                <img src=""images/map27_YlOrBr_scaleDef_orientDef_000.png"" style= ""width:200px""alt=""img"">
                            </div>
                        </div>","31","","0","","","","images/map27_YlOrBr_scaleDef_orientDef_000.png","happy","1","27","27","YlOrBr","orientDef","scaleDef","000","",""
"","","","","","html-slider-response","152","446767","0.0-148.0","nzaey1h256","50","NaN","<div style=""width:500px;"">
                            <p style=""font-size:50px; font-weight:bold;""
                            >happy</p>
                            <div style=""width:240px; margin: auto;"">
                                <img src=""images/map05_BuGn_scaleRev_orientMir_090.png"" style= ""width:200px""alt=""img"">
                            </div>
                        </div>","-21","","0","","","","images/map05_BuGn_scaleRev_orientMir_090.png","happy","1","05","05","BuGn","orientMir","scaleRev","090","",""
"","","","","","html-slider-response","153","448660","0.0-149.0","nzaey1h256","50","NaN","<div style=""width:500px;"">
                            <p style=""font-size:50px; font-weight:bold;""
                            >happy</p>
                            <div style=""width:240px; margin: auto;"">
                                <img src=""images/map27_PuRd_scaleDef_orientMir_180.png"" style= ""width:200px""alt=""img"">
                            </div>
                        </div>","50","","0","","","","images/map27_PuRd_scaleDef_orientMir_180.png","happy","1","27","27","PuRd","orientMir","scaleDef","180","",""
"","","","","","html-slider-response","154","452427","0.0-150.0","nzaey1h256","50","NaN","<div style=""width:500px;"">
                            <p style=""font-size:50px; font-weight:bold;""
                            >happy</p>
                            <div style=""width:240px; margin: auto;"">
                                <img src=""images/map07_PRGn_scaleDef_orientDef_180.png"" style= ""width:200px""alt=""img"">
                            </div>
                        </div>","-66","","0","","","","images/map07_PRGn_scaleDef_orientDef_180.png","happy","1","07","07","PRGn","orientDef","scaleDef","180","",""
"","","","","","html-slider-response","155","454909","0.0-151.0","nzaey1h256","50","NaN","<div style=""width:500px;"">
                            <p style=""font-size:50px; font-weight:bold;""
                            >happy</p>
                            <div style=""width:240px; margin: auto;"">
                                <img src=""images/map12_coolwarm_scaleDef_orientDef_180.png"" style= ""width:200px""alt=""img"">
                            </div>
                        </div>","133","","0","","","","images/map12_coolwarm_scaleDef_orientDef_180.png","happy","1","12","12","coolwarm","orientDef","scaleDef","180","",""
"","","","","","html-slider-response","156","457360","0.0-152.0","nzaey1h256","50","NaN","<div style=""width:500px;"">
                            <p style=""font-size:50px; font-weight:bold;""
                            >happy</p>
                            <div style=""width:240px; margin: auto;"">
                                <img src=""images/map05_YlGnBu_scaleRev_orientDef_090.png"" style= ""width:200px""alt=""img"">
                            </div>
                        </div>","50","","0","","","","images/map05_YlGnBu_scaleRev_orientDef_090.png","happy","1","05","05","YlGnBu","orientDef","scaleRev","090","",""
"","","","","","html-slider-response","157","459508","0.0-153.0","nzaey1h256","50","NaN","<div style=""width:500px;"">
                            <p style=""font-size:50px; font-weight:bold;""
                            >happy</p>
                            <div style=""width:240px; margin: auto;"">
                                <img src=""images/map13_berlin_scaleRev_orientDef_090.png"" style= ""width:200px""alt=""img"">
                            </div>
                        </div>","-180","","0","","","","images/map13_berlin_scaleRev_orientDef_090.png","happy","1","13","13","berlin","orientDef","scaleRev","090","",""
"","","","","","html-slider-response","158","461860","0.0-154.0","nzaey1h256","50","NaN","<div style=""width:500px;"">
