"success","timeout","failed_images","failed_audio","failed_video","trial_type","trial_index","time_elapsed","internal_node_id","subject_id","condition_num","rt","stimulus","response","question_order","slider_start","practiceTrial","practiceTrialNum","correct","image_path","concept","repetition","map_id","map_num","scale_name","orientation_code","mapping_code","rotation_code","ishihara_plate","correct_response"
"true","false","[]","[]","[]","preload","0","834","0.0-0.0","o3uzl5rju7","32","","","","","","","","","","","","","","","","","","",""
"","","","","","html-button-response","1","14182062","0.0-1.0","o3uzl5rju7","32","14181236","Welcome to our experiment!<p>At the bottom of this screen, you will see a button that says ""Begin Experiment"".<br>Please only click that button when you are ready to complete the 30 minute experiment in one sitting.</p><p> Once you click that button, it will not be possible to restart the experiment.","0","","","","","","","","","","","","","","","",""
"true","","","","","fullscreen","2","14186268","0.0-2.0","o3uzl5rju7","32","3195","","","","","","","","","","","","","","","","","",""
"","","","","","survey-multi-select","3","14225343","0.0-3.0","o3uzl5rju7","32","39072","","{""Consent"":[""<strong>I consent</strong>""]}","[0]","","","","","","","","","","","","","","",""
"","","","","","html-button-response","4","14227341","0.0-4.0","o3uzl5rju7","32","1995","Welcome! <p> This experiment involves two parts: demographic information, followed by the experimental task.<p> It will take about 30 minutes to complete both parts.","0","","","","","","","","","","","","","","","",""
"","","","","","survey-text","5","14240774","0.0-5.0","o3uzl5rju7","32","13420","","{""Age"":""19"",""Gender"":""Male"",""Race/ethnicity"":""White"",""Languages"":""English""}","","","","","","","","","","","","","","","",""
"","","","","","html-slider-response","6","14274096","0.0-6.0","o3uzl5rju7","32","33316","<div style='text-align:left; font-size:20px; line-height:25px; width: 1000px;'>
                                During this experiment you will be asked to rate how much you associate maps with                    different concepts.<br> Below, you can see some examples of the maps you will be asked to rate. Above the maps
                    is the list of concepts.<br>You will be asked                    to rate how much you associate each map with each concept on a scale from 'not at all' to 'very much' like the
                    one below. <br><br>
                    Now, please look at the list of concepts and maps. For each concept, think about the map you associate 'very
                    much' with the concept.<br>                     When you see that map during the experiment, please rate it near the 'very much' endpoint of the
                    scale.<br>Now, please think about which map you associate 'not at all'                     with each concept. When you see that map during the experiment, please rate it near the 'not at all' endpoint
                    of the scale.<br>
                    Please use the full range of the scale. That is, if a map is somewhat associated with the concept, you would
                    click partway between the middle point and right side of the scale.                    You will be asked to rate each map for a given concept before moving on to the next concept.<br>Press the
                    'Continue' button for instructions on how to use the slider.                    <br>
                </div>

                <div style=""width: 500px; margin: 0 auto;"">
                    <!-- Centered text paragraphs -->
                    <div style=""text-align: center; width: 500px;"">
                        <p style=""font-size:25px; line-height:15px;"">
                            disgust&nbsp;&nbsp;&nbsp;&nbsp;
                            sad&nbsp;&nbsp;&nbsp;&nbsp;
                            fearful&nbsp;&nbsp;&nbsp;&nbsp;
                            happy&nbsp;&nbsp;&nbsp;&nbsp;
                            angry
                        </p>
                        <!-- <p style=""font-size:20px; line-height:15px;"">sad</p>
                        <p style=""font-size:20px;line-height:15px;"">fearful</p>
                        <p style=""font-size:20px;line-height:15px;"">happy</p>
                        <p style=""font-size:20px;line-height:15px;"">angry</p> -->
                    </div>
            

                    <!-- Grid section -->
                   <div style=""display: flex; justify-content: center; padding-top: 15px;"">
                    <div style=""display: grid; grid-template-columns: repeat(10, 55px); grid-gap: 5px; width: auto;"">
                        <img src=""images/map13_Greys_scaleRev_orientDef_270.png"" alt=""map"" style=""width: 100%;""><img src=""images/map10_managua_scaleDef_orientDef_000.png"" alt=""map"" style=""width: 100%;""><img src=""images/map26_GnBu_scaleRev_orientDef_270.png"" alt=""map"" style=""width: 100%;""><img src=""images/map12_viridis_scaleRev_orientDef_090.png"" alt=""map"" style=""width: 100%;""><img src=""images/map27_PuBuGn_scaleRev_orientDef_090.png"" alt=""map"" style=""width: 100%;""><img src=""images/map02_PuOr_scaleRev_orientMir_090.png"" alt=""map"" style=""width: 100%;""><img src=""images/map02_PRGn_scaleRev_orientDef_090.png"" alt=""map"" style=""width: 100%;""><img src=""images/map13_cividis_scaleRev_orientDef_090.png"" alt=""map"" style=""width: 100%;""><img src=""images/map05_RdBu_scaleDef_orientDef_000.png"" alt=""map"" style=""width: 100%;""><img src=""images/map27_YlGn_scaleRev_orientMir_090.png"" alt=""map"" style=""width: 100%;""><img src=""images/map13_Blues_scaleDef_orientMir_180.png"" alt=""map"" style=""width: 100%;""><img src=""images/map27_BuGn_scaleRev_orientDef_270.png"" alt=""map"" style=""width: 100%;""><img src=""images/map05_RdYlGn_scaleRev_orientMir_090.png"" alt=""map"" style=""width: 100%;""><img src=""images/map26_PuBu_scaleRev_orientMir_090.png"" alt=""map"" style=""width: 100%;""><img src=""images/map23_OrRd_scaleRev_orientDef_270.png"" alt=""map"" style=""width: 100%;""><img src=""images/map26_BuPu_scaleDef_orientDef_000.png"" alt=""map"" style=""width: 100%;""><img src=""images/map02_RdGy_scaleRev_orientMir_270.png"" alt=""map"" style=""width: 100%;""><img src=""images/map15_YlOrBr_scaleDef_orientMir_180.png"" alt=""map"" style=""width: 100%;""><img src=""images/map26_YlGnBu_scaleRev_orientMir_270.png"" alt=""map"" style=""width: 100%;""><img src=""images/map12_plasma_scaleRev_orientDef_270.png"" alt=""map"" style=""width: 100%;""><img src=""images/map07_coolwarm_scaleRev_orientDef_090.png"" alt=""map"" style=""width: 100%;""><img src=""images/map02_BrBG_scaleRev_orientDef_270.png"" alt=""map"" style=""width: 100%;""><img src=""images/map07_berlin_scaleRev_orientMir_270.png"" alt=""map"" style=""width: 100%;""><img src=""images/map15_Greens_scaleRev_orientDef_090.png"" alt=""map"" style=""width: 100%;""><img src=""images/map23_PuRd_scaleDef_orientMir_000.png"" alt=""map"" style=""width: 100%;""><img src=""images/map23_YlOrRd_scaleRev_orientDef_090.png"" alt=""map"" style=""width: 100%;""><img src=""images/map23_RdPu_scaleRev_orientMir_270.png"" alt=""map"" style=""width: 100%;""><img src=""images/map13_Purples_scaleRev_orientMir_090.png"" alt=""map"" style=""width: 100%;""><img src=""images/map05_RdYlBu_scaleRev_orientDef_270.png"" alt=""map"" style=""width: 100%;""><img src=""images/map10_gist_earth_scaleRev_orientMir_090.png"" alt=""map"" style=""width: 100%;""><img src=""images/map15_Reds_scaleDef_orientMir_000.png"" alt=""map"" style=""width: 100%;""><img src=""images/map10_turbo_scaleDef_orientMir_180.png"" alt=""map"" style=""width: 100%;""><img src=""images/map27_PiYG_scaleDef_orientMir_180.png"" alt=""map"" style=""width: 100%;""><img src=""images/map07_bwr_scaleRev_orientDef_270.png"" alt=""map"" style=""width: 100%;""><img src=""images/map12_magma_scaleRev_orientMir_270.png"" alt=""map"" style=""width: 100%;""><img src=""images/map15_Oranges_scaleDef_orientDef_180.png"" alt=""map"" style=""width: 100%;""><img src=""images/map12_inferno_scaleDef_orientMir_000.png"" alt=""map"" style=""width: 100%;""><img src=""images/map07_seismic_scaleDef_orientMir_000.png"" alt=""map"" style=""width: 100%;""><img src=""images/map10_vanimo_scaleRev_orientDef_270.png"" alt=""map"" style=""width: 100%;""><img src=""images/map05_Spectral_scaleDef_orientMir_180.png"" alt=""map"" style=""width: 100%;"">
                    </div>
                </div>

                    <!-- Clear floats -->
                    <div style=""clear: both;""></div>
                </div>
                            ","null","","0","true","","","","","","","","","","","","",""
"","","","","","html-button-response","7","14277736","0.0-7.0","o3uzl5rju7","32","3638","<div style=""width:800px;""><p style=""text-align:left"">To move the slider, click and drag your cursor to the location of the scale where you would like to make your rating and then let go. When you let go of the slider, your response will be recorded and the next trial will begin. <br>
                    We are interested in your initial impressions of each map for the given concept, so please go with your first intuition. <br>
                    Before you begin the experiment, there will be four training trials for you to practice using the scale. <br>
                     When you are ready to start the training trials, please click ""Continue"".</p><br></div>","0","","","","","","","","","","","","","","","",""
"","","","","","html-slider-response","8","14282405","0.0-8.0-0.0","o3uzl5rju7","32","NaN","<div style=""width:500px;"">
                                    <p style=""font-size:25px;"">Please move the slider all the way to the <br> right endpoint of the scale</p>

                                    </div>
                                </div>","200","","0","true","0","true","","","","","","","","","","",""
"","","","","","html-button-response","9","14284346","0.0-8.0-1.0","o3uzl5rju7","32","1429","<p align='center'><b>Good job!</b> Click on 'Continue' to proceed.</p>","0","","","","","","","","","","","","","","","",""
"","","","","","html-slider-response","10","14286171","0.0-9.0-0.0","o3uzl5rju7","32","NaN","<div style=""width:500px;"">
                                    <p style=""font-size:25px;"">Please move the slider all the way to the <br> left endpoint of the scale</p>

                                    </div>
                                </div>","-200","","0","true","1","true","","","","","","","","","","",""
"","","","","","html-button-response","11","14287531","0.0-9.0-1.0","o3uzl5rju7","32","846","<p align='center'><b>Good job!</b> Click on 'Continue' to proceed.</p>","0","","","","","","","","","","","","","","","",""
"","","","","","html-slider-response","12","14294740","0.0-10.0-0.0","o3uzl5rju7","32","NaN","<div style=""width:500px;"">
                                    <p style=""font-size:25px;"">Please move the slider halfway between the center and right endpoint of the scale</p>

                                    </div>
                                </div>","106","","0","true","2","true","","","","","","","","","","",""
"","","","","","html-button-response","13","14296552","0.0-10.0-1.0","o3uzl5rju7","32","1300","<p align='center'><b>Good job!</b> Click on 'Continue' to proceed.</p>","0","","","","","","","","","","","","","","","",""
"","","","","","html-slider-response","14","14299621","0.0-11.0-0.0","o3uzl5rju7","32","NaN","<div style=""width:500px;"">
                                    <p style=""font-size:25px;"">Please move the slider halfway between the center and left endpoint of the scale</p>

                                    </div>
                                </div>","-105","","0","true","3","true","","","","","","","","","","",""
"","","","","","html-button-response","15","14300946","0.0-11.0-1.0","o3uzl5rju7","32","810","<p align='center'><b>Good job!</b> Click on 'Continue' to proceed.</p>","0","","","","","","","","","","","","","","","",""
"","","","","","html-button-response","16","14303432","0.0-12.0","o3uzl5rju7","32","2486","<p>Great job! You've completed the practice trials. Now you will begin the main task.</p>","0","","","","","","","","","","","","","","","",""
"","","","","","html-button-response","17","14307142","0.0-13.0","o3uzl5rju7","32","3708","<p>In this block of trials, you will be asked to rate how much you associate each map with:</p > <p style = 'font-size:150%; font-weight: bold'>disgust</p><br></br>","0","","","","","","","","","","","","","","","",""
"","","","","","html-slider-response","18","14320669","0.0-14.0","o3uzl5rju7","32","NaN","<div style=""width:500px;"">
                            <p style=""font-size:50px; font-weight:bold;""
                            >disgust</p>
                            <div style=""width:240px; margin: auto;"">
                                <img src=""images/map23_RdPu_scaleDef_orientMir_180.png"" style= ""width:200px""alt=""img"">
                            </div>
                        </div>","-53","","0","","","","images/map23_RdPu_scaleDef_orientMir_180.png","disgust","1","23","23","RdPu","orientMir","scaleDef","180","",""
"","","","","","html-slider-response","19","14327107","0.0-15.0","o3uzl5rju7","32","NaN","<div style=""width:500px;"">
                            <p style=""font-size:50px; font-weight:bold;""
                            >disgust</p>
                            <div style=""width:240px; margin: auto;"">
                                <img src=""images/map07_berlin_scaleDef_orientMir_180.png"" style= ""width:200px""alt=""img"">
                            </div>
                        </div>","70","","0","","","","images/map07_berlin_scaleDef_orientMir_180.png","disgust","1","07","07","berlin","orientMir","scaleDef","180","",""
"","","","","","html-slider-response","20","14330369","0.0-16.0","o3uzl5rju7","32","NaN","<div style=""width:500px;"">
                            <p style=""font-size:50px; font-weight:bold;""
                            >disgust</p>
                            <div style=""width:240px; margin: auto;"">
                                <img src=""images/map27_PuBuGn_scaleRev_orientDef_090.png"" style= ""width:200px""alt=""img"">
                            </div>
                        </div>","-200","","0","","","","images/map27_PuBuGn_scaleRev_orientDef_090.png","disgust","1","27","27","PuBuGn","orientDef","scaleRev","090","",""
"","","","","","html-slider-response","21","14333771","0.0-17.0","o3uzl5rju7","32","NaN","<div style=""width:500px;"">
                            <p style=""font-size:50px; font-weight:bold;""
                            >disgust</p>
                            <div style=""width:240px; margin: auto;"">
                                <img src=""images/map12_plasma_scaleDef_orientDef_180.png"" style= ""width:200px""alt=""img"">
                            </div>
                        </div>","42","","0","","","","images/map12_plasma_scaleDef_orientDef_180.png","disgust","1","12","12","plasma","orientDef","scaleDef","180","",""
"","","","","","html-slider-response","22","14336319","0.0-18.0","o3uzl5rju7","32","NaN","<div style=""width:500px;"">
                            <p style=""font-size:50px; font-weight:bold;""
                            >disgust</p>
                            <div style=""width:240px; margin: auto;"">
                                <img src=""images/map13_Greys_scaleRev_orientDef_270.png"" style= ""width:200px""alt=""img"">
                            </div>
                        </div>","80","","0","","","","images/map13_Greys_scaleRev_orientDef_270.png","disgust","1","13","13","Greys","orientDef","scaleRev","270","",""
"","","","","","html-slider-response","23","14338562","0.0-19.0","o3uzl5rju7","32","NaN","<div style=""width:500px;"">
                            <p style=""font-size:50px; font-weight:bold;""
                            >disgust</p>
                            <div style=""width:240px; margin: auto;"">
                                <img src=""images/map05_RdYlBu_scaleRev_orientDef_270.png"" style= ""width:200px""alt=""img"">
                            </div>
                        </div>","84","","0","","","","images/map05_RdYlBu_scaleRev_orientDef_270.png","disgust","1","05","05","RdYlBu","orientDef","scaleRev","270","",""
"","","","","","html-slider-response","24","14341232","0.0-20.0","o3uzl5rju7","32","NaN","<div style=""width:500px;"">
                            <p style=""font-size:50px; font-weight:bold;""
                            >disgust</p>
                            <div style=""width:240px; margin: auto;"">
                                <img src=""images/map10_vanimo_scaleDef_orientDef_180.png"" style= ""width:200px""alt=""img"">
                            </div>
                        </div>","158","","0","","","","images/map10_vanimo_scaleDef_orientDef_180.png","disgust","1","10","10","vanimo","orientDef","scaleDef","180","",""
"","","","","","html-slider-response","25","14343542","0.0-21.0","o3uzl5rju7","32","NaN","<div style=""width:500px;"">
                            <p style=""font-size:50px; font-weight:bold;""
                            >disgust</p>
                            <div style=""width:240px; margin: auto;"">
                                <img src=""images/map13_cividis_scaleDef_orientDef_000.png"" style= ""width:200px""alt=""img"">
                            </div>
                        </div>","-47","","0","","","","images/map13_cividis_scaleDef_orientDef_000.png","disgust","1","13","13","cividis","orientDef","scaleDef","000","",""
"","","","","","html-slider-response","26","14345801","0.0-22.0","o3uzl5rju7","32","NaN","<div style=""width:500px;"">
                            <p style=""font-size:50px; font-weight:bold;""
                            >disgust</p>
                            <div style=""width:240px; margin: auto;"">
                                <img src=""images/map23_PuRd_scaleDef_orientMir_000.png"" style= ""width:200px""alt=""img"">
                            </div>
                        </div>","-91","","0","","","","images/map23_PuRd_scaleDef_orientMir_000.png","disgust","1","23","23","PuRd","orientMir","scaleDef","000","",""
"","","","","","html-slider-response","27","14348642","0.0-23.0","o3uzl5rju7","32","NaN","<div style=""width:500px;"">
                            <p style=""font-size:50px; font-weight:bold;""
                            >disgust</p>
                            <div style=""width:240px; margin: auto;"">
                                <img src=""images/map15_Oranges_scaleDef_orientDef_180.png"" style= ""width:200px""alt=""img"">
                            </div>
                        </div>","46","","0","","","","images/map15_Oranges_scaleDef_orientDef_180.png","disgust","1","15","15","Oranges","orientDef","scaleDef","180","",""
"","","","","","html-slider-response","28","14355305","0.0-24.0","o3uzl5rju7","32","NaN","<div style=""width:500px;"">
                            <p style=""font-size:50px; font-weight:bold;""
                            >disgust</p>
                            <div style=""width:240px; margin: auto;"">
                                <img src=""images/map27_BuGn_scaleDef_orientDef_180.png"" style= ""width:200px""alt=""img"">
                            </div>
                        </div>","90","","0","","","","images/map27_BuGn_scaleDef_orientDef_180.png","disgust","1","27","27","BuGn","orientDef","scaleDef","180","",""
"","","","","","html-slider-response","29","14357802","0.0-25.0","o3uzl5rju7","32","NaN","<div style=""width:500px;"">
                            <p style=""font-size:50px; font-weight:bold;""
                            >disgust</p>
                            <div style=""width:240px; margin: auto;"">
                                <img src=""images/map13_Purples_scaleDef_orientMir_000.png"" style= ""width:200px""alt=""img"">
                            </div>
                        </div>","-61","","0","","","","images/map13_Purples_scaleDef_orientMir_000.png","disgust","1","13","13","Purples","orientMir","scaleDef","000","",""
"","","","","","html-slider-response","30","14360112","0.0-26.0","o3uzl5rju7","32","NaN","<div style=""width:500px;"">
                            <p style=""font-size:50px; font-weight:bold;""
                            >disgust</p>
                            <div style=""width:240px; margin: auto;"">
                                <img src=""images/map10_gist_earth_scaleRev_orientMir_090.png"" style= ""width:200px""alt=""img"">
                            </div>
                        </div>","38","","0","","","","images/map10_gist_earth_scaleRev_orientMir_090.png","disgust","1","10","10","gist","scaleRev","earth","orientMir","",""
"","","","","","html-slider-response","31","14363216","0.0-27.0","o3uzl5rju7","32","NaN","<div style=""width:500px;"">
                            <p style=""font-size:50px; font-weight:bold;""
                            >disgust</p>
                            <div style=""width:240px; margin: auto;"">
                                <img src=""images/map23_YlOrRd_scaleRev_orientDef_090.png"" style= ""width:200px""alt=""img"">
                            </div>
                        </div>","-90","","0","","","","images/map23_YlOrRd_scaleRev_orientDef_090.png","disgust","1","23","23","YlOrRd","orientDef","scaleRev","090","",""
"","","","","","html-slider-response","32","14366682","0.0-28.0","o3uzl5rju7","32","NaN","<div style=""width:500px;"">
                            <p style=""font-size:50px; font-weight:bold;""
                            >disgust</p>
                            <div style=""width:240px; margin: auto;"">
                                <img src=""images/map27_BuGn_scaleRev_orientDef_270.png"" style= ""width:200px""alt=""img"">
                            </div>
                        </div>","49","","0","","","","images/map27_BuGn_scaleRev_orientDef_270.png","disgust","1","27","27","BuGn","orientDef","scaleRev","270","",""
"","","","","","html-slider-response","33","14368599","0.0-29.0","o3uzl5rju7","32","NaN","<div style=""width:500px;"">
                            <p style=""font-size:50px; font-weight:bold;""
                            >disgust</p>
                            <div style=""width:240px; margin: auto;"">
                                <img src=""images/map27_PiYG_scaleRev_orientMir_270.png"" style= ""width:200px""alt=""img"">
                            </div>
                        </div>","92","","0","","","","images/map27_PiYG_scaleRev_orientMir_270.png","disgust","1","27","27","PiYG","orientMir","scaleRev","270","",""
"","","","","","html-slider-response","34","14372906","0.0-30.0","o3uzl5rju7","32","NaN","<div style=""width:500px;"">
                            <p style=""font-size:50px; font-weight:bold;""
                            >disgust</p>
                            <div style=""width:240px; margin: auto;"">
                                <img src=""images/map12_inferno_scaleDef_orientMir_000.png"" style= ""width:200px""alt=""img"">
                            </div>
                        </div>","-65","","0","","","","images/map12_inferno_scaleDef_orientMir_000.png","disgust","1","12","12","inferno","orientMir","scaleDef","000","",""
"","","","","","html-slider-response","35","14377023","0.0-31.0","o3uzl5rju7","32","NaN","<div style=""width:500px;"">
                            <p style=""font-size:50px; font-weight:bold;""
                            >disgust</p>
                            <div style=""width:240px; margin: auto;"">
                                <img src=""images/map07_bwr_scaleRev_orientDef_270.png"" style= ""width:200px""alt=""img"">
                            </div>
                        </div>","-76","","0","","","","images/map07_bwr_scaleRev_orientDef_270.png","disgust","1","07","07","bwr","orientDef","scaleRev","270","",""
"","","","","","html-slider-response","36","14379364","0.0-32.0","o3uzl5rju7","32","NaN","<div style=""width:500px;"">
                            <p style=""font-size:50px; font-weight:bold;""
                            >disgust</p>
                            <div style=""width:240px; margin: auto;"">
                                <img src=""images/map05_RdBu_scaleDef_orientDef_000.png"" style= ""width:200px""alt=""img"">
                            </div>
                        </div>","64","","0","","","","images/map05_RdBu_scaleDef_orientDef_000.png","disgust","1","05","05","RdBu","orientDef","scaleDef","000","",""
"","","","","","html-slider-response","37","14382596","0.0-33.0","o3uzl5rju7","32","NaN","<div style=""width:500px;"">
                            <p style=""font-size:50px; font-weight:bold;""
                            >disgust</p>
                            <div style=""width:240px; margin: auto;"">
                                <img src=""images/map15_YlOrBr_scaleRev_orientMir_270.png"" style= ""width:200px""alt=""img"">
                            </div>
                        </div>","-72","","0","","","","images/map15_YlOrBr_scaleRev_orientMir_270.png","disgust","1","15","15","YlOrBr","orientMir","scaleRev","270","",""
"","","","","","html-slider-response","38","14385168","0.0-34.0","o3uzl5rju7","32","NaN","<div style=""width:500px;"">
                            <p style=""font-size:50px; font-weight:bold;""
                            >disgust</p>
                            <div style=""width:240px; margin: auto;"">
                                <img src=""images/map07_bwr_scaleDef_orientDef_180.png"" style= ""width:200px""alt=""img"">
                            </div>
                        </div>","-74","","0","","","","images/map07_bwr_scaleDef_orientDef_180.png","disgust","1","07","07","bwr","orientDef","scaleDef","180","",""
"","","","","","html-slider-response","39","14389866","0.0-35.0","o3uzl5rju7","32","NaN","<div style=""width:500px;"">
                            <p style=""font-size:50px; font-weight:bold;""
                            >disgust</p>
                            <div style=""width:240px; margin: auto;"">
                                <img src=""images/map15_Reds_scaleRev_orientMir_090.png"" style= ""width:200px""alt=""img"">
                            </div>
                        </div>","87","","0","","","","images/map15_Reds_scaleRev_orientMir_090.png","disgust","1","15","15","Reds","orientMir","scaleRev","090","",""
"","","","","","html-slider-response","40","14392815","0.0-36.0","o3uzl5rju7","32","NaN","<div style=""width:500px;"">
                            <p style=""font-size:50px; font-weight:bold;""
                            >disgust</p>
                            <div style=""width:240px; margin: auto;"">
                                <img src=""images/map26_YlGnBu_scaleDef_orientMir_180.png"" style= ""width:200px""alt=""img"">
                            </div>
                        </div>","-200","","0","","","","images/map26_YlGnBu_scaleDef_orientMir_180.png","disgust","1","26","26","YlGnBu","orientMir","scaleDef","180","",""
"","","","","","html-slider-response","41","14396164","0.0-37.0","o3uzl5rju7","32","NaN","<div style=""width:500px;"">
                            <p style=""font-size:50px; font-weight:bold;""
                            >disgust</p>
                            <div style=""width:240px; margin: auto;"">
                                <img src=""images/map07_coolwarm_scaleDef_orientDef_000.png"" style= ""width:200px""alt=""img"">
                            </div>
                        </div>","-94","","0","","","","images/map07_coolwarm_scaleDef_orientDef_000.png","disgust","1","07","07","coolwarm","orientDef","scaleDef","000","",""
"","","","","","html-slider-response","42","14398567","0.0-38.0","o3uzl5rju7","32","NaN","<div style=""width:500px;"">
                            <p style=""font-size:50px; font-weight:bold;""
                            >disgust</p>
                            <div style=""width:240px; margin: auto;"">
                                <img src=""images/map26_YlGnBu_scaleRev_orientMir_270.png"" style= ""width:200px""alt=""img"">
                            </div>
                        </div>","-200","","0","","","","images/map26_YlGnBu_scaleRev_orientMir_270.png","disgust","1","26","26","YlGnBu","orientMir","scaleRev","270","",""
"","","","","","html-slider-response","43","14400963","0.0-39.0","o3uzl5rju7","32","NaN","<div style=""width:500px;"">
                            <p style=""font-size:50px; font-weight:bold;""
                            >disgust</p>
                            <div style=""width:240px; margin: auto;"">
                                <img src=""images/map07_coolwarm_scaleRev_orientDef_090.png"" style= ""width:200px""alt=""img"">
                            </div>
                        </div>","200","","0","","","","images/map07_coolwarm_scaleRev_orientDef_090.png","disgust","1","07","07","coolwarm","orientDef","scaleRev","090","",""
"","","","","","html-slider-response","44","14402815","0.0-40.0","o3uzl5rju7","32","NaN","<div style=""width:500px;"">
                            <p style=""font-size:50px; font-weight:bold;""
                            >disgust</p>
                            <div style=""width:240px; margin: auto;"">
                                <img src=""images/map05_RdYlBu_scaleDef_orientDef_180.png"" style= ""width:200px""alt=""img"">
                            </div>
                        </div>","200","","0","","","","images/map05_RdYlBu_scaleDef_orientDef_180.png","disgust","1","05","05","RdYlBu","orientDef","scaleDef","180","",""
"","","","","","html-slider-response","45","14405433","0.0-41.0","o3uzl5rju7","32","NaN","<div style=""width:500px;"">
                            <p style=""font-size:50px; font-weight:bold;""
                            >disgust</p>
                            <div style=""width:240px; margin: auto;"">
                                <img src=""images/map23_RdPu_scaleRev_orientMir_270.png"" style= ""width:200px""alt=""img"">
                            </div>
                        </div>","-117","","0","","","","images/map23_RdPu_scaleRev_orientMir_270.png","disgust","1","23","23","RdPu","orientMir","scaleRev","270","",""
"","","","","","html-slider-response","46","14407296","0.0-42.0","o3uzl5rju7","32","NaN","<div style=""width:500px;"">
                            <p style=""font-size:50px; font-weight:bold;""
                            >disgust</p>
                            <div style=""width:240px; margin: auto;"">
                                <img src=""images/map13_Blues_scaleDef_orientMir_180.png"" style= ""width:200px""alt=""img"">
                            </div>
                        </div>","-200","","0","","","","images/map13_Blues_scaleDef_orientMir_180.png","disgust","1","13","13","Blues","orientMir","scaleDef","180","",""
"","","","","","html-slider-response","47","14409442","0.0-43.0","o3uzl5rju7","32","NaN","<div style=""width:500px;"">
                            <p style=""font-size:50px; font-weight:bold;""
                            >disgust</p>
                            <div style=""width:240px; margin: auto;"">
                                <img src=""images/map26_PuBu_scaleDef_orientMir_000.png"" style= ""width:200px""alt=""img"">
                            </div>
                        </div>","-200","","0","","","","images/map26_PuBu_scaleDef_orientMir_000.png","disgust","1","26","26","PuBu","orientMir","scaleDef","000","",""
"","","","","","html-slider-response","48","14412673","0.0-44.0","o3uzl5rju7","32","NaN","<div style=""width:500px;"">
                            <p style=""font-size:50px; font-weight:bold;""
                            >disgust</p>
                            <div style=""width:240px; margin: auto;"">
                                <img src=""images/map10_vanimo_scaleRev_orientDef_270.png"" style= ""width:200px""alt=""img"">
                            </div>
                        </div>","93","","0","","","","images/map10_vanimo_scaleRev_orientDef_270.png","disgust","1","10","10","vanimo","orientDef","scaleRev","270","",""
"","","","","","html-slider-response","49","14414698","0.0-45.0","o3uzl5rju7","32","NaN","<div style=""width:500px;"">
                            <p style=""font-size:50px; font-weight:bold;""
                            >disgust</p>
                            <div style=""width:240px; margin: auto;"">
                                <img src=""images/map02_PuOr_scaleDef_orientMir_000.png"" style= ""width:200px""alt=""img"">
                            </div>
                        </div>","108","","0","","","","images/map02_PuOr_scaleDef_orientMir_000.png","disgust","1","02","02","PuOr","orientMir","scaleDef","000","",""
"","","","","","html-slider-response","50","14416706","0.0-46.0","o3uzl5rju7","32","NaN","<div style=""width:500px;"">
                            <p style=""font-size:50px; font-weight:bold;""
                            >disgust</p>
                            <div style=""width:240px; margin: auto;"">
                                <img src=""images/map10_turbo_scaleRev_orientMir_270.png"" style= ""width:200px""alt=""img"">
                            </div>
                        </div>","200","","0","","","","images/map10_turbo_scaleRev_orientMir_270.png","disgust","1","10","10","turbo","orientMir","scaleRev","270","",""
"","","","","","html-slider-response","51","14418922","0.0-47.0","o3uzl5rju7","32","NaN","<div style=""width:500px;"">
                            <p style=""font-size:50px; font-weight:bold;""
                            >disgust</p>
                            <div style=""width:240px; margin: auto;"">
                                <img src=""images/map05_RdBu_scaleRev_orientDef_090.png"" style= ""width:200px""alt=""img"">
                            </div>
                        </div>","200","","0","","","","images/map05_RdBu_scaleRev_orientDef_090.png","disgust","1","05","05","RdBu","orientDef","scaleRev","090","",""
"","","","","","html-slider-response","52","14421112","0.0-48.0","o3uzl5rju7","32","NaN","<div style=""width:500px;"">
                            <p style=""font-size:50px; font-weight:bold;""
                            >disgust</p>
                            <div style=""width:240px; margin: auto;"">
                                <img src=""images/map26_GnBu_scaleRev_orientDef_270.png"" style= ""width:200px""alt=""img"">
                            </div>
                        </div>","-200","","0","","","","images/map26_GnBu_scaleRev_orientDef_270.png","disgust","1","26","26","GnBu","orientDef","scaleRev","270","",""
"","","","","","html-slider-response","53","14423546","0.0-49.0","o3uzl5rju7","32","NaN","<div style=""width:500px;"">
                            <p style=""font-size:50px; font-weight:bold;""
                            >disgust</p>
                            <div style=""width:240px; margin: auto;"">
                                <img src=""images/map15_Reds_scaleDef_orientMir_000.png"" style= ""width:200px""alt=""img"">
                            </div>
                        </div>","2","","0","","","","images/map15_Reds_scaleDef_orientMir_000.png","disgust","1","15","15","Reds","orientMir","scaleDef","000","",""
"","","","","","html-slider-response","54","14430697","0.0-50.0","o3uzl5rju7","32","NaN","<div style=""width:500px;"">
                            <p style=""font-size:50px; font-weight:bold;""
                            >disgust</p>
                            <div style=""width:240px; margin: auto;"">
                                <img src=""images/map02_RdGy_scaleDef_orientMir_180.png"" style= ""width:200px""alt=""img"">
                            </div>
                        </div>","107","","0","","","","images/map02_RdGy_scaleDef_orientMir_180.png","disgust","1","02","02","RdGy","orientMir","scaleDef","180","",""
"","","","","","html-slider-response","55","14433057","0.0-51.0","o3uzl5rju7","32","NaN","<div style=""width:500px;"">
                            <p style=""font-size:50px; font-weight:bold;""
                            >disgust</p>
                            <div style=""width:240px; margin: auto;"">
                                <img src=""images/map26_BuPu_scaleDef_orientDef_000.png"" style= ""width:200px""alt=""img"">
                            </div>
                        </div>","-107","","0","","","","images/map26_BuPu_scaleDef_orientDef_000.png","disgust","1","26","26","BuPu","orientDef","scaleDef","000","",""
"","","","","","html-slider-response","56","14434978","0.0-52.0","o3uzl5rju7","32","NaN","<div style=""width:500px;"">
                            <p style=""font-size:50px; font-weight:bold;""
                            >disgust</p>
                            <div style=""width:240px; margin: auto;"">
                                <img src=""images/map12_inferno_scaleRev_orientMir_090.png"" style= ""width:200px""alt=""img"">
                            </div>
                        </div>","-107","","0","","","","images/map12_inferno_scaleRev_orientMir_090.png","disgust","1","12","12","inferno","orientMir","scaleRev","090","",""
"","","","","","html-slider-response","57","14440397","0.0-53.0","o3uzl5rju7","32","NaN","<div style=""width:500px;"">
                            <p style=""font-size:50px; font-weight:bold;""
                            >disgust</p>
                            <div style=""width:240px; margin: auto;"">
                                <img src=""images/map27_YlGn_scaleRev_orientMir_090.png"" style= ""width:200px""alt=""img"">
                            </div>
                        </div>","-108","","0","","","","images/map27_YlGn_scaleRev_orientMir_090.png","disgust","1","27","27","YlGn","orientMir","scaleRev","090","",""
"","","","","","html-button-response","58","14444133","0.0-54.0","o3uzl5rju7","32","3233","<p>You are doing great!<br></br> You are halway done with the current block. When you are ready to continue, click the 'Continue' button.</p>","0","","","","","","","","","","","","","","","",""
"","","","","","html-slider-response","59","14451347","0.0-55.0","o3uzl5rju7","32","NaN","<div style=""width:500px;"">
                            <p style=""font-size:50px; font-weight:bold;""
                            >disgust</p>
                            <div style=""width:240px; margin: auto;"">
                                <img src=""images/map07_berlin_scaleRev_orientMir_270.png"" style= ""width:200px""alt=""img"">
                            </div>
                        </div>","4","","0","","","","images/map07_berlin_scaleRev_orientMir_270.png","disgust","1","07","07","berlin","orientMir","scaleRev","270","",""
"","","","","","html-slider-response","60","14454346","0.0-56.0","o3uzl5rju7","32","NaN","<div style=""width:500px;"">
                            <p style=""font-size:50px; font-weight:bold;""
                            >disgust</p>
                            <div style=""width:240px; margin: auto;"">
                                <img src=""images/map26_PuBu_scaleRev_orientMir_090.png"" style= ""width:200px""alt=""img"">
                            </div>
                        </div>","-200","","0","","","","images/map26_PuBu_scaleRev_orientMir_090.png","disgust","1","26","26","PuBu","orientMir","scaleRev","090","",""
"","","","","","html-slider-response","61","14458066","0.0-57.0","o3uzl5rju7","32","NaN","<div style=""width:500px;"">
                            <p style=""font-size:50px; font-weight:bold;""
                            >disgust</p>
                            <div style=""width:240px; margin: auto;"">
                                <img src=""images/map13_cividis_scaleRev_orientDef_090.png"" style= ""width:200px""alt=""img"">
                            </div>
                        </div>","-95","","0","","","","images/map13_cividis_scaleRev_orientDef_090.png","disgust","1","13","13","cividis","orientDef","scaleRev","090","",""
"","","","","","html-slider-response","62","14459687","0.0-58.0","o3uzl5rju7","32","NaN","<div style=""width:500px;"">
                            <p style=""font-size:50px; font-weight:bold;""
                            >disgust</p>
                            <div style=""width:240px; margin: auto;"">
                                <img src=""images/map05_RdYlGn_scaleDef_orientMir_000.png"" style= ""width:200px""alt=""img"">
                            </div>
                        </div>","94","","0","","","","images/map05_RdYlGn_scaleDef_orientMir_000.png","disgust","1","05","05","RdYlGn","orientMir","scaleDef","000","",""
"","","","","","html-slider-response","63","14461266","0.0-59.0","o3uzl5rju7","32","NaN","<div style=""width:500px;"">
                            <p style=""font-size:50px; font-weight:bold;""
                            >disgust</p>
                            <div style=""width:240px; margin: auto;"">
                                <img src=""images/map13_Purples_scaleRev_orientMir_090.png"" style= ""width:200px""alt=""img"">
                            </div>
                        </div>","-99","","0","","","","images/map13_Purples_scaleRev_orientMir_090.png","disgust","1","13","13","Purples","orientMir","scaleRev","090","",""
"","","","","","html-slider-response","64","14463008","0.0-60.0","o3uzl5rju7","32","NaN","<div style=""width:500px;"">
                            <p style=""font-size:50px; font-weight:bold;""
                            >disgust</p>
                            <div style=""width:240px; margin: auto;"">
                                <img src=""images/map23_OrRd_scaleRev_orientDef_270.png"" style= ""width:200px""alt=""img"">
                            </div>
                        </div>","-109","","0","","","","images/map23_OrRd_scaleRev_orientDef_270.png","disgust","1","23","23","OrRd","orientDef","scaleRev","270","",""
"","","","","","html-slider-response","65","14465237","0.0-61.0","o3uzl5rju7","32","NaN","<div style=""width:500px;"">
                            <p style=""font-size:50px; font-weight:bold;""
                            >disgust</p>
                            <div style=""width:240px; margin: auto;"">
                                <img src=""images/map12_magma_scaleRev_orientMir_270.png"" style= ""width:200px""alt=""img"">
                            </div>
                        </div>","-92","","0","","","","images/map12_magma_scaleRev_orientMir_270.png","disgust","1","12","12","magma","orientMir","scaleRev","270","",""
"","","","","","html-slider-response","66","14468863","0.0-62.0","o3uzl5rju7","32","NaN","<div style=""width:500px;"">
                            <p style=""font-size:50px; font-weight:bold;""
                            >disgust</p>
                            <div style=""width:240px; margin: auto;"">
                                <img src=""images/map26_GnBu_scaleDef_orientDef_180.png"" style= ""width:200px""alt=""img"">
                            </div>
                        </div>","-195","","0","","","","images/map26_GnBu_scaleDef_orientDef_180.png","disgust","1","26","26","GnBu","orientDef","scaleDef","180","",""
"","","","","","html-slider-response","67","14471208","0.0-63.0","o3uzl5rju7","32","NaN","<div style=""width:500px;"">
                            <p style=""font-size:50px; font-weight:bold;""
                            >disgust</p>
                            <div style=""width:240px; margin: auto;"">
                                <img src=""images/map10_gist_earth_scaleDef_orientMir_000.png"" style= ""width:200px""alt=""img"">
                            </div>
                        </div>","173","","0","","","","images/map10_gist_earth_scaleDef_orientMir_000.png","disgust","1","10","10","gist","scaleDef","earth","orientMir","",""
"","","","","","html-slider-response","68","14473563","0.0-64.0","o3uzl5rju7","32","NaN","<div style=""width:500px;"">
                            <p style=""font-size:50px; font-weight:bold;""
                            >disgust</p>
                            <div style=""width:240px; margin: auto;"">
                                <img src=""images/map12_magma_scaleDef_orientMir_180.png"" style= ""width:200px""alt=""img"">
                            </div>
                        </div>","-106","","0","","","","images/map12_magma_scaleDef_orientMir_180.png","disgust","1","12","12","magma","orientMir","scaleDef","180","",""
"","","","","","html-slider-response","69","14475178","0.0-65.0","o3uzl5rju7","32","NaN","<div style=""width:500px;"">
                            <p style=""font-size:50px; font-weight:bold;""
                            >disgust</p>
                            <div style=""width:240px; margin: auto;"">
                                <img src=""images/map02_RdGy_scaleRev_orientMir_270.png"" style= ""width:200px""alt=""img"">
                            </div>
                        </div>","110","","0","","","","images/map02_RdGy_scaleRev_orientMir_270.png","disgust","1","02","02","RdGy","orientMir","scaleRev","270","",""
"","","","","","html-slider-response","70","14477350","0.0-66.0","o3uzl5rju7","32","NaN","<div style=""width:500px;"">
                            <p style=""font-size:50px; font-weight:bold;""
                            >disgust</p>
                            <div style=""width:240px; margin: auto;"">
                                <img src=""images/map27_PuBuGn_scaleDef_orientDef_000.png"" style= ""width:200px""alt=""img"">
                            </div>
                        </div>","-193","","0","","","","images/map27_PuBuGn_scaleDef_orientDef_000.png","disgust","1","27","27","PuBuGn","orientDef","scaleDef","000","",""
"","","","","","html-slider-response","71","14479071","0.0-67.0","o3uzl5rju7","32","NaN","<div style=""width:500px;"">
                            <p style=""font-size:50px; font-weight:bold;""
                            >disgust</p>
                            <div style=""width:240px; margin: auto;"">
                                <img src=""images/map12_viridis_scaleDef_orientDef_000.png"" style= ""width:200px""alt=""img"">
                            </div>
                        </div>","114","","0","","","","images/map12_viridis_scaleDef_orientDef_000.png","disgust","1","12","12","viridis","orientDef","scaleDef","000","",""
"","","","","","html-slider-response","72","14480608","0.0-68.0","o3uzl5rju7","32","NaN","<div style=""width:500px;"">
                            <p style=""font-size:50px; font-weight:bold;""
                            >disgust</p>
                            <div style=""width:240px; margin: auto;"">
                                <img src=""images/map15_Greens_scaleDef_orientDef_000.png"" style= ""width:200px""alt=""img"">
                            </div>
                        </div>","105","","0","","","","images/map15_Greens_scaleDef_orientDef_000.png","disgust","1","15","15","Greens","orientDef","scaleDef","000","",""
"","","","","","html-slider-response","73","14482106","0.0-69.0","o3uzl5rju7","32","NaN","<div style=""width:500px;"">
                            <p style=""font-size:50px; font-weight:bold;""
                            >disgust</p>
                            <div style=""width:240px; margin: auto;"">
                                <img src=""images/map12_viridis_scaleRev_orientDef_090.png"" style= ""width:200px""alt=""img"">
                            </div>
                        </div>","89","","0","","","","images/map12_viridis_scaleRev_orientDef_090.png","disgust","1","12","12","viridis","orientDef","scaleRev","090","",""
"","","","","","html-slider-response","74","14484612","0.0-70.0","o3uzl5rju7","32","NaN","<div style=""width:500px;"">
                            <p style=""font-size:50px; font-weight:bold;""
                            >disgust</p>
                            <div style=""width:240px; margin: auto;"">
                                <img src=""images/map23_YlOrRd_scaleDef_orientDef_000.png"" style= ""width:200px""alt=""img"">
                            </div>
                        </div>","-102","","0","","","","images/map23_YlOrRd_scaleDef_orientDef_000.png","disgust","1","23","23","YlOrRd","orientDef","scaleDef","000","",""
"","","","","","html-slider-response","75","14487536","0.0-71.0","o3uzl5rju7","32","NaN","<div style=""width:500px;"">
                            <p style=""font-size:50px; font-weight:bold;""
                            >disgust</p>
                            <div style=""width:240px; margin: auto;"">
                                <img src=""images/map15_Oranges_scaleRev_orientDef_270.png"" style= ""width:200px""alt=""img"">
                            </div>
                        </div>","36","","0","","","","images/map15_Oranges_scaleRev_orientDef_270.png","disgust","1","15","15","Oranges","orientDef","scaleRev","270","",""
"","","","","","html-slider-response","76","14489655","0.0-72.0","o3uzl5rju7","32","NaN","<div style=""width:500px;"">
                            <p style=""font-size:50px; font-weight:bold;""
                            >disgust</p>
                            <div style=""width:240px; margin: auto;"">
                                <img src=""images/map05_RdYlGn_scaleRev_orientMir_090.png"" style= ""width:200px""alt=""img"">
                            </div>
                        </div>","159","","0","","","","images/map05_RdYlGn_scaleRev_orientMir_090.png","disgust","1","05","05","RdYlGn","orientMir","scaleRev","090","",""
"","","","","","html-slider-response","77","14491422","0.0-73.0","o3uzl5rju7","32","NaN","<div style=""width:500px;"">
                            <p style=""font-size:50px; font-weight:bold;""
                            >disgust</p>
                            <div style=""width:240px; margin: auto;"">
                                <img src=""images/map02_BrBG_scaleRev_orientDef_270.png"" style= ""width:200px""alt=""img"">
                            </div>
                        </div>","197","","0","","","","images/map02_BrBG_scaleRev_orientDef_270.png","disgust","1","02","02","BrBG","orientDef","scaleRev","270","",""
"","","","","","html-slider-response","78","14493212","0.0-74.0","o3uzl5rju7","32","NaN","<div style=""width:500px;"">
                            <p style=""font-size:50px; font-weight:bold;""
                            >disgust</p>
                            <div style=""width:240px; margin: auto;"">
                                <img src=""images/map10_managua_scaleDef_orientDef_000.png"" style= ""width:200px""alt=""img"">
                            </div>
                        </div>","195","","0","","","","images/map10_managua_scaleDef_orientDef_000.png","disgust","1","10","10","managua","orientDef","scaleDef","000","",""
"","","","","","html-slider-response","79","14495095","0.0-75.0","o3uzl5rju7","32","NaN","<div style=""width:500px;"">
                            <p style=""font-size:50px; font-weight:bold;""
                            >disgust</p>
                            <div style=""width:240px; margin: auto;"">
                                <img src=""images/map05_Spectral_scaleRev_orientMir_270.png"" style= ""width:200px""alt=""img"">
                            </div>
                        </div>","171","","0","","","","images/map05_Spectral_scaleRev_orientMir_270.png","disgust","1","05","05","Spectral","orientMir","scaleRev","270","",""
"","","","","","html-slider-response","80","14496726","0.0-76.0","o3uzl5rju7","32","NaN","<div style=""width:500px;"">
                            <p style=""font-size:50px; font-weight:bold;""
                            >disgust</p>
                            <div style=""width:240px; margin: auto;"">
                                <img src=""images/map02_PRGn_scaleRev_orientDef_090.png"" style= ""width:200px""alt=""img"">
                            </div>
                        </div>","181","","0","","","","images/map02_PRGn_scaleRev_orientDef_090.png","disgust","1","02","02","PRGn","orientDef","scaleRev","090","",""
"","","","","","html-slider-response","81","14498349","0.0-77.0","o3uzl5rju7","32","NaN","<div style=""width:500px;"">
                            <p style=""font-size:50px; font-weight:bold;""
                            >disgust</p>
                            <div style=""width:240px; margin: auto;"">
                                <img src=""images/map10_turbo_scaleDef_orientMir_180.png"" style= ""width:200px""alt=""img"">
                            </div>
                        </div>","100","","0","","","","images/map10_turbo_scaleDef_orientMir_180.png","disgust","1","10","10","turbo","orientMir","scaleDef","180","",""
"","","","","","html-slider-response","82","14501168","0.0-78.0","o3uzl5rju7","32","NaN","<div style=""width:500px;"">
                            <p style=""font-size:50px; font-weight:bold;""
                            >disgust</p>
                            <div style=""width:240px; margin: auto;"">
                                <img src=""images/map15_Greens_scaleRev_orientDef_090.png"" style= ""width:200px""alt=""img"">
                            </div>
                        </div>","-43","","0","","","","images/map15_Greens_scaleRev_orientDef_090.png","disgust","1","15","15","Greens","orientDef","scaleRev","090","",""
"","","","","","html-slider-response","83","14502945","0.0-79.0","o3uzl5rju7","32","NaN","<div style=""width:500px;"">
                            <p style=""font-size:50px; font-weight:bold;""
                            >disgust</p>
                            <div style=""width:240px; margin: auto;"">
                                <img src=""images/map13_Greys_scaleDef_orientDef_180.png"" style= ""width:200px""alt=""img"">
                            </div>
                        </div>","-46","","0","","","","images/map13_Greys_scaleDef_orientDef_180.png","disgust","1","13","13","Greys","orientDef","scaleDef","180","",""
"","","","","","html-slider-response","84","14506984","0.0-80.0","o3uzl5rju7","32","NaN","<div style=""width:500px;"">
                            <p style=""font-size:50px; font-weight:bold;""
                            >disgust</p>
                            <div style=""width:240px; margin: auto;"">
                                <img src=""images/map10_managua_scaleRev_orientDef_090.png"" style= ""width:200px""alt=""img"">
                            </div>
                        </div>","80","","0","","","","images/map10_managua_scaleRev_orientDef_090.png","disgust","1","10","10","managua","orientDef","scaleRev","090","",""
"","","","","","html-slider-response","85","14508774","0.0-81.0","o3uzl5rju7","32","NaN","<div style=""width:500px;"">
                            <p style=""font-size:50px; font-weight:bold;""
                            >disgust</p>
                            <div style=""width:240px; margin: auto;"">
                                <img src=""images/map02_PRGn_scaleDef_orientDef_000.png"" style= ""width:200px""alt=""img"">
                            </div>
                        </div>","146","","0","","","","images/map02_PRGn_scaleDef_orientDef_000.png","disgust","1","02","02","PRGn","orientDef","scaleDef","000","",""
"","","","","","html-slider-response","86","14510612","0.0-82.0","o3uzl5rju7","32","NaN","<div style=""width:500px;"">
                            <p style=""font-size:50px; font-weight:bold;""
                            >disgust</p>
                            <div style=""width:240px; margin: auto;"">
                                <img src=""images/map02_PuOr_scaleRev_orientMir_090.png"" style= ""width:200px""alt=""img"">
                            </div>
                        </div>","166","","0","","","","images/map02_PuOr_scaleRev_orientMir_090.png","disgust","1","02","02","PuOr","orientMir","scaleRev","090","",""
"","","","","","html-slider-response","87","14512540","0.0-83.0","o3uzl5rju7","32","NaN","<div style=""width:500px;"">
                            <p style=""font-size:50px; font-weight:bold;""
                            >disgust</p>
                            <div style=""width:240px; margin: auto;"">
                                <img src=""images/map23_OrRd_scaleDef_orientDef_180.png"" style= ""width:200px""alt=""img"">
                            </div>
                        </div>","-91","","0","","","","images/map23_OrRd_scaleDef_orientDef_180.png","disgust","1","23","23","OrRd","orientDef","scaleDef","180","",""
"","","","","","html-slider-response","88","14516154","0.0-84.0","o3uzl5rju7","32","NaN","<div style=""width:500px;"">
                            <p style=""font-size:50px; font-weight:bold;""
                            >disgust</p>
                            <div style=""width:240px; margin: auto;"">
                                <img src=""images/map27_YlGn_scaleDef_orientMir_000.png"" style= ""width:200px""alt=""img"">
                            </div>
                        </div>","102","","0","","","","images/map27_YlGn_scaleDef_orientMir_000.png","disgust","1","27","27","YlGn","orientMir","scaleDef","000","",""
"","","","","","html-slider-response","89","14517824","0.0-85.0","o3uzl5rju7","32","NaN","<div style=""width:500px;"">
                            <p style=""font-size:50px; font-weight:bold;""
                            >disgust</p>
                            <div style=""width:240px; margin: auto;"">
                                <img src=""images/map27_PiYG_scaleDef_orientMir_180.png"" style= ""width:200px""alt=""img"">
                            </div>
                        </div>","151","","0","","","","images/map27_PiYG_scaleDef_orientMir_180.png","disgust","1","27","27","PiYG","orientMir","scaleDef","180","",""
"","","","","","html-slider-response","90","14520386","0.0-86.0","o3uzl5rju7","32","NaN","<div style=""width:500px;"">
                            <p style=""font-size:50px; font-weight:bold;""
                            >disgust</p>
                            <div style=""width:240px; margin: auto;"">
                                <img src=""images/map07_seismic_scaleDef_orientMir_000.png"" style= ""width:200px""alt=""img"">
                            </div>
                        </div>","79","","0","","","","images/map07_seismic_scaleDef_orientMir_000.png","disgust","1","07","07","seismic","orientMir","scaleDef","000","",""
"","","","","","html-slider-response","91","14521854","0.0-87.0","o3uzl5rju7","32","NaN","<div style=""width:500px;"">
                            <p style=""font-size:50px; font-weight:bold;""
                            >disgust</p>
                            <div style=""width:240px; margin: auto;"">
                                <img src=""images/map07_seismic_scaleRev_orientMir_090.png"" style= ""width:200px""alt=""img"">
                            </div>
                        </div>","69","","0","","","","images/map07_seismic_scaleRev_orientMir_090.png","disgust","1","07","07","seismic","orientMir","scaleRev","090","",""
"","","","","","html-slider-response","92","14523594","0.0-88.0","o3uzl5rju7","32","NaN","<div style=""width:500px;"">
                            <p style=""font-size:50px; font-weight:bold;""
                            >disgust</p>
                            <div style=""width:240px; margin: auto;"">
                                <img src=""images/map05_Spectral_scaleDef_orientMir_180.png"" style= ""width:200px""alt=""img"">
                            </div>
                        </div>","152","","0","","","","images/map05_Spectral_scaleDef_orientMir_180.png","disgust","1","05","05","Spectral","orientMir","scaleDef","180","",""
"","","","","","html-slider-response","93","14527445","0.0-89.0","o3uzl5rju7","32","NaN","<div style=""width:500px;"">
                            <p style=""font-size:50px; font-weight:bold;""
                            >disgust</p>
                            <div style=""width:240px; margin: auto;"">
                                <img src=""images/map15_YlOrBr_scaleDef_orientMir_180.png"" style= ""width:200px""alt=""img"">
                            </div>
                        </div>","-46","","0","","","","images/map15_YlOrBr_scaleDef_orientMir_180.png","disgust","1","15","15","YlOrBr","orientMir","scaleDef","180","",""
"","","","","","html-slider-response","94","14529812","0.0-90.0","o3uzl5rju7","32","NaN","<div style=""width:500px;"">
                            <p style=""font-size:50px; font-weight:bold;""
                            >disgust</p>
                            <div style=""width:240px; margin: auto;"">
                                <img src=""images/map13_Blues_scaleRev_orientMir_270.png"" style= ""width:200px""alt=""img"">
                            </div>
                        </div>","-192","","0","","","","images/map13_Blues_scaleRev_orientMir_270.png","disgust","1","13","13","Blues","orientMir","scaleRev","270","",""
"","","","","","html-slider-response","95","14533594","0.0-91.0","o3uzl5rju7","32","NaN","<div style=""width:500px;"">
                            <p style=""font-size:50px; font-weight:bold;""
                            >disgust</p>
                            <div style=""width:240px; margin: auto;"">
                                <img src=""images/map23_PuRd_scaleRev_orientMir_090.png"" style= ""width:200px""alt=""img"">
                            </div>
                        </div>","-122","","0","","","","images/map23_PuRd_scaleRev_orientMir_090.png","disgust","1","23","23","PuRd","orientMir","scaleRev","090","",""
"","","","","","html-slider-response","96","14535829","0.0-92.0","o3uzl5rju7","32","NaN","<div style=""width:500px;"">
                            <p style=""font-size:50px; font-weight:bold;""
                            >disgust</p>
                            <div style=""width:240px; margin: auto;"">
                                <img src=""images/map02_BrBG_scaleDef_orientDef_180.png"" style= ""width:200px""alt=""img"">
                            </div>
                        </div>","172","","0","","","","images/map02_BrBG_scaleDef_orientDef_180.png","disgust","1","02","02","BrBG","orientDef","scaleDef","180","",""
"","","","","","html-slider-response","97","14537653","0.0-93.0","o3uzl5rju7","32","NaN","<div style=""width:500px;"">
                            <p style=""font-size:50px; font-weight:bold;""
                            >disgust</p>
                            <div style=""width:240px; margin: auto;"">
                                <img src=""images/map26_BuPu_scaleRev_orientDef_090.png"" style= ""width:200px""alt=""img"">
                            </div>
                        </div>","-106","","0","","","","images/map26_BuPu_scaleRev_orientDef_090.png","disgust","1","26","26","BuPu","orientDef","scaleRev","090","",""
"","","","","","html-slider-response","98","14539516","0.0-94.0","o3uzl5rju7","32","NaN","<div style=""width:500px;"">
                            <p style=""font-size:50px; font-weight:bold;""
                            >disgust</p>
                            <div style=""width:240px; margin: auto;"">
                                <img src=""images/map12_plasma_scaleRev_orientDef_270.png"" style= ""width:200px""alt=""img"">
                            </div>
                        </div>","50","","0","","","","images/map12_plasma_scaleRev_orientDef_270.png","disgust","1","12","12","plasma","orientDef","scaleRev","270","",""
"","","","","","html-button-response","99","14541498","0.0-95.0","o3uzl5rju7","32","1466","<p>Great Job! You've finished block 1.<br></br> You have 4 block(s) left to go.<br></br></p>","0","","","","","","","","","","","","","","","",""
"","","","","","html-button-response","100","14542699","0.0-96.0","o3uzl5rju7","32","1200","<p>In this block of trials, you will be asked to rate how much you associate each map with:</p > <p style = 'font-size:150%; font-weight: bold'>sad</p><br></br>","0","","","","","","","","","","","","","","","",""
"","","","","","html-slider-response","101","14544603","0.0-97.0","o3uzl5rju7","32","NaN","<div style=""width:500px;"">
                            <p style=""font-size:50px; font-weight:bold;""
                            >sad</p>
                            <div style=""width:240px; margin: auto;"">
                                <img src=""images/map07_berlin_scaleDef_orientMir_180.png"" style= ""width:200px""alt=""img"">
                            </div>
                        </div>","142","","0","","","","images/map07_berlin_scaleDef_orientMir_180.png","sad","1","07","07","berlin","orientMir","scaleDef","180","",""
"","","","","","html-slider-response","102","14546429","0.0-98.0","o3uzl5rju7","32","NaN","<div style=""width:500px;"">
                            <p style=""font-size:50px; font-weight:bold;""
                            >sad</p>
                            <div style=""width:240px; margin: auto;"">
                                <img src=""images/map12_inferno_scaleRev_orientMir_090.png"" style= ""width:200px""alt=""img"">
                            </div>
                        </div>","-100","","0","","","","images/map12_inferno_scaleRev_orientMir_090.png","sad","1","12","12","inferno","orientMir","scaleRev","090","",""
"","","","","","html-slider-response","103","14548116","0.0-99.0","o3uzl5rju7","32","NaN","<div style=""width:500px;"">
                            <p style=""font-size:50px; font-weight:bold;""
                            >sad</p>
                            <div style=""width:240px; margin: auto;"">
                                <img src=""images/map02_RdGy_scaleDef_orientMir_180.png"" style= ""width:200px""alt=""img"">
                            </div>
                        </div>","54","","0","","","","images/map02_RdGy_scaleDef_orientMir_180.png","sad","1","02","02","RdGy","orientMir","scaleDef","180","",""
"","","","","","html-slider-response","104","14549947","0.0-100.0","o3uzl5rju7","32","NaN","<div style=""width:500px;"">
                            <p style=""font-size:50px; font-weight:bold;""
                            >sad</p>
                            <div style=""width:240px; margin: auto;"">
                                <img src=""images/map15_Oranges_scaleDef_orientDef_180.png"" style= ""width:200px""alt=""img"">
                            </div>
                        </div>","-59","","0","","","","images/map15_Oranges_scaleDef_orientDef_180.png","sad","1","15","15","Oranges","orientDef","scaleDef","180","",""
"","","","","","html-slider-response","105","14551791","0.0-101.0","o3uzl5rju7","32","NaN","<div style=""width:500px;"">
                            <p style=""font-size:50px; font-weight:bold;""
                            >sad</p>
                            <div style=""width:240px; margin: auto;"">
                                <img src=""images/map02_BrBG_scaleDef_orientDef_180.png"" style= ""width:200px""alt=""img"">
                            </div>
                        </div>","87","","0","","","","images/map02_BrBG_scaleDef_orientDef_180.png","sad","1","02","02","BrBG","orientDef","scaleDef","180","",""
"","","","","","html-slider-response","106","14554628","0.0-102.0","o3uzl5rju7","32","NaN","<div style=""width:500px;"">
                            <p style=""font-size:50px; font-weight:bold;""
                            >sad</p>
                            <div style=""width:240px; margin: auto;"">
                                <img src=""images/map07_bwr_scaleRev_orientDef_270.png"" style= ""width:200px""alt=""img"">
                            </div>
                        </div>","-114","","0","","","","images/map07_bwr_scaleRev_orientDef_270.png","sad","1","07","07","bwr","orientDef","scaleRev","270","",""
"","","","","","html-slider-response","107","14556149","0.0-103.0","o3uzl5rju7","32","NaN","<div style=""width:500px;"">
                            <p style=""font-size:50px; font-weight:bold;""
                            >sad</p>
                            <div style=""width:240px; margin: auto;"">
                                <img src=""images/map23_YlOrRd_scaleRev_orientDef_090.png"" style= ""width:200px""alt=""img"">
                            </div>
                        </div>","-111","","0","","","","images/map23_YlOrRd_scaleRev_orientDef_090.png","sad","1","23","23","YlOrRd","orientDef","scaleRev","090","",""
"","","","","","html-slider-response","108","14558164","0.0-104.0","o3uzl5rju7","32","NaN","<div style=""width:500px;"">
                            <p style=""font-size:50px; font-weight:bold;""
                            >sad</p>
                            <div style=""width:240px; margin: auto;"">
                                <img src=""images/map02_RdGy_scaleRev_orientMir_270.png"" style= ""width:200px""alt=""img"">
                            </div>
                        </div>","-108","","0","","","","images/map02_RdGy_scaleRev_orientMir_270.png","sad","1","02","02","RdGy","orientMir","scaleRev","270","",""
"","","","","","html-slider-response","109","14559610","0.0-105.0","o3uzl5rju7","32","NaN","<div style=""width:500px;"">
                            <p style=""font-size:50px; font-weight:bold;""
                            >sad</p>
                            <div style=""width:240px; margin: auto;"">
                                <img src=""images/map12_plasma_scaleDef_orientDef_180.png"" style= ""width:200px""alt=""img"">
                            </div>
                        </div>","-108","","0","","","","images/map12_plasma_scaleDef_orientDef_180.png","sad","1","12","12","plasma","orientDef","scaleDef","180","",""
"","","","","","html-slider-response","110","14561508","0.0-106.0","o3uzl5rju7","32","NaN","<div style=""width:500px;"">
                            <p style=""font-size:50px; font-weight:bold;""
                            >sad</p>
                            <div style=""width:240px; margin: auto;"">
                                <img src=""images/map05_RdBu_scaleRev_orientDef_090.png"" style= ""width:200px""alt=""img"">
                            </div>
                        </div>","94","","0","","","","images/map05_RdBu_scaleRev_orientDef_090.png","sad","1","05","05","RdBu","orientDef","scaleRev","090","",""
"","","","","","html-slider-response","111","14563996","0.0-107.0","o3uzl5rju7","32","NaN","<div style=""width:500px;"">
                            <p style=""font-size:50px; font-weight:bold;""
                            >sad</p>
                            <div style=""width:240px; margin: auto;"">
                                <img src=""images/map13_Purples_scaleRev_orientMir_090.png"" style= ""width:200px""alt=""img"">
                            </div>
                        </div>","95","","0","","","","images/map13_Purples_scaleRev_orientMir_090.png","sad","1","13","13","Purples","orientMir","scaleRev","090","",""
"","","","","","html-slider-response","112","14565795","0.0-108.0","o3uzl5rju7","32","NaN","<div style=""width:500px;"">
                            <p style=""font-size:50px; font-weight:bold;""
                            >sad</p>
                            <div style=""width:240px; margin: auto;"">
                                <img src=""images/map07_seismic_scaleDef_orientMir_000.png"" style= ""width:200px""alt=""img"">
                            </div>
                        </div>","-125","","0","","","","images/map07_seismic_scaleDef_orientMir_000.png","sad","1","07","07","seismic","orientMir","scaleDef","000","",""
"","","","","","html-slider-response","113","14566969","0.0-109.0","o3uzl5rju7","32","NaN","<div style=""width:500px;"">
                            <p style=""font-size:50px; font-weight:bold;""
                            >sad</p>
                            <div style=""width:240px; margin: auto;"">
                                <img src=""images/map15_YlOrBr_scaleDef_orientMir_180.png"" style= ""width:200px""alt=""img"">
                            </div>
                        </div>","-125","","0","","","","images/map15_YlOrBr_scaleDef_orientMir_180.png","sad","1","15","15","YlOrBr","orientMir","scaleDef","180","",""
"","","","","","html-slider-response","114","14568718","0.0-110.0","o3uzl5rju7","32","NaN","<div style=""width:500px;"">
                            <p style=""font-size:50px; font-weight:bold;""
                            >sad</p>
                            <div style=""width:240px; margin: auto;"">
                                <img src=""images/map10_gist_earth_scaleRev_orientMir_090.png"" style= ""width:200px""alt=""img"">
                            </div>
                        </div>","29","","0","","","","images/map10_gist_earth_scaleRev_orientMir_090.png","sad","1","10","10","gist","scaleRev","earth","orientMir","",""
"","","","","","html-slider-response","115","14570404","0.0-111.0","o3uzl5rju7","32","NaN","<div style=""width:500px;"">
                            <p style=""font-size:50px; font-weight:bold;""
                            >sad</p>
                            <div style=""width:240px; margin: auto;"">
                                <img src=""images/map12_viridis_scaleDef_orientDef_000.png"" style= ""width:200px""alt=""img"">
                            </div>
                        </div>","-18","","0","","","","images/map12_viridis_scaleDef_orientDef_000.png","sad","1","12","12","viridis","orientDef","scaleDef","000","",""
"","","","","","html-slider-response","116","14572973","0.0-112.0","o3uzl5rju7","32","NaN","<div style=""width:500px;"">
                            <p style=""font-size:50px; font-weight:bold;""
                            >sad</p>
                            <div style=""width:240px; margin: auto;"">
                                <img src=""images/map13_Blues_scaleDef_orientMir_180.png"" style= ""width:200px""alt=""img"">
                            </div>
                        </div>","89","","0","","","","images/map13_Blues_scaleDef_orientMir_180.png","sad","1","13","13","Blues","orientMir","scaleDef","180","",""
"","","","","","html-slider-response","117","14577242","0.0-113.0","o3uzl5rju7","32","NaN","<div style=""width:500px;"">
                            <p style=""font-size:50px; font-weight:bold;""
                            >sad</p>
                            <div style=""width:240px; margin: auto;"">
                                <img src=""images/map02_PuOr_scaleRev_orientMir_090.png"" style= ""width:200px""alt=""img"">
                            </div>
                        </div>","75","","0","","","","images/map02_PuOr_scaleRev_orientMir_090.png","sad","1","02","02","PuOr","orientMir","scaleRev","090","",""
"","","","","","html-slider-response","118","14580248","0.0-114.0","o3uzl5rju7","32","NaN","<div style=""width:500px;"">
                            <p style=""font-size:50px; font-weight:bold;""
                            >sad</p>
                            <div style=""width:240px; margin: auto;"">
                                <img src=""images/map07_coolwarm_scaleDef_orientDef_000.png"" style= ""width:200px""alt=""img"">
                            </div>
                        </div>","-100","","0","","","","images/map07_coolwarm_scaleDef_orientDef_000.png","sad","1","07","07","coolwarm","orientDef","scaleDef","000","",""
"","","","","","html-slider-response","119","14582601","0.0-115.0","o3uzl5rju7","32","NaN","<div style=""width:500px;"">
                            <p style=""font-size:50px; font-weight:bold;""
                            >sad</p>
                            <div style=""width:240px; margin: auto;"">
                                <img src=""images/map10_gist_earth_scaleDef_orientMir_000.png"" style= ""width:200px""alt=""img"">
                            </div>
                        </div>","-100","","0","","","","images/map10_gist_earth_scaleDef_orientMir_000.png","sad","1","10","10","gist","scaleDef","earth","orientMir","",""
"","","","","","html-slider-response","120","14586519","0.0-116.0","o3uzl5rju7","32","NaN","<div style=""width:500px;"">
                            <p style=""font-size:50px; font-weight:bold;""
                            >sad</p>
                            <div style=""width:240px; margin: auto;"">
                                <img src=""images/map10_managua_scaleDef_orientDef_000.png"" style= ""width:200px""alt=""img"">
                            </div>
                        </div>","-72","","0","","","","images/map10_managua_scaleDef_orientDef_000.png","sad","1","10","10","managua","orientDef","scaleDef","000","",""
"","","","","","html-slider-response","121","14588433","0.0-117.0","o3uzl5rju7","32","NaN","<div style=""width:500px;"">
                            <p style=""font-size:50px; font-weight:bold;""
                            >sad</p>
                            <div style=""width:240px; margin: auto;"">
                                <img src=""images/map10_vanimo_scaleDef_orientDef_180.png"" style= ""width:200px""alt=""img"">
                            </div>
                        </div>","-95","","0","","","","images/map10_vanimo_scaleDef_orientDef_180.png","sad","1","10","10","vanimo","orientDef","scaleDef","180","",""
"","","","","","html-slider-response","122","14590194","0.0-118.0","o3uzl5rju7","32","NaN","<div style=""width:500px;"">
                            <p style=""font-size:50px; font-weight:bold;""
                            >sad</p>
                            <div style=""width:240px; margin: auto;"">
                                <img src=""images/map26_PuBu_scaleDef_orientMir_000.png"" style= ""width:200px""alt=""img"">
                            </div>
                        </div>","101","","0","","","","images/map26_PuBu_scaleDef_orientMir_000.png","sad","1","26","26","PuBu","orientMir","scaleDef","000","",""
"","","","","","html-slider-response","123","14591542","0.0-119.0","o3uzl5rju7","32","NaN","<div style=""width:500px;"">
                            <p style=""font-size:50px; font-weight:bold;""
                            >sad</p>
                            <div style=""width:240px; margin: auto;"">
                                <img src=""images/map10_vanimo_scaleRev_orientDef_270.png"" style= ""width:200px""alt=""img"">
                            </div>
                        </div>","-98","","0","","","","images/map10_vanimo_scaleRev_orientDef_270.png","sad","1","10","10","vanimo","orientDef","scaleRev","270","",""
"","","","","","html-slider-response","124","14593162","0.0-120.0","o3uzl5rju7","32","NaN","<div style=""width:500px;"">
                            <p style=""font-size:50px; font-weight:bold;""
                            >sad</p>
                            <div style=""width:240px; margin: auto;"">
                                <img src=""images/map07_coolwarm_scaleRev_orientDef_090.png"" style= ""width:200px""alt=""img"">
                            </div>
                        </div>","-98","","0","","","","images/map07_coolwarm_scaleRev_orientDef_090.png","sad","1","07","07","coolwarm","orientDef","scaleRev","090","",""
"","","","","","html-slider-response","125","14594707","0.0-121.0","o3uzl5rju7","32","NaN","<div style=""width:500px;"">
                            <p style=""font-size:50px; font-weight:bold;""
                            >sad</p>
                            <div style=""width:240px; margin: auto;"">
                                <img src=""images/map12_plasma_scaleRev_orientDef_270.png"" style= ""width:200px""alt=""img"">
                            </div>
                        </div>","-98","","0","","","","images/map12_plasma_scaleRev_orientDef_270.png","sad","1","12","12","plasma","orientDef","scaleRev","270","",""
"","","","","","html-slider-response","126","14596383","0.0-122.0","o3uzl5rju7","32","NaN","<div style=""width:500px;"">
                            <p style=""font-size:50px; font-weight:bold;""
                            >sad</p>
                            <div style=""width:240px; margin: auto;"">
                                <img src=""images/map27_YlGn_scaleRev_orientMir_090.png"" style= ""width:200px""alt=""img"">
                            </div>
                        </div>","-98","","0","","","","images/map27_YlGn_scaleRev_orientMir_090.png","sad","1","27","27","YlGn","orientMir","scaleRev","090","",""
"","","","","","html-slider-response","127","14598122","0.0-123.0","o3uzl5rju7","32","NaN","<div style=""width:500px;"">
                            <p style=""font-size:50px; font-weight:bold;""
                            >sad</p>
                            <div style=""width:240px; margin: auto;"">
                                <img src=""images/map27_PuBuGn_scaleRev_orientDef_090.png"" style= ""width:200px""alt=""img"">
                            </div>
                        </div>","106","","0","","","","images/map27_PuBuGn_scaleRev_orientDef_090.png","sad","1","27","27","PuBuGn","orientDef","scaleRev","090","",""
"","","","","","html-slider-response","128","14599615","0.0-124.0","o3uzl5rju7","32","NaN","<div style=""width:500px;"">
                            <p style=""font-size:50px; font-weight:bold;""
                            >sad</p>
                            <div style=""width:240px; margin: auto;"">
                                <img src=""images/map26_BuPu_scaleDef_orientDef_000.png"" style= ""width:200px""alt=""img"">
                            </div>
                        </div>","95","","0","","","","images/map26_BuPu_scaleDef_orientDef_000.png","sad","1","26","26","BuPu","orientDef","scaleDef","000","",""
"","","","","","html-slider-response","129","14601268","0.0-125.0","o3uzl5rju7","32","NaN","<div style=""width:500px;"">
                            <p style=""font-size:50px; font-weight:bold;""
                            >sad</p>
                            <div style=""width:240px; margin: auto;"">
                                <img src=""images/map05_RdBu_scaleDef_orientDef_000.png"" style= ""width:200px""alt=""img"">
                            </div>
                        </div>","74","","0","","","","images/map05_RdBu_scaleDef_orientDef_000.png","sad","1","05","05","RdBu","orientDef","scaleDef","000","",""
"","","","","","html-slider-response","130","14604343","0.0-126.0","o3uzl5rju7","32","NaN","<div style=""width:500px;"">
                            <p style=""font-size:50px; font-weight:bold;""
                            >sad</p>
                            <div style=""width:240px; margin: auto;"">
                                <img src=""images/map02_PuOr_scaleDef_orientMir_000.png"" style= ""width:200px""alt=""img"">
                            </div>
                        </div>","16","","0","","","","images/map02_PuOr_scaleDef_orientMir_000.png","sad","1","02","02","PuOr","orientMir","scaleDef","000","",""
"","","","","","html-slider-response","131","14606216","0.0-127.0","o3uzl5rju7","32","NaN","<div style=""width:500px;"">
                            <p style=""font-size:50px; font-weight:bold;""
                            >sad</p>
                            <div style=""width:240px; margin: auto;"">
                                <img src=""images/map10_turbo_scaleDef_orientMir_180.png"" style= ""width:200px""alt=""img"">
                            </div>
                        </div>","-90","","0","","","","images/map10_turbo_scaleDef_orientMir_180.png","sad","1","10","10","turbo","orientMir","scaleDef","180","",""
"","","","","","html-slider-response","132","14608924","0.0-128.0","o3uzl5rju7","32","NaN","<div style=""width:500px;"">
                            <p style=""font-size:50px; font-weight:bold;""
                            >sad</p>
                            <div style=""width:240px; margin: auto;"">
                                <img src=""images/map26_GnBu_scaleRev_orientDef_270.png"" style= ""width:200px""alt=""img"">
                            </div>
                        </div>","-114","","0","","","","images/map26_GnBu_scaleRev_orientDef_270.png","sad","1","26","26","GnBu","orientDef","scaleRev","270","",""
"","","","","","html-slider-response","133","14611275","0.0-129.0","o3uzl5rju7","32","NaN","<div style=""width:500px;"">
                            <p style=""font-size:50px; font-weight:bold;""
                            >sad</p>
                            <div style=""width:240px; margin: auto;"">
                                <img src=""images/map23_RdPu_scaleDef_orientMir_180.png"" style= ""width:200px""alt=""img"">
                            </div>
                        </div>","39","","0","","","","images/map23_RdPu_scaleDef_orientMir_180.png","sad","1","23","23","RdPu","orientMir","scaleDef","180","",""
"","","","","","html-slider-response","134","14612852","0.0-130.0","o3uzl5rju7","32","NaN","<div style=""width:500px;"">
                            <p style=""font-size:50px; font-weight:bold;""
                            >sad</p>
                            <div style=""width:240px; margin: auto;"">
                                <img src=""images/map02_BrBG_scaleRev_orientDef_270.png"" style= ""width:200px""alt=""img"">
                            </div>
                        </div>","42","","0","","","","images/map02_BrBG_scaleRev_orientDef_270.png","sad","1","02","02","BrBG","orientDef","scaleRev","270","",""
"","","","","","html-slider-response","135","14614851","0.0-131.0","o3uzl5rju7","32","NaN","<div style=""width:500px;"">
                            <p style=""font-size:50px; font-weight:bold;""
                            >sad</p>
                            <div style=""width:240px; margin: auto;"">
                                <img src=""images/map05_Spectral_scaleRev_orientMir_270.png"" style= ""width:200px""alt=""img"">
                            </div>
                        </div>","-41","","0","","","","images/map05_Spectral_scaleRev_orientMir_270.png","sad","1","05","05","Spectral","orientMir","scaleRev","270","",""
"","","","","","html-slider-response","136","14618044","0.0-132.0","o3uzl5rju7","32","NaN","<div style=""width:500px;"">
                            <p style=""font-size:50px; font-weight:bold;""
                            >sad</p>
                            <div style=""width:240px; margin: auto;"">
                                <img src=""images/map26_GnBu_scaleDef_orientDef_180.png"" style= ""width:200px""alt=""img"">
                            </div>
                        </div>","-2","","0","","","","images/map26_GnBu_scaleDef_orientDef_180.png","sad","1","26","26","GnBu","orientDef","scaleDef","180","",""
"","","","","","html-slider-response","137","14619921","0.0-133.0","o3uzl5rju7","32","NaN","<div style=""width:500px;"">
                            <p style=""font-size:50px; font-weight:bold;""
                            >sad</p>
                            <div style=""width:240px; margin: auto;"">
                                <img src=""images/map15_Greens_scaleDef_orientDef_000.png"" style= ""width:200px""alt=""img"">
                            </div>
                        </div>","-50","","0","","","","images/map15_Greens_scaleDef_orientDef_000.png","sad","1","15","15","Greens","orientDef","scaleDef","000","",""
"","","","","","html-slider-response","138","14621374","0.0-134.0","o3uzl5rju7","32","NaN","<div style=""width:500px;"">
                            <p style=""font-size:50px; font-weight:bold;""
                            >sad</p>
                            <div style=""width:240px; margin: auto;"">
                                <img src=""images/map15_Oranges_scaleRev_orientDef_270.png"" style= ""width:200px""alt=""img"">
                            </div>
                        </div>","-102","","0","","","","images/map15_Oranges_scaleRev_orientDef_270.png","sad","1","15","15","Oranges","orientDef","scaleRev","270","",""
"","","","","","html-slider-response","139","14622698","0.0-135.0","o3uzl5rju7","32","NaN","<div style=""width:500px;"">
                            <p style=""font-size:50px; font-weight:bold;""
                            >sad</p>
                            <div style=""width:240px; margin: auto;"">
                                <img src=""images/map07_bwr_scaleDef_orientDef_180.png"" style= ""width:200px""alt=""img"">
                            </div>
                        </div>","-109","","0","","","","images/map07_bwr_scaleDef_orientDef_180.png","sad","1","07","07","bwr","orientDef","scaleDef","180","",""
"","","","","","html-slider-response","140","14624580","0.0-136.0","o3uzl5rju7","32","NaN","<div style=""width:500px;"">
                            <p style=""font-size:50px; font-weight:bold;""
                            >sad</p>
                            <div style=""width:240px; margin: auto;"">
                                <img src=""images/map13_Purples_scaleDef_orientMir_000.png"" style= ""width:200px""alt=""img"">
                            </div>
                        </div>","102","","0","","","","images/map13_Purples_scaleDef_orientMir_000.png","sad","1","13","13","Purples","orientMir","scaleDef","000","",""
"","","","","","html-button-response","141","14626721","0.0-137.0","o3uzl5rju7","32","1640","<p>You are doing great!<br></br> You are halway done with the current block. When you are ready to continue, click the 'Continue' button.</p>","0","","","","","","","","","","","","","","","",""
"","","","","","html-slider-response","142","14667228","0.0-138.0","o3uzl5rju7","32","NaN","<div style=""width:500px;"">
                            <p style=""font-size:50px; font-weight:bold;""
                            >sad</p>
                            <div style=""width:240px; margin: auto;"">
                                <img src=""images/map26_YlGnBu_scaleRev_orientMir_270.png"" style= ""width:200px""alt=""img"">
                            </div>
                        </div>","68","","0","","","","images/map26_YlGnBu_scaleRev_orientMir_270.png","sad","1","26","26","YlGnBu","orientMir","scaleRev","270","",""
"","","","","","html-slider-response","143","14681623","0.0-139.0","o3uzl5rju7","32","NaN","<div style=""width:500px;"">
                            <p style=""font-size:50px; font-weight:bold;""
                            >sad</p>
                            <div style=""width:240px; margin: auto;"">
                                <img src=""images/map02_PRGn_scaleDef_orientDef_000.png"" style= ""width:200px""alt=""img"">
                            </div>
                        </div>","86","","0","","","","images/map02_PRGn_scaleDef_orientDef_000.png","sad","1","02","02","PRGn","orientDef","scaleDef","000","",""
"","","","","","html-slider-response","144","14683378","0.0-140.0","o3uzl5rju7","32","NaN","<div style=""width:500px;"">
                            <p style=""font-size:50px; font-weight:bold;""
                            >sad</p>
                            <div style=""width:240px; margin: auto;"">
                                <img src=""images/map26_YlGnBu_scaleDef_orientMir_180.png"" style= ""width:200px""alt=""img"">
                            </div>
                        </div>","-42","","0","","","","images/map26_YlGnBu_scaleDef_orientMir_180.png","sad","1","26","26","YlGnBu","orientMir","scaleDef","180","",""
"","","","","","html-slider-response","145","14685379","0.0-141.0","o3uzl5rju7","32","NaN","<div style=""width:500px;"">
                            <p style=""font-size:50px; font-weight:bold;""
                            >sad</p>
                            <div style=""width:240px; margin: auto;"">
                                <img src=""images/map27_PiYG_scaleDef_orientMir_180.png"" style= ""width:200px""alt=""img"">
                            </div>
                        </div>","-59","","0","","","","images/map27_PiYG_scaleDef_orientMir_180.png","sad","1","27","27","PiYG","orientMir","scaleDef","180","",""
"","","","","","html-slider-response","146","14686840","0.0-142.0","o3uzl5rju7","32","NaN","<div style=""width:500px;"">
                            <p style=""font-size:50px; font-weight:bold;""
                            >sad</p>
                            <div style=""width:240px; margin: auto;"">
                                <img src=""images/map07_seismic_scaleRev_orientMir_090.png"" style= ""width:200px""alt=""img"">
                            </div>
                        </div>","-82","","0","","","","images/map07_seismic_scaleRev_orientMir_090.png","sad","1","07","07","seismic","orientMir","scaleRev","090","",""
"","","","","","html-slider-response","147","14688580","0.0-143.0","o3uzl5rju7","32","NaN","<div style=""width:500px;"">
                            <p style=""font-size:50px; font-weight:bold;""
                            >sad</p>
                            <div style=""width:240px; margin: auto;"">
                                <img src=""images/map07_berlin_scaleRev_orientMir_270.png"" style= ""width:200px""alt=""img"">
                            </div>
                        </div>","74","","0","","","","images/map07_berlin_scaleRev_orientMir_270.png","sad","1","07","07","berlin","orientMir","scaleRev","270","",""
"","","","","","html-slider-response","148","14689993","0.0-144.0","o3uzl5rju7","32","NaN","<div style=""width:500px;"">
                            <p style=""font-size:50px; font-weight:bold;""
                            >sad</p>
                            <div style=""width:240px; margin: auto;"">
                                <img src=""images/map05_RdYlBu_scaleRev_orientDef_270.png"" style= ""width:200px""alt=""img"">
                            </div>
                        </div>","-80","","0","","","","images/map05_RdYlBu_scaleRev_orientDef_270.png","sad","1","05","05","RdYlBu","orientDef","scaleRev","270","",""
"","","","","","html-slider-response","149","14691261","0.0-145.0","o3uzl5rju7","32","NaN","<div style=""width:500px;"">
                            <p style=""font-size:50px; font-weight:bold;""
                            >sad</p>
                            <div style=""width:240px; margin: auto;"">
                                <img src=""images/map23_PuRd_scaleRev_orientMir_090.png"" style= ""width:200px""alt=""img"">
                            </div>
                        </div>","-80","","0","","","","images/map23_PuRd_scaleRev_orientMir_090.png","sad","1","23","23","PuRd","orientMir","scaleRev","090","",""
"","","","","","html-slider-response","150","14692769","0.0-146.0","o3uzl5rju7","32","NaN","<div style=""width:500px;"">
                            <p style=""font-size:50px; font-weight:bold;""
                            >sad</p>
                            <div style=""width:240px; margin: auto;"">
                                <img src=""images/map02_PRGn_scaleRev_orientDef_090.png"" style= ""width:200px""alt=""img"">
                            </div>
                        </div>","26","","0","","","","images/map02_PRGn_scaleRev_orientDef_090.png","sad","1","02","02","PRGn","orientDef","scaleRev","090","",""
"","","","","","html-slider-response","151","14694122","0.0-147.0","o3uzl5rju7","32","NaN","<div style=""width:500px;"">
                            <p style=""font-size:50px; font-weight:bold;""
                            >sad</p>
                            <div style=""width:240px; margin: auto;"">
                                <img src=""images/map23_PuRd_scaleDef_orientMir_000.png"" style= ""width:200px""alt=""img"">
                            </div>
                        </div>","-42","","0","","","","images/map23_PuRd_scaleDef_orientMir_000.png","sad","1","23","23","PuRd","orientMir","scaleDef","000","",""
"","","","","","html-slider-response","152","14695840","0.0-148.0","o3uzl5rju7","32","NaN","<div style=""width:500px;"">
                            <p style=""font-size:50px; font-weight:bold;""
                            >sad</p>
                            <div style=""width:240px; margin: auto;"">
                                <img src=""images/map27_BuGn_scaleDef_orientDef_180.png"" style= ""width:200px""alt=""img"">
                            </div>
                        </div>","-47","","0","","","","images/map27_BuGn_scaleDef_orientDef_180.png","sad","1","27","27","BuGn","orientDef","scaleDef","180","",""
"","","","","","html-slider-response","153","14698402","0.0-149.0","o3uzl5rju7","32","NaN","<div style=""width:500px;"">
                            <p style=""font-size:50px; font-weight:bold;""
                            >sad</p>
                            <div style=""width:240px; margin: auto;"">
                                <img src=""images/map12_viridis_scaleRev_orientDef_090.png"" style= ""width:200px""alt=""img"">
                            </div>
                        </div>","24","","0","","","","images/map12_viridis_scaleRev_orientDef_090.png","sad","1","12","12","viridis","orientDef","scaleRev","090","",""
"","","","","","html-slider-response","154","14701177","0.0-150.0","o3uzl5rju7","32","NaN","<div style=""width:500px;"">
                            <p style=""font-size:50px; font-weight:bold;""
                            >sad</p>
                            <div style=""width:240px; margin: auto;"">
                                <img src=""images/map05_Spectral_scaleDef_orientMir_180.png"" style= ""width:200px""alt=""img"">
                            </div>
                        </div>","-61","","0","","","","images/map05_Spectral_scaleDef_orientMir_180.png","sad","1","05","05","Spectral","orientMir","scaleDef","180","",""
"","","","","","html-slider-response","155","14702554","0.0-151.0","o3uzl5rju7","32","NaN","<div style=""width:500px;"">
                            <p style=""font-size:50px; font-weight:bold;""
                            >sad</p>
                            <div style=""width:240px; margin: auto;"">
                                <img src=""images/map10_turbo_scaleRev_orientMir_270.png"" style= ""width:200px""alt=""img"">
                            </div>
                        </div>","-62","","0","","","","images/map10_turbo_scaleRev_orientMir_270.png","sad","1","10","10","turbo","orientMir","scaleRev","270","",""
"","","","","","html-slider-response","156","14704076","0.0-152.0","o3uzl5rju7","32","NaN","<div style=""width:500px;"">
                            <p style=""font-size:50px; font-weight:bold;""
                            >sad</p>
                            <div style=""width:240px; margin: auto;"">
                                <img src=""images/map15_Reds_scaleRev_orientMir_090.png"" style= ""width:200px""alt=""img"">
                            </div>
                        </div>","-107","","0","","","","images/map15_Reds_scaleRev_orientMir_090.png","sad","1","15","15","Reds","orientMir","scaleRev","090","",""
"","","","","","html-slider-response","157","14706385","0.0-153.0","o3uzl5rju7","32","NaN","<div style=""width:500px;"">
                            <p style=""font-size:50px; font-weight:bold;""
                            >sad</p>
                            <div style=""width:240px; margin: auto;"">
