"success","timeout","failed_images","failed_audio","failed_video","trial_type","trial_index","time_elapsed","internal_node_id","subject_id","condition_num","rt","stimulus","response","question_order","slider_start","practiceTrial","practiceTrialNum","correct","image_path","concept","repetition","map_id","map_num","scale_name","orientation_code","mapping_code","rotation_code","ishihara_plate","correct_response"
"true","false","[]","[]","[]","preload","0","696","0.0-0.0","ojouepbntr","69","","","","","","","","","","","","","","","","","","",""
"","","","","","html-button-response","1","5095","0.0-1.0","ojouepbntr","69","4398","Welcome to our experiment!<p>At the bottom of this screen, you will see a button that says ""Begin Experiment"".<br>Please only click that button when you are ready to complete the 30 minute experiment in one sitting.</p><p> Once you click that button, it will not be possible to restart the experiment.","0","","","","","","","","","","","","","","","",""
"true","","","","","fullscreen","2","7950","0.0-2.0","ojouepbntr","69","1852","","","","","","","","","","","","","","","","","",""
"","","","","","survey-multi-select","3","25744","0.0-3.0","ojouepbntr","69","17792","","{""Consent"":[""<strong>I consent</strong>""]}","[0]","","","","","","","","","","","","","","",""
"","","","","","html-button-response","4","29060","0.0-4.0","ojouepbntr","69","3315","Welcome! <p> This experiment involves two parts: demographic information, followed by the experimental task.<p> It will take about 30 minutes to complete both parts.","0","","","","","","","","","","","","","","","",""
"","","","","","survey-text","5","45978","0.0-5.0","ojouepbntr","69","16910","","{""Age"":""19"",""Gender"":""Female"",""Race/ethnicity"":""White"",""Languages"":""English""}","","","","","","","","","","","","","","","",""
"","","","","","html-slider-response","6","64177","0.0-6.0","ojouepbntr","69","18198","<div style='text-align:left; font-size:20px; line-height:25px; width: 1000px;'>
                                During this experiment you will be asked to rate how much you associate maps with                    different concepts.<br> Below, you can see some examples of the maps you will be asked to rate. Above the maps
                    is the list of concepts.<br>You will be asked                    to rate how much you associate each map with each concept on a scale from 'not at all' to 'very much' like the
                    one below. <br><br>
                    Now, please look at the list of concepts and maps. For each concept, think about the map you associate 'very
                    much' with the concept.<br>                     When you see that map during the experiment, please rate it near the 'very much' endpoint of the
                    scale.<br>Now, please think about which map you associate 'not at all'                     with each concept. When you see that map during the experiment, please rate it near the 'not at all' endpoint
                    of the scale.<br>
                    Please use the full range of the scale. That is, if a map is somewhat associated with the concept, you would
                    click partway between the middle point and right side of the scale.                    You will be asked to rate each map for a given concept before moving on to the next concept.<br>Press the
                    'Continue' button for instructions on how to use the slider.                    <br>
                </div>

                <div style=""width: 500px; margin: 0 auto;"">
                    <!-- Centered text paragraphs -->
                    <div style=""text-align: center; width: 500px;"">
                        <p style=""font-size:25px; line-height:15px;"">
                            angry&nbsp;&nbsp;&nbsp;&nbsp;
                            disgust&nbsp;&nbsp;&nbsp;&nbsp;
                            fearful&nbsp;&nbsp;&nbsp;&nbsp;
                            happy&nbsp;&nbsp;&nbsp;&nbsp;
                            sad
                        </p>
                        <!-- <p style=""font-size:20px; line-height:15px;"">disgust</p>
                        <p style=""font-size:20px;line-height:15px;"">fearful</p>
                        <p style=""font-size:20px;line-height:15px;"">happy</p>
                        <p style=""font-size:20px;line-height:15px;"">sad</p> -->
                    </div>
            

                    <!-- Grid section -->
                   <div style=""display: flex; justify-content: center; padding-top: 15px;"">
                    <div style=""display: grid; grid-template-columns: repeat(10, 55px); grid-gap: 5px; width: auto;"">
                        <img src=""images/map05_PuOr_scaleDef_orientMir_180.png"" alt=""map"" style=""width: 100%;""><img src=""images/map02_YlGn_scaleRev_orientMir_270.png"" alt=""map"" style=""width: 100%;""><img src=""images/map10_seismic_scaleDef_orientMir_180.png"" alt=""map"" style=""width: 100%;""><img src=""images/map27_RdPu_scaleDef_orientDef_000.png"" alt=""map"" style=""width: 100%;""><img src=""images/map07_RdYlGn_scaleRev_orientMir_270.png"" alt=""map"" style=""width: 100%;""><img src=""images/map13_turbo_scaleDef_orientDef_000.png"" alt=""map"" style=""width: 100%;""><img src=""images/map15_magma_scaleDef_orientDef_000.png"" alt=""map"" style=""width: 100%;""><img src=""images/map27_BuPu_scaleRev_orientDef_270.png"" alt=""map"" style=""width: 100%;""><img src=""images/map27_PuBu_scaleRev_orientMir_270.png"" alt=""map"" style=""width: 100%;""><img src=""images/map02_BuGn_scaleDef_orientMir_000.png"" alt=""map"" style=""width: 100%;""><img src=""images/map05_BrBG_scaleRev_orientMir_090.png"" alt=""map"" style=""width: 100%;""><img src=""images/map23_Blues_scaleRev_orientDef_090.png"" alt=""map"" style=""width: 100%;""><img src=""images/map12_managua_scaleDef_orientDef_180.png"" alt=""map"" style=""width: 100%;""><img src=""images/map15_cividis_scaleDef_orientDef_180.png"" alt=""map"" style=""width: 100%;""><img src=""images/map07_RdGy_scaleDef_orientDef_000.png"" alt=""map"" style=""width: 100%;""><img src=""images/map26_OrRd_scaleRev_orientMir_090.png"" alt=""map"" style=""width: 100%;""><img src=""images/map23_Oranges_scaleRev_orientMir_090.png"" alt=""map"" style=""width: 100%;""><img src=""images/map02_PuBuGn_scaleRev_orientDef_270.png"" alt=""map"" style=""width: 100%;""><img src=""images/map23_Reds_scaleRev_orientMir_270.png"" alt=""map"" style=""width: 100%;""><img src=""images/map07_RdYlBu_scaleRev_orientMir_090.png"" alt=""map"" style=""width: 100%;""><img src=""images/map12_berlin_scaleDef_orientDef_000.png"" alt=""map"" style=""width: 100%;""><img src=""images/map15_Greys_scaleDef_orientMir_000.png"" alt=""map"" style=""width: 100%;""><img src=""images/map05_PiYG_scaleRev_orientDef_090.png"" alt=""map"" style=""width: 100%;""><img src=""images/map26_PuRd_scaleDef_orientMir_180.png"" alt=""map"" style=""width: 100%;""><img src=""images/map12_vanimo_scaleDef_orientMir_000.png"" alt=""map"" style=""width: 100%;""><img src=""images/map10_bwr_scaleDef_orientMir_000.png"" alt=""map"" style=""width: 100%;""><img src=""images/map15_Purples_scaleRev_orientMir_270.png"" alt=""map"" style=""width: 100%;""><img src=""images/map10_coolwarm_scaleDef_orientDef_180.png"" alt=""map"" style=""width: 100%;""><img src=""images/map27_GnBu_scaleDef_orientMir_000.png"" alt=""map"" style=""width: 100%;""><img src=""images/map26_YlOrRd_scaleDef_orientDef_180.png"" alt=""map"" style=""width: 100%;""><img src=""images/map26_YlOrBr_scaleDef_orientDef_000.png"" alt=""map"" style=""width: 100%;""><img src=""images/map13_viridis_scaleRev_orientDef_270.png"" alt=""map"" style=""width: 100%;""><img src=""images/map05_PRGn_scaleRev_orientDef_270.png"" alt=""map"" style=""width: 100%;""><img src=""images/map23_Greens_scaleDef_orientDef_180.png"" alt=""map"" style=""width: 100%;""><img src=""images/map10_Spectral_scaleDef_orientDef_000.png"" alt=""map"" style=""width: 100%;""><img src=""images/map12_gist_earth_scaleRev_orientMir_270.png"" alt=""map"" style=""width: 100%;""><img src=""images/map02_YlGnBu_scaleDef_orientDef_000.png"" alt=""map"" style=""width: 100%;""><img src=""images/map13_inferno_scaleDef_orientMir_180.png"" alt=""map"" style=""width: 100%;""><img src=""images/map13_plasma_scaleRev_orientMir_090.png"" alt=""map"" style=""width: 100%;""><img src=""images/map07_RdBu_scaleRev_orientDef_270.png"" alt=""map"" style=""width: 100%;"">
                    </div>
                </div>

                    <!-- Clear floats -->
                    <div style=""clear: both;""></div>
                </div>
                            ","128","","0","true","","","","","","","","","","","","",""
"","","","","","html-button-response","7","65964","0.0-7.0","ojouepbntr","69","1787","<div style=""width:800px;""><p style=""text-align:left"">To move the slider, click and drag your cursor to the location of the scale where you would like to make your rating and then let go. When you let go of the slider, your response will be recorded and the next trial will begin. <br>
                    We are interested in your initial impressions of each map for the given concept, so please go with your first intuition. <br>
                    Before you begin the experiment, there will be four training trials for you to practice using the scale. <br>
                     When you are ready to start the training trials, please click ""Continue"".</p><br></div>","0","","","","","","","","","","","","","","","",""
"","","","","","html-slider-response","8","69312","0.0-8.0-0.0","ojouepbntr","69","NaN","<div style=""width:500px;"">
                                    <p style=""font-size:25px;"">Please move the slider all the way to the <br> right endpoint of the scale</p>

                                    </div>
                                </div>","200","","0","true","0","true","","","","","","","","","","",""
"","","","","","html-button-response","9","70827","0.0-8.0-1.0","ojouepbntr","69","1011","<p align='center'><b>Good job!</b> Click on 'Continue' to proceed.</p>","0","","","","","","","","","","","","","","","",""
"","","","","","html-slider-response","10","72708","0.0-9.0-0.0","ojouepbntr","69","NaN","<div style=""width:500px;"">
                                    <p style=""font-size:25px;"">Please move the slider all the way to the <br> left endpoint of the scale</p>

                                    </div>
                                </div>","-200","","0","true","1","true","","","","","","","","","","",""
"","","","","","html-button-response","11","73962","0.0-9.0-1.0","ojouepbntr","69","752","<p align='center'><b>Good job!</b> Click on 'Continue' to proceed.</p>","0","","","","","","","","","","","","","","","",""
"","","","","","html-slider-response","12","77888","0.0-10.0-0.0","ojouepbntr","69","NaN","<div style=""width:500px;"">
                                    <p style=""font-size:25px;"">Please move the slider halfway between the center and right endpoint of the scale</p>

                                    </div>
                                </div>","0","","0","true","2","false","","","","","","","","","","",""
"","","","","","html-button-response","13","81648","0.0-10.0-1.0","ojouepbntr","69","3257","<p align='center'><b>Not quite!</b> The slider was not placed near the instructed located. Click on 'Continue' to try again. </p>","0","","","","","","","","","","","","","","","",""
"","","","","","html-slider-response","14","85796","0.0-10.1-0.1","ojouepbntr","69","NaN","<div style=""width:500px;"">
                                    <p style=""font-size:25px;"">Please move the slider halfway between the center and right endpoint of the scale</p>

                                    </div>
                                </div>","111","","0","true","2","false","","","","","","","","","","",""
"","","","","","html-button-response","15","86982","0.0-10.1-1.1","ojouepbntr","69","684","<p align='center'><b>Not quite!</b> The slider was not placed near the instructed located. Click on 'Continue' to try again. </p>","0","","","","","","","","","","","","","","","",""
"","","","","","html-slider-response","16","94005","0.0-10.2-0.2","ojouepbntr","69","NaN","<div style=""width:500px;"">
                                    <p style=""font-size:25px;"">Please move the slider halfway between the center and right endpoint of the scale</p>

                                    </div>
                                </div>","109","","0","true","2","true","","","","","","","","","","",""
"","","","","","html-button-response","17","96277","0.0-10.2-1.2","ojouepbntr","69","1770","<p align='center'><b>Good job!</b> Click on 'Continue' to proceed.</p>","0","","","","","","","","","","","","","","","",""
"","","","","","html-slider-response","18","100154","0.0-11.0-0.0","ojouepbntr","69","NaN","<div style=""width:500px;"">
                                    <p style=""font-size:25px;"">Please move the slider halfway between the center and left endpoint of the scale</p>

                                    </div>
                                </div>","-112","","0","true","3","false","","","","","","","","","","",""
"","","","","","html-button-response","19","101577","0.0-11.0-1.0","ojouepbntr","69","919","<p align='center'><b>Not quite!</b> The slider was not placed near the instructed located. Click on 'Continue' to try again. </p>","0","","","","","","","","","","","","","","","",""
"","","","","","html-slider-response","20","107297","0.0-11.1-0.1","ojouepbntr","69","NaN","<div style=""width:500px;"">
                                    <p style=""font-size:25px;"">Please move the slider halfway between the center and left endpoint of the scale</p>

                                    </div>
                                </div>","-107","","0","true","3","true","","","","","","","","","","",""
"","","","","","html-button-response","21","108693","0.0-11.1-1.1","ojouepbntr","69","894","<p align='center'><b>Good job!</b> Click on 'Continue' to proceed.</p>","0","","","","","","","","","","","","","","","",""
"","","","","","html-button-response","22","109517","0.0-12.0","ojouepbntr","69","823","<p>Great job! You've completed the practice trials. Now you will begin the main task.</p>","0","","","","","","","","","","","","","","","",""
"","","","","","html-button-response","23","112977","0.0-13.0","ojouepbntr","69","3460","<p>In this block of trials, you will be asked to rate how much you associate each map with:</p > <p style = 'font-size:150%; font-weight: bold'>angry</p><br></br>","0","","","","","","","","","","","","","","","",""
"","","","","","html-slider-response","24","115224","0.0-14.0","ojouepbntr","69","NaN","<div style=""width:500px;"">
                            <p style=""font-size:50px; font-weight:bold;""
                            >angry</p>
                            <div style=""width:240px; margin: auto;"">
                                <img src=""images/map10_seismic_scaleDef_orientMir_180.png"" style= ""width:200px""alt=""img"">
                            </div>
                        </div>","78","","0","","","","images/map10_seismic_scaleDef_orientMir_180.png","angry","1","10","10","seismic","orientMir","scaleDef","180","",""
"","","","","","html-slider-response","25","117779","0.0-15.0","ojouepbntr","69","NaN","<div style=""width:500px;"">
                            <p style=""font-size:50px; font-weight:bold;""
                            >angry</p>
                            <div style=""width:240px; margin: auto;"">
                                <img src=""images/map02_YlGn_scaleDef_orientMir_180.png"" style= ""width:200px""alt=""img"">
                            </div>
                        </div>","-56","","0","","","","images/map02_YlGn_scaleDef_orientMir_180.png","angry","1","02","02","YlGn","orientMir","scaleDef","180","",""
"","","","","","html-slider-response","26","120190","0.0-16.0","ojouepbntr","69","NaN","<div style=""width:500px;"">
                            <p style=""font-size:50px; font-weight:bold;""
                            >angry</p>
                            <div style=""width:240px; margin: auto;"">
                                <img src=""images/map12_berlin_scaleRev_orientDef_090.png"" style= ""width:200px""alt=""img"">
                            </div>
                        </div>","-54","","0","","","","images/map12_berlin_scaleRev_orientDef_090.png","angry","1","12","12","berlin","orientDef","scaleRev","090","",""
"","","","","","html-slider-response","27","122289","0.0-17.0","ojouepbntr","69","NaN","<div style=""width:500px;"">
                            <p style=""font-size:50px; font-weight:bold;""
                            >angry</p>
                            <div style=""width:240px; margin: auto;"">
                                <img src=""images/map05_PRGn_scaleDef_orientDef_180.png"" style= ""width:200px""alt=""img"">
                            </div>
                        </div>","-46","","0","","","","images/map05_PRGn_scaleDef_orientDef_180.png","angry","1","05","05","PRGn","orientDef","scaleDef","180","",""
"","","","","","html-slider-response","28","124512","0.0-18.0","ojouepbntr","69","NaN","<div style=""width:500px;"">
                            <p style=""font-size:50px; font-weight:bold;""
                            >angry</p>
                            <div style=""width:240px; margin: auto;"">
                                <img src=""images/map13_viridis_scaleRev_orientDef_270.png"" style= ""width:200px""alt=""img"">
                            </div>
                        </div>","-53","","0","","","","images/map13_viridis_scaleRev_orientDef_270.png","angry","1","13","13","viridis","orientDef","scaleRev","270","",""
"","","","","","html-slider-response","29","126462","0.0-19.0","ojouepbntr","69","NaN","<div style=""width:500px;"">
                            <p style=""font-size:50px; font-weight:bold;""
                            >angry</p>
                            <div style=""width:240px; margin: auto;"">
                                <img src=""images/map12_berlin_scaleDef_orientDef_000.png"" style= ""width:200px""alt=""img"">
                            </div>
                        </div>","37","","0","","","","images/map12_berlin_scaleDef_orientDef_000.png","angry","1","12","12","berlin","orientDef","scaleDef","000","",""
"","","","","","html-slider-response","30","128473","0.0-20.0","ojouepbntr","69","NaN","<div style=""width:500px;"">
                            <p style=""font-size:50px; font-weight:bold;""
                            >angry</p>
                            <div style=""width:240px; margin: auto;"">
                                <img src=""images/map23_Reds_scaleRev_orientMir_270.png"" style= ""width:200px""alt=""img"">
                            </div>
                        </div>","28","","0","","","","images/map23_Reds_scaleRev_orientMir_270.png","angry","1","23","23","Reds","orientMir","scaleRev","270","",""
"","","","","","html-slider-response","31","130691","0.0-21.0","ojouepbntr","69","NaN","<div style=""width:500px;"">
                            <p style=""font-size:50px; font-weight:bold;""
                            >angry</p>
                            <div style=""width:240px; margin: auto;"">
                                <img src=""images/map27_GnBu_scaleDef_orientMir_000.png"" style= ""width:200px""alt=""img"">
                            </div>
                        </div>","-40","","0","","","","images/map27_GnBu_scaleDef_orientMir_000.png","angry","1","27","27","GnBu","orientMir","scaleDef","000","",""
"","","","","","html-slider-response","32","132858","0.0-22.0","ojouepbntr","69","NaN","<div style=""width:500px;"">
                            <p style=""font-size:50px; font-weight:bold;""
                            >angry</p>
                            <div style=""width:240px; margin: auto;"">
                                <img src=""images/map15_magma_scaleDef_orientDef_000.png"" style= ""width:200px""alt=""img"">
                            </div>
                        </div>","34","","0","","","","images/map15_magma_scaleDef_orientDef_000.png","angry","1","15","15","magma","orientDef","scaleDef","000","",""
"","","","","","html-slider-response","33","136822","0.0-23.0","ojouepbntr","69","NaN","<div style=""width:500px;"">
                            <p style=""font-size:50px; font-weight:bold;""
                            >angry</p>
                            <div style=""width:240px; margin: auto;"">
                                <img src=""images/map26_PuRd_scaleRev_orientMir_270.png"" style= ""width:200px""alt=""img"">
                            </div>
                        </div>","-2","","0","","","","images/map26_PuRd_scaleRev_orientMir_270.png","angry","1","26","26","PuRd","orientMir","scaleRev","270","",""
"","","","","","html-slider-response","34","138588","0.0-24.0","ojouepbntr","69","NaN","<div style=""width:500px;"">
                            <p style=""font-size:50px; font-weight:bold;""
                            >angry</p>
                            <div style=""width:240px; margin: auto;"">
                                <img src=""images/map27_RdPu_scaleRev_orientDef_090.png"" style= ""width:200px""alt=""img"">
                            </div>
                        </div>","2","","0","","","","images/map27_RdPu_scaleRev_orientDef_090.png","angry","1","27","27","RdPu","orientDef","scaleRev","090","",""
"","","","","","html-slider-response","35","140871","0.0-25.0","ojouepbntr","69","NaN","<div style=""width:500px;"">
                            <p style=""font-size:50px; font-weight:bold;""
                            >angry</p>
                            <div style=""width:240px; margin: auto;"">
                                <img src=""images/map12_vanimo_scaleDef_orientMir_000.png"" style= ""width:200px""alt=""img"">
                            </div>
                        </div>","25","","0","","","","images/map12_vanimo_scaleDef_orientMir_000.png","angry","1","12","12","vanimo","orientMir","scaleDef","000","",""
"","","","","","html-slider-response","36","143896","0.0-26.0","ojouepbntr","69","NaN","<div style=""width:500px;"">
                            <p style=""font-size:50px; font-weight:bold;""
                            >angry</p>
                            <div style=""width:240px; margin: auto;"">
                                <img src=""images/map12_managua_scaleDef_orientDef_180.png"" style= ""width:200px""alt=""img"">
                            </div>
                        </div>","-13","","0","","","","images/map12_managua_scaleDef_orientDef_180.png","angry","1","12","12","managua","orientDef","scaleDef","180","",""
"","","","","","html-slider-response","37","145758","0.0-27.0","ojouepbntr","69","NaN","<div style=""width:500px;"">
                            <p style=""font-size:50px; font-weight:bold;""
                            >angry</p>
                            <div style=""width:240px; margin: auto;"">
                                <img src=""images/map23_Reds_scaleDef_orientMir_180.png"" style= ""width:200px""alt=""img"">
                            </div>
                        </div>","68","","0","","","","images/map23_Reds_scaleDef_orientMir_180.png","angry","1","23","23","Reds","orientMir","scaleDef","180","",""
"","","","","","html-slider-response","38","148105","0.0-28.0","ojouepbntr","69","NaN","<div style=""width:500px;"">
                            <p style=""font-size:50px; font-weight:bold;""
                            >angry</p>
                            <div style=""width:240px; margin: auto;"">
                                <img src=""images/map07_RdBu_scaleDef_orientDef_180.png"" style= ""width:200px""alt=""img"">
                            </div>
                        </div>","38","","0","","","","images/map07_RdBu_scaleDef_orientDef_180.png","angry","1","07","07","RdBu","orientDef","scaleDef","180","",""
"","","","","","html-slider-response","39","150522","0.0-29.0","ojouepbntr","69","NaN","<div style=""width:500px;"">
                            <p style=""font-size:50px; font-weight:bold;""
                            >angry</p>
                            <div style=""width:240px; margin: auto;"">
                                <img src=""images/map26_YlOrBr_scaleDef_orientDef_000.png"" style= ""width:200px""alt=""img"">
                            </div>
                        </div>","24","","0","","","","images/map26_YlOrBr_scaleDef_orientDef_000.png","angry","1","26","26","YlOrBr","orientDef","scaleDef","000","",""
"","","","","","html-slider-response","40","152629","0.0-30.0","ojouepbntr","69","NaN","<div style=""width:500px;"">
                            <p style=""font-size:50px; font-weight:bold;""
                            >angry</p>
                            <div style=""width:240px; margin: auto;"">
                                <img src=""images/map07_RdYlGn_scaleRev_orientMir_270.png"" style= ""width:200px""alt=""img"">
                            </div>
                        </div>","124","","0","","","","images/map07_RdYlGn_scaleRev_orientMir_270.png","angry","1","07","07","RdYlGn","orientMir","scaleRev","270","",""
"","","","","","html-slider-response","41","154745","0.0-31.0","ojouepbntr","69","NaN","<div style=""width:500px;"">
                            <p style=""font-size:50px; font-weight:bold;""
                            >angry</p>
                            <div style=""width:240px; margin: auto;"">
                                <img src=""images/map26_YlOrBr_scaleRev_orientDef_090.png"" style= ""width:200px""alt=""img"">
                            </div>
                        </div>","50","","0","","","","images/map26_YlOrBr_scaleRev_orientDef_090.png","angry","1","26","26","YlOrBr","orientDef","scaleRev","090","",""
"","","","","","html-slider-response","42","156712","0.0-32.0","ojouepbntr","69","NaN","<div style=""width:500px;"">
                            <p style=""font-size:50px; font-weight:bold;""
                            >angry</p>
                            <div style=""width:240px; margin: auto;"">
                                <img src=""images/map23_Oranges_scaleDef_orientMir_000.png"" style= ""width:200px""alt=""img"">
                            </div>
                        </div>","38","","0","","","","images/map23_Oranges_scaleDef_orientMir_000.png","angry","1","23","23","Oranges","orientMir","scaleDef","000","",""
"","","","","","html-slider-response","43","159160","0.0-33.0","ojouepbntr","69","NaN","<div style=""width:500px;"">
                            <p style=""font-size:50px; font-weight:bold;""
                            >angry</p>
                            <div style=""width:240px; margin: auto;"">
                                <img src=""images/map13_viridis_scaleDef_orientDef_180.png"" style= ""width:200px""alt=""img"">
                            </div>
                        </div>","-37","","0","","","","images/map13_viridis_scaleDef_orientDef_180.png","angry","1","13","13","viridis","orientDef","scaleDef","180","",""
"","","","","","html-slider-response","44","161222","0.0-34.0","ojouepbntr","69","NaN","<div style=""width:500px;"">
                            <p style=""font-size:50px; font-weight:bold;""
                            >angry</p>
                            <div style=""width:240px; margin: auto;"">
                                <img src=""images/map05_PiYG_scaleDef_orientDef_000.png"" style= ""width:200px""alt=""img"">
                            </div>
                        </div>","53","","0","","","","images/map05_PiYG_scaleDef_orientDef_000.png","angry","1","05","05","PiYG","orientDef","scaleDef","000","",""
"","","","","","html-slider-response","45","163222","0.0-35.0","ojouepbntr","69","NaN","<div style=""width:500px;"">
                            <p style=""font-size:50px; font-weight:bold;""
                            >angry</p>
                            <div style=""width:240px; margin: auto;"">
                                <img src=""images/map27_BuPu_scaleRev_orientDef_270.png"" style= ""width:200px""alt=""img"">
                            </div>
                        </div>","-47","","0","","","","images/map27_BuPu_scaleRev_orientDef_270.png","angry","1","27","27","BuPu","orientDef","scaleRev","270","",""
"","","","","","html-slider-response","46","166255","0.0-36.0","ojouepbntr","69","NaN","<div style=""width:500px;"">
                            <p style=""font-size:50px; font-weight:bold;""
                            >angry</p>
                            <div style=""width:240px; margin: auto;"">
                                <img src=""images/map15_cividis_scaleDef_orientDef_180.png"" style= ""width:200px""alt=""img"">
                            </div>
                        </div>","-141","","0","","","","images/map15_cividis_scaleDef_orientDef_180.png","angry","1","15","15","cividis","orientDef","scaleDef","180","",""
"","","","","","html-slider-response","47","168412","0.0-37.0","ojouepbntr","69","NaN","<div style=""width:500px;"">
                            <p style=""font-size:50px; font-weight:bold;""
                            >angry</p>
                            <div style=""width:240px; margin: auto;"">
                                <img src=""images/map27_RdPu_scaleDef_orientDef_000.png"" style= ""width:200px""alt=""img"">
                            </div>
                        </div>","-21","","0","","","","images/map27_RdPu_scaleDef_orientDef_000.png","angry","1","27","27","RdPu","orientDef","scaleDef","000","",""
"","","","","","html-slider-response","48","170322","0.0-38.0","ojouepbntr","69","NaN","<div style=""width:500px;"">
                            <p style=""font-size:50px; font-weight:bold;""
                            >angry</p>
                            <div style=""width:240px; margin: auto;"">
                                <img src=""images/map26_OrRd_scaleRev_orientMir_090.png"" style= ""width:200px""alt=""img"">
                            </div>
                        </div>","18","","0","","","","images/map26_OrRd_scaleRev_orientMir_090.png","angry","1","26","26","OrRd","orientMir","scaleRev","090","",""
"","","","","","html-slider-response","49","171722","0.0-39.0","ojouepbntr","69","NaN","<div style=""width:500px;"">
                            <p style=""font-size:50px; font-weight:bold;""
                            >angry</p>
                            <div style=""width:240px; margin: auto;"">
                                <img src=""images/map05_PRGn_scaleRev_orientDef_270.png"" style= ""width:200px""alt=""img"">
                            </div>
                        </div>","1","","0","","","","images/map05_PRGn_scaleRev_orientDef_270.png","angry","1","05","05","PRGn","orientDef","scaleRev","270","",""
"","","","","","html-slider-response","50","173496","0.0-40.0","ojouepbntr","69","NaN","<div style=""width:500px;"">
                            <p style=""font-size:50px; font-weight:bold;""
                            >angry</p>
                            <div style=""width:240px; margin: auto;"">
                                <img src=""images/map13_turbo_scaleDef_orientDef_000.png"" style= ""width:200px""alt=""img"">
                            </div>
                        </div>","41","","0","","","","images/map13_turbo_scaleDef_orientDef_000.png","angry","1","13","13","turbo","orientDef","scaleDef","000","",""
"","","","","","html-slider-response","51","175656","0.0-41.0","ojouepbntr","69","NaN","<div style=""width:500px;"">
                            <p style=""font-size:50px; font-weight:bold;""
                            >angry</p>
                            <div style=""width:240px; margin: auto;"">
                                <img src=""images/map13_plasma_scaleDef_orientMir_000.png"" style= ""width:200px""alt=""img"">
                            </div>
                        </div>","27","","0","","","","images/map13_plasma_scaleDef_orientMir_000.png","angry","1","13","13","plasma","orientMir","scaleDef","000","",""
"","","","","","html-slider-response","52","177962","0.0-42.0","ojouepbntr","69","NaN","<div style=""width:500px;"">
                            <p style=""font-size:50px; font-weight:bold;""
                            >angry</p>
                            <div style=""width:240px; margin: auto;"">
                                <img src=""images/map26_YlOrRd_scaleDef_orientDef_180.png"" style= ""width:200px""alt=""img"">
                            </div>
                        </div>","125","","0","","","","images/map26_YlOrRd_scaleDef_orientDef_180.png","angry","1","26","26","YlOrRd","orientDef","scaleDef","180","",""
"","","","","","html-slider-response","53","180006","0.0-43.0","ojouepbntr","69","NaN","<div style=""width:500px;"">
                            <p style=""font-size:50px; font-weight:bold;""
                            >angry</p>
                            <div style=""width:240px; margin: auto;"">
                                <img src=""images/map13_inferno_scaleDef_orientMir_180.png"" style= ""width:200px""alt=""img"">
                            </div>
                        </div>","30","","0","","","","images/map13_inferno_scaleDef_orientMir_180.png","angry","1","13","13","inferno","orientMir","scaleDef","180","",""
"","","","","","html-slider-response","54","181788","0.0-44.0","ojouepbntr","69","NaN","<div style=""width:500px;"">
                            <p style=""font-size:50px; font-weight:bold;""
                            >angry</p>
                            <div style=""width:240px; margin: auto;"">
                                <img src=""images/map05_PiYG_scaleRev_orientDef_090.png"" style= ""width:200px""alt=""img"">
                            </div>
                        </div>","-26","","0","","","","images/map05_PiYG_scaleRev_orientDef_090.png","angry","1","05","05","PiYG","orientDef","scaleRev","090","",""
"","","","","","html-slider-response","55","184072","0.0-45.0","ojouepbntr","69","NaN","<div style=""width:500px;"">
                            <p style=""font-size:50px; font-weight:bold;""
                            >angry</p>
                            <div style=""width:240px; margin: auto;"">
                                <img src=""images/map07_RdBu_scaleRev_orientDef_270.png"" style= ""width:200px""alt=""img"">
                            </div>
                        </div>","191","","0","","","","images/map07_RdBu_scaleRev_orientDef_270.png","angry","1","07","07","RdBu","orientDef","scaleRev","270","",""
"","","","","","html-slider-response","56","185912","0.0-46.0","ojouepbntr","69","NaN","<div style=""width:500px;"">
                            <p style=""font-size:50px; font-weight:bold;""
                            >angry</p>
                            <div style=""width:240px; margin: auto;"">
                                <img src=""images/map26_PuRd_scaleDef_orientMir_180.png"" style= ""width:200px""alt=""img"">
                            </div>
                        </div>","39","","0","","","","images/map26_PuRd_scaleDef_orientMir_180.png","angry","1","26","26","PuRd","orientMir","scaleDef","180","",""
"","","","","","html-slider-response","57","187523","0.0-47.0","ojouepbntr","69","NaN","<div style=""width:500px;"">
                            <p style=""font-size:50px; font-weight:bold;""
                            >angry</p>
                            <div style=""width:240px; margin: auto;"">
                                <img src=""images/map05_PuOr_scaleDef_orientMir_180.png"" style= ""width:200px""alt=""img"">
                            </div>
                        </div>","58","","0","","","","images/map05_PuOr_scaleDef_orientMir_180.png","angry","1","05","05","PuOr","orientMir","scaleDef","180","",""
"","","","","","html-slider-response","58","189138","0.0-48.0","ojouepbntr","69","NaN","<div style=""width:500px;"">
                            <p style=""font-size:50px; font-weight:bold;""
                            >angry</p>
                            <div style=""width:240px; margin: auto;"">
                                <img src=""images/map27_GnBu_scaleRev_orientMir_090.png"" style= ""width:200px""alt=""img"">
                            </div>
                        </div>","-48","","0","","","","images/map27_GnBu_scaleRev_orientMir_090.png","angry","1","27","27","GnBu","orientMir","scaleRev","090","",""
"","","","","","html-slider-response","59","190824","0.0-49.0","ojouepbntr","69","NaN","<div style=""width:500px;"">
                            <p style=""font-size:50px; font-weight:bold;""
                            >angry</p>
                            <div style=""width:240px; margin: auto;"">
                                <img src=""images/map27_BuPu_scaleDef_orientDef_180.png"" style= ""width:200px""alt=""img"">
                            </div>
                        </div>","1","","0","","","","images/map27_BuPu_scaleDef_orientDef_180.png","angry","1","27","27","BuPu","orientDef","scaleDef","180","",""
"","","","","","html-slider-response","60","192612","0.0-50.0","ojouepbntr","69","NaN","<div style=""width:500px;"">
                            <p style=""font-size:50px; font-weight:bold;""
                            >angry</p>
                            <div style=""width:240px; margin: auto;"">
                                <img src=""images/map05_BrBG_scaleDef_orientMir_000.png"" style= ""width:200px""alt=""img"">
                            </div>
                        </div>","31","","0","","","","images/map05_BrBG_scaleDef_orientMir_000.png","angry","1","05","05","BrBG","orientMir","scaleDef","000","",""
"","","","","","html-slider-response","61","194262","0.0-51.0","ojouepbntr","69","NaN","<div style=""width:500px;"">
                            <p style=""font-size:50px; font-weight:bold;""
                            >angry</p>
                            <div style=""width:240px; margin: auto;"">
                                <img src=""images/map15_Purples_scaleRev_orientMir_270.png"" style= ""width:200px""alt=""img"">
                            </div>
                        </div>","-34","","0","","","","images/map15_Purples_scaleRev_orientMir_270.png","angry","1","15","15","Purples","orientMir","scaleRev","270","",""
"","","","","","html-slider-response","62","195810","0.0-52.0","ojouepbntr","69","NaN","<div style=""width:500px;"">
                            <p style=""font-size:50px; font-weight:bold;""
                            >angry</p>
                            <div style=""width:240px; margin: auto;"">
                                <img src=""images/map02_BuGn_scaleRev_orientMir_090.png"" style= ""width:200px""alt=""img"">
                            </div>
                        </div>","-32","","0","","","","images/map02_BuGn_scaleRev_orientMir_090.png","angry","1","02","02","BuGn","orientMir","scaleRev","090","",""
"","","","","","html-slider-response","63","197596","0.0-53.0","ojouepbntr","69","NaN","<div style=""width:500px;"">
                            <p style=""font-size:50px; font-weight:bold;""
                            >angry</p>
                            <div style=""width:240px; margin: auto;"">
                                <img src=""images/map13_plasma_scaleRev_orientMir_090.png"" style= ""width:200px""alt=""img"">
                            </div>
                        </div>","45","","0","","","","images/map13_plasma_scaleRev_orientMir_090.png","angry","1","13","13","plasma","orientMir","scaleRev","090","",""
"","","","","","html-button-response","64","199261","0.0-54.0","ojouepbntr","69","1162","<p>You are doing great!<br></br> You are halway done with the current block. When you are ready to continue, click the 'Continue' button.</p>","0","","","","","","","","","","","","","","","",""
"","","","","","html-slider-response","65","201142","0.0-55.0","ojouepbntr","69","NaN","<div style=""width:500px;"">
                            <p style=""font-size:50px; font-weight:bold;""
                            >angry</p>
                            <div style=""width:240px; margin: auto;"">
                                <img src=""images/map26_OrRd_scaleDef_orientMir_000.png"" style= ""width:200px""alt=""img"">
                            </div>
                        </div>","68","","0","","","","images/map26_OrRd_scaleDef_orientMir_000.png","angry","1","26","26","OrRd","orientMir","scaleDef","000","",""
"","","","","","html-slider-response","66","202762","0.0-56.0","ojouepbntr","69","NaN","<div style=""width:500px;"">
                            <p style=""font-size:50px; font-weight:bold;""
                            >angry</p>
                            <div style=""width:240px; margin: auto;"">
                                <img src=""images/map12_managua_scaleRev_orientDef_270.png"" style= ""width:200px""alt=""img"">
                            </div>
                        </div>","24","","0","","","","images/map12_managua_scaleRev_orientDef_270.png","angry","1","12","12","managua","orientDef","scaleRev","270","",""
"","","","","","html-slider-response","67","205290","0.0-57.0","ojouepbntr","69","NaN","<div style=""width:500px;"">
                            <p style=""font-size:50px; font-weight:bold;""
                            >angry</p>
                            <div style=""width:240px; margin: auto;"">
                                <img src=""images/map07_RdGy_scaleDef_orientDef_000.png"" style= ""width:200px""alt=""img"">
                            </div>
                        </div>","182","","0","","","","images/map07_RdGy_scaleDef_orientDef_000.png","angry","1","07","07","RdGy","orientDef","scaleDef","000","",""
"","","","","","html-slider-response","68","207179","0.0-58.0","ojouepbntr","69","NaN","<div style=""width:500px;"">
                            <p style=""font-size:50px; font-weight:bold;""
                            >angry</p>
                            <div style=""width:240px; margin: auto;"">
                                <img src=""images/map12_gist_earth_scaleRev_orientMir_270.png"" style= ""width:200px""alt=""img"">
                            </div>
                        </div>","7","","0","","","","images/map12_gist_earth_scaleRev_orientMir_270.png","angry","1","12","12","gist","scaleRev","earth","orientMir","",""
"","","","","","html-slider-response","69","209655","0.0-59.0","ojouepbntr","69","NaN","<div style=""width:500px;"">
                            <p style=""font-size:50px; font-weight:bold;""
                            >angry</p>
                            <div style=""width:240px; margin: auto;"">
                                <img src=""images/map13_inferno_scaleRev_orientMir_270.png"" style= ""width:200px""alt=""img"">
                            </div>
                        </div>","16","","0","","","","images/map13_inferno_scaleRev_orientMir_270.png","angry","1","13","13","inferno","orientMir","scaleRev","270","",""
"","","","","","html-slider-response","70","211839","0.0-60.0","ojouepbntr","69","NaN","<div style=""width:500px;"">
                            <p style=""font-size:50px; font-weight:bold;""
                            >angry</p>
                            <div style=""width:240px; margin: auto;"">
                                <img src=""images/map15_Greys_scaleRev_orientMir_090.png"" style= ""width:200px""alt=""img"">
                            </div>
                        </div>","3","","0","","","","images/map15_Greys_scaleRev_orientMir_090.png","angry","1","15","15","Greys","orientMir","scaleRev","090","",""
"","","","","","html-slider-response","71","213688","0.0-61.0","ojouepbntr","69","NaN","<div style=""width:500px;"">
                            <p style=""font-size:50px; font-weight:bold;""
                            >angry</p>
                            <div style=""width:240px; margin: auto;"">
                                <img src=""images/map10_coolwarm_scaleRev_orientDef_270.png"" style= ""width:200px""alt=""img"">
                            </div>
                        </div>","40","","0","","","","images/map10_coolwarm_scaleRev_orientDef_270.png","angry","1","10","10","coolwarm","orientDef","scaleRev","270","",""
"","","","","","html-slider-response","72","215478","0.0-62.0","ojouepbntr","69","NaN","<div style=""width:500px;"">
                            <p style=""font-size:50px; font-weight:bold;""
                            >angry</p>
                            <div style=""width:240px; margin: auto;"">
                                <img src=""images/map02_YlGnBu_scaleRev_orientDef_090.png"" style= ""width:200px""alt=""img"">
                            </div>
                        </div>","-35","","0","","","","images/map02_YlGnBu_scaleRev_orientDef_090.png","angry","1","02","02","YlGnBu","orientDef","scaleRev","090","",""
"","","","","","html-slider-response","73","217088","0.0-63.0","ojouepbntr","69","NaN","<div style=""width:500px;"">
                            <p style=""font-size:50px; font-weight:bold;""
                            >angry</p>
                            <div style=""width:240px; margin: auto;"">
                                <img src=""images/map10_bwr_scaleRev_orientMir_090.png"" style= ""width:200px""alt=""img"">
                            </div>
                        </div>","26","","0","","","","images/map10_bwr_scaleRev_orientMir_090.png","angry","1","10","10","bwr","orientMir","scaleRev","090","",""
"","","","","","html-slider-response","74","218646","0.0-64.0","ojouepbntr","69","NaN","<div style=""width:500px;"">
                            <p style=""font-size:50px; font-weight:bold;""
                            >angry</p>
                            <div style=""width:240px; margin: auto;"">
                                <img src=""images/map15_magma_scaleRev_orientDef_090.png"" style= ""width:200px""alt=""img"">
                            </div>
                        </div>","-36","","0","","","","images/map15_magma_scaleRev_orientDef_090.png","angry","1","15","15","magma","orientDef","scaleRev","090","",""
"","","","","","html-slider-response","75","220106","0.0-65.0","ojouepbntr","69","NaN","<div style=""width:500px;"">
                            <p style=""font-size:50px; font-weight:bold;""
                            >angry</p>
                            <div style=""width:240px; margin: auto;"">
                                <img src=""images/map10_Spectral_scaleRev_orientDef_090.png"" style= ""width:200px""alt=""img"">
                            </div>
                        </div>","86","","0","","","","images/map10_Spectral_scaleRev_orientDef_090.png","angry","1","10","10","Spectral","orientDef","scaleRev","090","",""
"","","","","","html-slider-response","76","221905","0.0-66.0","ojouepbntr","69","NaN","<div style=""width:500px;"">
                            <p style=""font-size:50px; font-weight:bold;""
                            >angry</p>
                            <div style=""width:240px; margin: auto;"">
                                <img src=""images/map15_Greys_scaleDef_orientMir_000.png"" style= ""width:200px""alt=""img"">
                            </div>
                        </div>","1","","0","","","","images/map15_Greys_scaleDef_orientMir_000.png","angry","1","15","15","Greys","orientMir","scaleDef","000","",""
"","","","","","html-slider-response","77","225005","0.0-67.0","ojouepbntr","69","NaN","<div style=""width:500px;"">
                            <p style=""font-size:50px; font-weight:bold;""
                            >angry</p>
                            <div style=""width:240px; margin: auto;"">
                                <img src=""images/map23_Blues_scaleDef_orientDef_000.png"" style= ""width:200px""alt=""img"">
                            </div>
                        </div>","-58","","0","","","","images/map23_Blues_scaleDef_orientDef_000.png","angry","1","23","23","Blues","orientDef","scaleDef","000","",""
"","","","","","html-slider-response","78","226757","0.0-68.0","ojouepbntr","69","NaN","<div style=""width:500px;"">
                            <p style=""font-size:50px; font-weight:bold;""
                            >angry</p>
                            <div style=""width:240px; margin: auto;"">
                                <img src=""images/map15_cividis_scaleRev_orientDef_270.png"" style= ""width:200px""alt=""img"">
                            </div>
                        </div>","18","","0","","","","images/map15_cividis_scaleRev_orientDef_270.png","angry","1","15","15","cividis","orientDef","scaleRev","270","",""
"","","","","","html-slider-response","79","228489","0.0-69.0","ojouepbntr","69","NaN","<div style=""width:500px;"">
                            <p style=""font-size:50px; font-weight:bold;""
                            >angry</p>
                            <div style=""width:240px; margin: auto;"">
                                <img src=""images/map23_Blues_scaleRev_orientDef_090.png"" style= ""width:200px""alt=""img"">
                            </div>
                        </div>","-60","","0","","","","images/map23_Blues_scaleRev_orientDef_090.png","angry","1","23","23","Blues","orientDef","scaleRev","090","",""
"","","","","","html-slider-response","80","231492","0.0-70.0","ojouepbntr","69","NaN","<div style=""width:500px;"">
                            <p style=""font-size:50px; font-weight:bold;""
                            >angry</p>
                            <div style=""width:240px; margin: auto;"">
                                <img src=""images/map12_gist_earth_scaleDef_orientMir_180.png"" style= ""width:200px""alt=""img"">
                            </div>
                        </div>","-86","","0","","","","images/map12_gist_earth_scaleDef_orientMir_180.png","angry","1","12","12","gist","scaleDef","earth","orientMir","",""
"","","","","","html-slider-response","81","233122","0.0-71.0","ojouepbntr","69","NaN","<div style=""width:500px;"">
                            <p style=""font-size:50px; font-weight:bold;""
                            >angry</p>
                            <div style=""width:240px; margin: auto;"">
                                <img src=""images/map02_YlGn_scaleRev_orientMir_270.png"" style= ""width:200px""alt=""img"">
                            </div>
                        </div>","-86","","0","","","","images/map02_YlGn_scaleRev_orientMir_270.png","angry","1","02","02","YlGn","orientMir","scaleRev","270","",""
"","","","","","html-slider-response","82","235177","0.0-72.0","ojouepbntr","69","NaN","<div style=""width:500px;"">
                            <p style=""font-size:50px; font-weight:bold;""
                            >angry</p>
                            <div style=""width:240px; margin: auto;"">
                                <img src=""images/map07_RdGy_scaleRev_orientDef_090.png"" style= ""width:200px""alt=""img"">
                            </div>
                        </div>","101","","0","","","","images/map07_RdGy_scaleRev_orientDef_090.png","angry","1","07","07","RdGy","orientDef","scaleRev","090","",""
"","","","","","html-slider-response","83","237256","0.0-73.0","ojouepbntr","69","NaN","<div style=""width:500px;"">
                            <p style=""font-size:50px; font-weight:bold;""
                            >angry</p>
                            <div style=""width:240px; margin: auto;"">
                                <img src=""images/map07_RdYlGn_scaleDef_orientMir_180.png"" style= ""width:200px""alt=""img"">
                            </div>
                        </div>","97","","0","","","","images/map07_RdYlGn_scaleDef_orientMir_180.png","angry","1","07","07","RdYlGn","orientMir","scaleDef","180","",""
"","","","","","html-slider-response","84","239791","0.0-74.0","ojouepbntr","69","NaN","<div style=""width:500px;"">
                            <p style=""font-size:50px; font-weight:bold;""
                            >angry</p>
                            <div style=""width:240px; margin: auto;"">
                                <img src=""images/map23_Greens_scaleDef_orientDef_180.png"" style= ""width:200px""alt=""img"">
                            </div>
                        </div>","-77","","0","","","","images/map23_Greens_scaleDef_orientDef_180.png","angry","1","23","23","Greens","orientDef","scaleDef","180","",""
"","","","","","html-slider-response","85","241639","0.0-75.0","ojouepbntr","69","NaN","<div style=""width:500px;"">
                            <p style=""font-size:50px; font-weight:bold;""
                            >angry</p>
                            <div style=""width:240px; margin: auto;"">
                                <img src=""images/map10_coolwarm_scaleDef_orientDef_180.png"" style= ""width:200px""alt=""img"">
                            </div>
                        </div>","49","","0","","","","images/map10_coolwarm_scaleDef_orientDef_180.png","angry","1","10","10","coolwarm","orientDef","scaleDef","180","",""
"","","","","","html-slider-response","86","243561","0.0-76.0","ojouepbntr","69","NaN","<div style=""width:500px;"">
                            <p style=""font-size:50px; font-weight:bold;""
                            >angry</p>
                            <div style=""width:240px; margin: auto;"">
                                <img src=""images/map23_Greens_scaleRev_orientDef_270.png"" style= ""width:200px""alt=""img"">
                            </div>
                        </div>","-91","","0","","","","images/map23_Greens_scaleRev_orientDef_270.png","angry","1","23","23","Greens","orientDef","scaleRev","270","",""
"","","","","","html-slider-response","87","245555","0.0-77.0","ojouepbntr","69","NaN","<div style=""width:500px;"">
                            <p style=""font-size:50px; font-weight:bold;""
                            >angry</p>
                            <div style=""width:240px; margin: auto;"">
                                <img src=""images/map10_bwr_scaleDef_orientMir_000.png"" style= ""width:200px""alt=""img"">
                            </div>
                        </div>","83","","0","","","","images/map10_bwr_scaleDef_orientMir_000.png","angry","1","10","10","bwr","orientMir","scaleDef","000","",""
"","","","","","html-slider-response","88","247292","0.0-78.0","ojouepbntr","69","NaN","<div style=""width:500px;"">
                            <p style=""font-size:50px; font-weight:bold;""
                            >angry</p>
                            <div style=""width:240px; margin: auto;"">
                                <img src=""images/map27_PuBu_scaleRev_orientMir_270.png"" style= ""width:200px""alt=""img"">
                            </div>
                        </div>","-83","","0","","","","images/map27_PuBu_scaleRev_orientMir_270.png","angry","1","27","27","PuBu","orientMir","scaleRev","270","",""
"","","","","","html-slider-response","89","249344","0.0-79.0","ojouepbntr","69","NaN","<div style=""width:500px;"">
                            <p style=""font-size:50px; font-weight:bold;""
                            >angry</p>
                            <div style=""width:240px; margin: auto;"">
                                <img src=""images/map23_Oranges_scaleRev_orientMir_090.png"" style= ""width:200px""alt=""img"">
                            </div>
                        </div>","78","","0","","","","images/map23_Oranges_scaleRev_orientMir_090.png","angry","1","23","23","Oranges","orientMir","scaleRev","090","",""
"","","","","","html-slider-response","90","251309","0.0-80.0","ojouepbntr","69","NaN","<div style=""width:500px;"">
                            <p style=""font-size:50px; font-weight:bold;""
                            >angry</p>
                            <div style=""width:240px; margin: auto;"">
                                <img src=""images/map26_YlOrRd_scaleRev_orientDef_270.png"" style= ""width:200px""alt=""img"">
                            </div>
                        </div>","152","","0","","","","images/map26_YlOrRd_scaleRev_orientDef_270.png","angry","1","26","26","YlOrRd","orientDef","scaleRev","270","",""
"","","","","","html-slider-response","91","254621","0.0-81.0","ojouepbntr","69","NaN","<div style=""width:500px;"">
                            <p style=""font-size:50px; font-weight:bold;""
                            >angry</p>
                            <div style=""width:240px; margin: auto;"">
                                <img src=""images/map12_vanimo_scaleRev_orientMir_090.png"" style= ""width:200px""alt=""img"">
                            </div>
                        </div>","2","","0","","","","images/map12_vanimo_scaleRev_orientMir_090.png","angry","1","12","12","vanimo","orientMir","scaleRev","090","",""
"","","","","","html-slider-response","92","256372","0.0-82.0","ojouepbntr","69","NaN","<div style=""width:500px;"">
                            <p style=""font-size:50px; font-weight:bold;""
                            >angry</p>
                            <div style=""width:240px; margin: auto;"">
                                <img src=""images/map02_YlGnBu_scaleDef_orientDef_000.png"" style= ""width:200px""alt=""img"">
                            </div>
                        </div>","-31","","0","","","","images/map02_YlGnBu_scaleDef_orientDef_000.png","angry","1","02","02","YlGnBu","orientDef","scaleDef","000","",""
"","","","","","html-slider-response","93","258007","0.0-83.0","ojouepbntr","69","NaN","<div style=""width:500px;"">
                            <p style=""font-size:50px; font-weight:bold;""
                            >angry</p>
                            <div style=""width:240px; margin: auto;"">
                                <img src=""images/map02_BuGn_scaleDef_orientMir_000.png"" style= ""width:200px""alt=""img"">
                            </div>
                        </div>","-53","","0","","","","images/map02_BuGn_scaleDef_orientMir_000.png","angry","1","02","02","BuGn","orientMir","scaleDef","000","",""
"","","","","","html-slider-response","94","259756","0.0-84.0","ojouepbntr","69","NaN","<div style=""width:500px;"">
                            <p style=""font-size:50px; font-weight:bold;""
                            >angry</p>
                            <div style=""width:240px; margin: auto;"">
                                <img src=""images/map02_PuBuGn_scaleRev_orientDef_270.png"" style= ""width:200px""alt=""img"">
                            </div>
                        </div>","17","","0","","","","images/map02_PuBuGn_scaleRev_orientDef_270.png","angry","1","02","02","PuBuGn","orientDef","scaleRev","270","",""
"","","","","","html-slider-response","95","261645","0.0-85.0","ojouepbntr","69","NaN","<div style=""width:500px;"">
                            <p style=""font-size:50px; font-weight:bold;""
                            >angry</p>
                            <div style=""width:240px; margin: auto;"">
                                <img src=""images/map27_PuBu_scaleDef_orientMir_180.png"" style= ""width:200px""alt=""img"">
                            </div>
                        </div>","-19","","0","","","","images/map27_PuBu_scaleDef_orientMir_180.png","angry","1","27","27","PuBu","orientMir","scaleDef","180","",""
"","","","","","html-slider-response","96","263291","0.0-86.0","ojouepbntr","69","NaN","<div style=""width:500px;"">
                            <p style=""font-size:50px; font-weight:bold;""
                            >angry</p>
                            <div style=""width:240px; margin: auto;"">
                                <img src=""images/map15_Purples_scaleDef_orientMir_180.png"" style= ""width:200px""alt=""img"">
                            </div>
                        </div>","-16","","0","","","","images/map15_Purples_scaleDef_orientMir_180.png","angry","1","15","15","Purples","orientMir","scaleDef","180","",""
"","","","","","html-slider-response","97","265039","0.0-87.0","ojouepbntr","69","NaN","<div style=""width:500px;"">
                            <p style=""font-size:50px; font-weight:bold;""
                            >angry</p>
                            <div style=""width:240px; margin: auto;"">
                                <img src=""images/map05_BrBG_scaleRev_orientMir_090.png"" style= ""width:200px""alt=""img"">
                            </div>
                        </div>","46","","0","","","","images/map05_BrBG_scaleRev_orientMir_090.png","angry","1","05","05","BrBG","orientMir","scaleRev","090","",""
"","","","","","html-slider-response","98","266306","0.0-88.0","ojouepbntr","69","NaN","<div style=""width:500px;"">
                            <p style=""font-size:50px; font-weight:bold;""
                            >angry</p>
                            <div style=""width:240px; margin: auto;"">
                                <img src=""images/map02_PuBuGn_scaleDef_orientDef_180.png"" style= ""width:200px""alt=""img"">
                            </div>
                        </div>","47","","0","","","","images/map02_PuBuGn_scaleDef_orientDef_180.png","angry","1","02","02","PuBuGn","orientDef","scaleDef","180","",""
"","","","","","html-slider-response","99","267558","0.0-89.0","ojouepbntr","69","NaN","<div style=""width:500px;"">
                            <p style=""font-size:50px; font-weight:bold;""
                            >angry</p>
                            <div style=""width:240px; margin: auto;"">
                                <img src=""images/map07_RdYlBu_scaleDef_orientMir_000.png"" style= ""width:200px""alt=""img"">
                            </div>
                        </div>","55","","0","","","","images/map07_RdYlBu_scaleDef_orientMir_000.png","angry","1","07","07","RdYlBu","orientMir","scaleDef","000","",""
"","","","","","html-slider-response","100","268906","0.0-90.0","ojouepbntr","69","NaN","<div style=""width:500px;"">
                            <p style=""font-size:50px; font-weight:bold;""
                            >angry</p>
                            <div style=""width:240px; margin: auto;"">
                                <img src=""images/map10_seismic_scaleRev_orientMir_270.png"" style= ""width:200px""alt=""img"">
                            </div>
                        </div>","73","","0","","","","images/map10_seismic_scaleRev_orientMir_270.png","angry","1","10","10","seismic","orientMir","scaleRev","270","",""
"","","","","","html-slider-response","101","270273","0.0-91.0","ojouepbntr","69","NaN","<div style=""width:500px;"">
                            <p style=""font-size:50px; font-weight:bold;""
                            >angry</p>
                            <div style=""width:240px; margin: auto;"">
                                <img src=""images/map10_Spectral_scaleDef_orientDef_000.png"" style= ""width:200px""alt=""img"">
                            </div>
                        </div>","97","","0","","","","images/map10_Spectral_scaleDef_orientDef_000.png","angry","1","10","10","Spectral","orientDef","scaleDef","000","",""
"","","","","","html-slider-response","102","271345","0.0-92.0","ojouepbntr","69","NaN","<div style=""width:500px;"">
                            <p style=""font-size:50px; font-weight:bold;""
                            >angry</p>
                            <div style=""width:240px; margin: auto;"">
                                <img src=""images/map05_PuOr_scaleRev_orientMir_270.png"" style= ""width:200px""alt=""img"">
                            </div>
                        </div>","97","","0","","","","images/map05_PuOr_scaleRev_orientMir_270.png","angry","1","05","05","PuOr","orientMir","scaleRev","270","",""
"","","","","","html-slider-response","103","272472","0.0-93.0","ojouepbntr","69","NaN","<div style=""width:500px;"">
                            <p style=""font-size:50px; font-weight:bold;""
                            >angry</p>
                            <div style=""width:240px; margin: auto;"">
                                <img src=""images/map13_turbo_scaleRev_orientDef_090.png"" style= ""width:200px""alt=""img"">
                            </div>
                        </div>","96","","0","","","","images/map13_turbo_scaleRev_orientDef_090.png","angry","1","13","13","turbo","orientDef","scaleRev","090","",""
"","","","","","html-slider-response","104","274038","0.0-94.0","ojouepbntr","69","NaN","<div style=""width:500px;"">
                            <p style=""font-size:50px; font-weight:bold;""
                            >angry</p>
                            <div style=""width:240px; margin: auto;"">
                                <img src=""images/map07_RdYlBu_scaleRev_orientMir_090.png"" style= ""width:200px""alt=""img"">
                            </div>
                        </div>","126","","0","","","","images/map07_RdYlBu_scaleRev_orientMir_090.png","angry","1","07","07","RdYlBu","orientMir","scaleRev","090","",""
"","","","","","html-button-response","105","276616","0.0-95.0","ojouepbntr","69","2076","<p>Great Job! You've finished block 1.<br></br> You have 4 block(s) left to go.<br></br></p>","0","","","","","","","","","","","","","","","",""
"","","","","","html-button-response","106","277614","0.0-96.0","ojouepbntr","69","997","<p>In this block of trials, you will be asked to rate how much you associate each map with:</p > <p style = 'font-size:150%; font-weight: bold'>disgust</p><br></br>","0","","","","","","","","","","","","","","","",""
"","","","","","html-slider-response","107","278838","0.0-97.0","ojouepbntr","69","NaN","<div style=""width:500px;"">
                            <p style=""font-size:50px; font-weight:bold;""
                            >disgust</p>
                            <div style=""width:240px; margin: auto;"">
                                <img src=""images/map26_OrRd_scaleRev_orientMir_090.png"" style= ""width:200px""alt=""img"">
                            </div>
                        </div>","59","","0","","","","images/map26_OrRd_scaleRev_orientMir_090.png","disgust","1","26","26","OrRd","orientMir","scaleRev","090","",""
"","","","","","html-slider-response","108","280922","0.0-98.0","ojouepbntr","69","NaN","<div style=""width:500px;"">
                            <p style=""font-size:50px; font-weight:bold;""
                            >disgust</p>
                            <div style=""width:240px; margin: auto;"">
                                <img src=""images/map02_YlGn_scaleDef_orientMir_180.png"" style= ""width:200px""alt=""img"">
                            </div>
                        </div>","37","","0","","","","images/map02_YlGn_scaleDef_orientMir_180.png","disgust","1","02","02","YlGn","orientMir","scaleDef","180","",""
"","","","","","html-slider-response","109","282639","0.0-99.0","ojouepbntr","69","NaN","<div style=""width:500px;"">
                            <p style=""font-size:50px; font-weight:bold;""
                            >disgust</p>
                            <div style=""width:240px; margin: auto;"">
                                <img src=""images/map13_plasma_scaleRev_orientMir_090.png"" style= ""width:200px""alt=""img"">
                            </div>
                        </div>","-88","","0","","","","images/map13_plasma_scaleRev_orientMir_090.png","disgust","1","13","13","plasma","orientMir","scaleRev","090","",""
"","","","","","html-slider-response","110","283940","0.0-100.0","ojouepbntr","69","NaN","<div style=""width:500px;"">
                            <p style=""font-size:50px; font-weight:bold;""
                            >disgust</p>
                            <div style=""width:240px; margin: auto;"">
                                <img src=""images/map10_coolwarm_scaleDef_orientDef_180.png"" style= ""width:200px""alt=""img"">
                            </div>
                        </div>","88","","0","","","","images/map10_coolwarm_scaleDef_orientDef_180.png","disgust","1","10","10","coolwarm","orientDef","scaleDef","180","",""
"","","","","","html-slider-response","111","285538","0.0-101.0","ojouepbntr","69","NaN","<div style=""width:500px;"">
                            <p style=""font-size:50px; font-weight:bold;""
                            >disgust</p>
                            <div style=""width:240px; margin: auto;"">
                                <img src=""images/map27_GnBu_scaleRev_orientMir_090.png"" style= ""width:200px""alt=""img"">
                            </div>
                        </div>","-40","","0","","","","images/map27_GnBu_scaleRev_orientMir_090.png","disgust","1","27","27","GnBu","orientMir","scaleRev","090","",""
"","","","","","html-slider-response","112","287872","0.0-102.0","ojouepbntr","69","NaN","<div style=""width:500px;"">
                            <p style=""font-size:50px; font-weight:bold;""
                            >disgust</p>
                            <div style=""width:240px; margin: auto;"">
                                <img src=""images/map02_BuGn_scaleRev_orientMir_090.png"" style= ""width:200px""alt=""img"">
                            </div>
                        </div>","-36","","0","","","","images/map02_BuGn_scaleRev_orientMir_090.png","disgust","1","02","02","BuGn","orientMir","scaleRev","090","",""
"","","","","","html-slider-response","113","289773","0.0-103.0","ojouepbntr","69","NaN","<div style=""width:500px;"">
                            <p style=""font-size:50px; font-weight:bold;""
                            >disgust</p>
                            <div style=""width:240px; margin: auto;"">
                                <img src=""images/map13_inferno_scaleRev_orientMir_270.png"" style= ""width:200px""alt=""img"">
                            </div>
                        </div>","57","","0","","","","images/map13_inferno_scaleRev_orientMir_270.png","disgust","1","13","13","inferno","orientMir","scaleRev","270","",""
"","","","","","html-slider-response","114","290908","0.0-104.0","ojouepbntr","69","NaN","<div style=""width:500px;"">
                            <p style=""font-size:50px; font-weight:bold;""
                            >disgust</p>
                            <div style=""width:240px; margin: auto;"">
                                <img src=""images/map23_Oranges_scaleDef_orientMir_000.png"" style= ""width:200px""alt=""img"">
                            </div>
                        </div>","51","","0","","","","images/map23_Oranges_scaleDef_orientMir_000.png","disgust","1","23","23","Oranges","orientMir","scaleDef","000","",""
"","","","","","html-slider-response","115","292105","0.0-105.0","ojouepbntr","69","NaN","<div style=""width:500px;"">
                            <p style=""font-size:50px; font-weight:bold;""
                            >disgust</p>
                            <div style=""width:240px; margin: auto;"">
                                <img src=""images/map12_managua_scaleRev_orientDef_270.png"" style= ""width:200px""alt=""img"">
                            </div>
                        </div>","51","","0","","","","images/map12_managua_scaleRev_orientDef_270.png","disgust","1","12","12","managua","orientDef","scaleRev","270","",""
"","","","","","html-slider-response","116","293471","0.0-106.0","ojouepbntr","69","NaN","<div style=""width:500px;"">
                            <p style=""font-size:50px; font-weight:bold;""
                            >disgust</p>
                            <div style=""width:240px; margin: auto;"">
                                <img src=""images/map02_YlGnBu_scaleDef_orientDef_000.png"" style= ""width:200px""alt=""img"">
                            </div>
                        </div>","51","","0","","","","images/map02_YlGnBu_scaleDef_orientDef_000.png","disgust","1","02","02","YlGnBu","orientDef","scaleDef","000","",""
"","","","","","html-slider-response","117","294659","0.0-107.0","ojouepbntr","69","NaN","<div style=""width:500px;"">
                            <p style=""font-size:50px; font-weight:bold;""
                            >disgust</p>
                            <div style=""width:240px; margin: auto;"">
                                <img src=""images/map23_Oranges_scaleRev_orientMir_090.png"" style= ""width:200px""alt=""img"">
                            </div>
                        </div>","51","","0","","","","images/map23_Oranges_scaleRev_orientMir_090.png","disgust","1","23","23","Oranges","orientMir","scaleRev","090","",""
"","","","","","html-slider-response","118","295856","0.0-108.0","ojouepbntr","69","NaN","<div style=""width:500px;"">
                            <p style=""font-size:50px; font-weight:bold;""
                            >disgust</p>
                            <div style=""width:240px; margin: auto;"">
                                <img src=""images/map02_BuGn_scaleDef_orientMir_000.png"" style= ""width:200px""alt=""img"">
                            </div>
                        </div>","52","","0","","","","images/map02_BuGn_scaleDef_orientMir_000.png","disgust","1","02","02","BuGn","orientMir","scaleDef","000","",""
"","","","","","html-slider-response","119","296944","0.0-109.0","ojouepbntr","69","NaN","<div style=""width:500px;"">
                            <p style=""font-size:50px; font-weight:bold;""
                            >disgust</p>
                            <div style=""width:240px; margin: auto;"">
                                <img src=""images/map13_plasma_scaleDef_orientMir_000.png"" style= ""width:200px""alt=""img"">
                            </div>
                        </div>","52","","0","","","","images/map13_plasma_scaleDef_orientMir_000.png","disgust","1","13","13","plasma","orientMir","scaleDef","000","",""
"","","","","","html-slider-response","120","300291","0.0-110.0","ojouepbntr","69","NaN","<div style=""width:500px;"">
                            <p style=""font-size:50px; font-weight:bold;""
                            >disgust</p>
                            <div style=""width:240px; margin: auto;"">
                                <img src=""images/map15_magma_scaleDef_orientDef_000.png"" style= ""width:200px""alt=""img"">
                            </div>
                        </div>","-42","","0","","","","images/map15_magma_scaleDef_orientDef_000.png","disgust","1","15","15","magma","orientDef","scaleDef","000","",""
"","","","","","html-slider-response","121","302276","0.0-111.0","ojouepbntr","69","NaN","<div style=""width:500px;"">
                            <p style=""font-size:50px; font-weight:bold;""
                            >disgust</p>
                            <div style=""width:240px; margin: auto;"">
                                <img src=""images/map05_PuOr_scaleRev_orientMir_270.png"" style= ""width:200px""alt=""img"">
                            </div>
                        </div>","62","","0","","","","images/map05_PuOr_scaleRev_orientMir_270.png","disgust","1","05","05","PuOr","orientMir","scaleRev","270","",""
"","","","","","html-slider-response","122","304739","0.0-112.0","ojouepbntr","69","NaN","<div style=""width:500px;"">
                            <p style=""font-size:50px; font-weight:bold;""
                            >disgust</p>
                            <div style=""width:240px; margin: auto;"">
                                <img src=""images/map02_YlGn_scaleRev_orientMir_270.png"" style= ""width:200px""alt=""img"">
                            </div>
                        </div>","-40","","0","","","","images/map02_YlGn_scaleRev_orientMir_270.png","disgust","1","02","02","YlGn","orientMir","scaleRev","270","",""
"","","","","","html-slider-response","123","306389","0.0-113.0","ojouepbntr","69","NaN","<div style=""width:500px;"">
                            <p style=""font-size:50px; font-weight:bold;""
                            >disgust</p>
                            <div style=""width:240px; margin: auto;"">
                                <img src=""images/map27_GnBu_scaleDef_orientMir_000.png"" style= ""width:200px""alt=""img"">
                            </div>
                        </div>","-58","","0","","","","images/map27_GnBu_scaleDef_orientMir_000.png","disgust","1","27","27","GnBu","orientMir","scaleDef","000","",""
"","","","","","html-slider-response","124","308009","0.0-114.0","ojouepbntr","69","NaN","<div style=""width:500px;"">
                            <p style=""font-size:50px; font-weight:bold;""
                            >disgust</p>
                            <div style=""width:240px; margin: auto;"">
                                <img src=""images/map05_PRGn_scaleDef_orientDef_180.png"" style= ""width:200px""alt=""img"">
                            </div>
                        </div>","57","","0","","","","images/map05_PRGn_scaleDef_orientDef_180.png","disgust","1","05","05","PRGn","orientDef","scaleDef","180","",""
"","","","","","html-slider-response","125","309258","0.0-115.0","ojouepbntr","69","NaN","<div style=""width:500px;"">
                            <p style=""font-size:50px; font-weight:bold;""
                            >disgust</p>
                            <div style=""width:240px; margin: auto;"">
                                <img src=""images/map07_RdGy_scaleDef_orientDef_000.png"" style= ""width:200px""alt=""img"">
                            </div>
                        </div>","57","","0","","","","images/map07_RdGy_scaleDef_orientDef_000.png","disgust","1","07","07","RdGy","orientDef","scaleDef","000","",""
"","","","","","html-slider-response","126","310889","0.0-116.0","ojouepbntr","69","NaN","<div style=""width:500px;"">
                            <p style=""font-size:50px; font-weight:bold;""
                            >disgust</p>
                            <div style=""width:240px; margin: auto;"">
                                <img src=""images/map12_berlin_scaleRev_orientDef_090.png"" style= ""width:200px""alt=""img"">
                            </div>
                        </div>","128","","0","","","","images/map12_berlin_scaleRev_orientDef_090.png","disgust","1","12","12","berlin","orientDef","scaleRev","090","",""
"","","","","","html-slider-response","127","311938","0.0-117.0","ojouepbntr","69","NaN","<div style=""width:500px;"">
                            <p style=""font-size:50px; font-weight:bold;""
                            >disgust</p>
                            <div style=""width:240px; margin: auto;"">
                                <img src=""images/map12_managua_scaleDef_orientDef_180.png"" style= ""width:200px""alt=""img"">
                            </div>
                        </div>","128","","0","","","","images/map12_managua_scaleDef_orientDef_180.png","disgust","1","12","12","managua","orientDef","scaleDef","180","",""
"","","","","","html-slider-response","128","313007","0.0-118.0","ojouepbntr","69","NaN","<div style=""width:500px;"">
                            <p style=""font-size:50px; font-weight:bold;""
                            >disgust</p>
                            <div style=""width:240px; margin: auto;"">
                                <img src=""images/map26_YlOrBr_scaleRev_orientDef_090.png"" style= ""width:200px""alt=""img"">
                            </div>
                        </div>","127","","0","","","","images/map26_YlOrBr_scaleRev_orientDef_090.png","disgust","1","26","26","YlOrBr","orientDef","scaleRev","090","",""
"","","","","","html-slider-response","129","314088","0.0-119.0","ojouepbntr","69","NaN","<div style=""width:500px;"">
                            <p style=""font-size:50px; font-weight:bold;""
                            >disgust</p>
                            <div style=""width:240px; margin: auto;"">
                                <img src=""images/map12_vanimo_scaleRev_orientMir_090.png"" style= ""width:200px""alt=""img"">
                            </div>
                        </div>","127","","0","","","","images/map12_vanimo_scaleRev_orientMir_090.png","disgust","1","12","12","vanimo","orientMir","scaleRev","090","",""
"","","","","","html-slider-response","130","315173","0.0-120.0","ojouepbntr","69","NaN","<div style=""width:500px;"">
                            <p style=""font-size:50px; font-weight:bold;""
                            >disgust</p>
                            <div style=""width:240px; margin: auto;"">
                                <img src=""images/map10_Spectral_scaleRev_orientDef_090.png"" style= ""width:200px""alt=""img"">
                            </div>
                        </div>","127","","0","","","","images/map10_Spectral_scaleRev_orientDef_090.png","disgust","1","10","10","Spectral","orientDef","scaleRev","090","",""
"","","","","","html-slider-response","131","317589","0.0-121.0","ojouepbntr","69","NaN","<div style=""width:500px;"">
                            <p style=""font-size:50px; font-weight:bold;""
                            >disgust</p>
                            <div style=""width:240px; margin: auto;"">
                                <img src=""images/map02_PuBuGn_scaleDef_orientDef_180.png"" style= ""width:200px""alt=""img"">
                            </div>
                        </div>","32","","0","","","","images/map02_PuBuGn_scaleDef_orientDef_180.png","disgust","1","02","02","PuBuGn","orientDef","scaleDef","180","",""
"","","","","","html-slider-response","132","319022","0.0-122.0","ojouepbntr","69","NaN","<div style=""width:500px;"">
                            <p style=""font-size:50px; font-weight:bold;""
                            >disgust</p>
                            <div style=""width:240px; margin: auto;"">
                                <img src=""images/map27_PuBu_scaleRev_orientMir_270.png"" style= ""width:200px""alt=""img"">
                            </div>
                        </div>","50","","0","","","","images/map27_PuBu_scaleRev_orientMir_270.png","disgust","1","27","27","PuBu","orientMir","scaleRev","270","",""
"","","","","","html-slider-response","133","320644","0.0-123.0","ojouepbntr","69","NaN","<div style=""width:500px;"">
                            <p style=""font-size:50px; font-weight:bold;""
                            >disgust</p>
                            <div style=""width:240px; margin: auto;"">
                                <img src=""images/map10_bwr_scaleDef_orientMir_000.png"" style= ""width:200px""alt=""img"">
                            </div>
                        </div>","46","","0","","","","images/map10_bwr_scaleDef_orientMir_000.png","disgust","1","10","10","bwr","orientMir","scaleDef","000","",""
"","","","","","html-slider-response","134","321822","0.0-124.0","ojouepbntr","69","NaN","<div style=""width:500px;"">
                            <p style=""font-size:50px; font-weight:bold;""
                            >disgust</p>
                            <div style=""width:240px; margin: auto;"">
                                <img src=""images/map15_magma_scaleRev_orientDef_090.png"" style= ""width:200px""alt=""img"">
                            </div>
                        </div>","47","","0","","","","images/map15_magma_scaleRev_orientDef_090.png","disgust","1","15","15","magma","orientDef","scaleRev","090","",""
"","","","","","html-slider-response","135","323607","0.0-125.0","ojouepbntr","69","NaN","<div style=""width:500px;"">
                            <p style=""font-size:50px; font-weight:bold;""
                            >disgust</p>
                            <div style=""width:240px; margin: auto;"">
                                <img src=""images/map26_PuRd_scaleRev_orientMir_270.png"" style= ""width:200px""alt=""img"">
                            </div>
                        </div>","-50","","0","","","","images/map26_PuRd_scaleRev_orientMir_270.png","disgust","1","26","26","PuRd","orientMir","scaleRev","270","",""
"","","","","","html-slider-response","136","325224","0.0-126.0","ojouepbntr","69","NaN","<div style=""width:500px;"">
                            <p style=""font-size:50px; font-weight:bold;""
                            >disgust</p>
                            <div style=""width:240px; margin: auto;"">
                                <img src=""images/map10_Spectral_scaleDef_orientDef_000.png"" style= ""width:200px""alt=""img"">
                            </div>
                        </div>","71","","0","","","","images/map10_Spectral_scaleDef_orientDef_000.png","disgust","1","10","10","Spectral","orientDef","scaleDef","000","",""
"","","","","","html-slider-response","137","326272","0.0-127.0","ojouepbntr","69","NaN","<div style=""width:500px;"">
                            <p style=""font-size:50px; font-weight:bold;""
                            >disgust</p>
                            <div style=""width:240px; margin: auto;"">
                                <img src=""images/map07_RdBu_scaleRev_orientDef_270.png"" style= ""width:200px""alt=""img"">
                            </div>
                        </div>","71","","0","","","","images/map07_RdBu_scaleRev_orientDef_270.png","disgust","1","07","07","RdBu","orientDef","scaleRev","270","",""
"","","","","","html-slider-response","138","329492","0.0-128.0","ojouepbntr","69","NaN","<div style=""width:500px;"">
                            <p style=""font-size:50px; font-weight:bold;""
                            >disgust</p>
                            <div style=""width:240px; margin: auto;"">
                                <img src=""images/map13_viridis_scaleRev_orientDef_270.png"" style= ""width:200px""alt=""img"">
                            </div>
                        </div>","-48","","0","","","","images/map13_viridis_scaleRev_orientDef_270.png","disgust","1","13","13","viridis","orientDef","scaleRev","270","",""
"","","","","","html-slider-response","139","331389","0.0-129.0","ojouepbntr","69","NaN","<div style=""width:500px;"">
                            <p style=""font-size:50px; font-weight:bold;""
                            >disgust</p>
                            <div style=""width:240px; margin: auto;"">
                                <img src=""images/map10_bwr_scaleRev_orientMir_090.png"" style= ""width:200px""alt=""img"">
                            </div>
                        </div>","78","","0","","","","images/map10_bwr_scaleRev_orientMir_090.png","disgust","1","10","10","bwr","orientMir","scaleRev","090","",""
"","","","","","html-slider-response","140","333876","0.0-130.0","ojouepbntr","69","NaN","<div style=""width:500px;"">
                            <p style=""font-size:50px; font-weight:bold;""
                            >disgust</p>
                            <div style=""width:240px; margin: auto;"">
                                <img src=""images/map15_Purples_scaleDef_orientMir_180.png"" style= ""width:200px""alt=""img"">
                            </div>
                        </div>","76","","0","","","","images/map15_Purples_scaleDef_orientMir_180.png","disgust","1","15","15","Purples","orientMir","scaleDef","180","",""
"","","","","","html-slider-response","141","335423","0.0-131.0","ojouepbntr","69","NaN","<div style=""width:500px;"">
                            <p style=""font-size:50px; font-weight:bold;""
                            >disgust</p>
                            <div style=""width:240px; margin: auto;"">
                                <img src=""images/map12_vanimo_scaleDef_orientMir_000.png"" style= ""width:200px""alt=""img"">
                            </div>
                        </div>","76","","0","","","","images/map12_vanimo_scaleDef_orientMir_000.png","disgust","1","12","12","vanimo","orientMir","scaleDef","000","",""
"","","","","","html-slider-response","142","336811","0.0-132.0","ojouepbntr","69","NaN","<div style=""width:500px;"">
                            <p style=""font-size:50px; font-weight:bold;""
                            >disgust</p>
                            <div style=""width:240px; margin: auto;"">
                                <img src=""images/map13_turbo_scaleRev_orientDef_090.png"" style= ""width:200px""alt=""img"">
                            </div>
                        </div>","92","","0","","","","images/map13_turbo_scaleRev_orientDef_090.png","disgust","1","13","13","turbo","orientDef","scaleRev","090","",""
"","","","","","html-slider-response","143","338439","0.0-133.0","ojouepbntr","69","NaN","<div style=""width:500px;"">
                            <p style=""font-size:50px; font-weight:bold;""
                            >disgust</p>
                            <div style=""width:240px; margin: auto;"">
                                <img src=""images/map12_berlin_scaleDef_orientDef_000.png"" style= ""width:200px""alt=""img"">
                            </div>
                        </div>","122","","0","","","","images/map12_berlin_scaleDef_orientDef_000.png","disgust","1","12","12","berlin","orientDef","scaleDef","000","",""
"","","","","","html-slider-response","144","340810","0.0-134.0","ojouepbntr","69","NaN","<div style=""width:500px;"">
                            <p style=""font-size:50px; font-weight:bold;""
                            >disgust</p>
                            <div style=""width:240px; margin: auto;"">
                                <img src=""images/map23_Reds_scaleDef_orientMir_180.png"" style= ""width:200px""alt=""img"">
                            </div>
                        </div>","138","","0","","","","images/map23_Reds_scaleDef_orientMir_180.png","disgust","1","23","23","Reds","orientMir","scaleDef","180","",""
"","","","","","html-slider-response","145","341909","0.0-135.0","ojouepbntr","69","NaN","<div style=""width:500px;"">
                            <p style=""font-size:50px; font-weight:bold;""
                            >disgust</p>
                            <div style=""width:240px; margin: auto;"">
                                <img src=""images/map26_YlOrRd_scaleDef_orientDef_180.png"" style= ""width:200px""alt=""img"">
                            </div>
                        </div>","136","","0","","","","images/map26_YlOrRd_scaleDef_orientDef_180.png","disgust","1","26","26","YlOrRd","orientDef","scaleDef","180","",""
"","","","","","html-slider-response","146","343222","0.0-136.0","ojouepbntr","69","NaN","<div style=""width:500px;"">
                            <p style=""font-size:50px; font-weight:bold;""
                            >disgust</p>
                            <div style=""width:240px; margin: auto;"">
                                <img src=""images/map05_PRGn_scaleRev_orientDef_270.png"" style= ""width:200px""alt=""img"">
                            </div>
                        </div>","127","","0","","","","images/map05_PRGn_scaleRev_orientDef_270.png","disgust","1","05","05","PRGn","orientDef","scaleRev","270","",""
"","","","","","html-button-response","147","344793","0.0-137.0","ojouepbntr","69","1068","<p>You are doing great!<br></br> You are halway done with the current block. When you are ready to continue, click the 'Continue' button.</p>","0","","","","","","","","","","","","","","","",""
"","","","","","html-slider-response","148","346171","0.0-138.0","ojouepbntr","69","NaN","<div style=""width:500px;"">
                            <p style=""font-size:50px; font-weight:bold;""
                            >disgust</p>
                            <div style=""width:240px; margin: auto;"">
                                <img src=""images/map05_BrBG_scaleDef_orientMir_000.png"" style= ""width:200px""alt=""img"">
                            </div>
                        </div>","58","","0","","","","images/map05_BrBG_scaleDef_orientMir_000.png","disgust","1","05","05","BrBG","orientMir","scaleDef","000","",""
"","","","","","html-slider-response","149","347795","0.0-139.0","ojouepbntr","69","NaN","<div style=""width:500px;"">
                            <p style=""font-size:50px; font-weight:bold;""
                            >disgust</p>
                            <div style=""width:240px; margin: auto;"">
                                <img src=""images/map26_PuRd_scaleDef_orientMir_180.png"" style= ""width:200px""alt=""img"">
                            </div>
                        </div>","-76","","0","","","","images/map26_PuRd_scaleDef_orientMir_180.png","disgust","1","26","26","PuRd","orientMir","scaleDef","180","",""
"","","","","","html-slider-response","150","349375","0.0-140.0","ojouepbntr","69","NaN","<div style=""width:500px;"">
                            <p style=""font-size:50px; font-weight:bold;""
                            >disgust</p>
                            <div style=""width:240px; margin: auto;"">
                                <img src=""images/map27_PuBu_scaleDef_orientMir_180.png"" style= ""width:200px""alt=""img"">
                            </div>
                        </div>","-98","","0","","","","images/map27_PuBu_scaleDef_orientMir_180.png","disgust","1","27","27","PuBu","orientMir","scaleDef","180","",""
"","","","","","html-slider-response","151","352039","0.0-141.0","ojouepbntr","69","NaN","<div style=""width:500px;"">
                            <p style=""font-size:50px; font-weight:bold;""
                            >disgust</p>
                            <div style=""width:240px; margin: auto;"">
                                <img src=""images/map15_Greys_scaleDef_orientMir_000.png"" style= ""width:200px""alt=""img"">
                            </div>
                        </div>","-74","","0","","","","images/map15_Greys_scaleDef_orientMir_000.png","disgust","1","15","15","Greys","orientMir","scaleDef","000","",""
"","","","","","html-slider-response","152","353722","0.0-142.0","ojouepbntr","69","NaN","<div style=""width:500px;"">
                            <p style=""font-size:50px; font-weight:bold;""
                            >disgust</p>
                            <div style=""width:240px; margin: auto;"">
                                <img src=""images/map12_gist_earth_scaleDef_orientMir_180.png"" style= ""width:200px""alt=""img"">
                            </div>
                        </div>","-58","","0","","","","images/map12_gist_earth_scaleDef_orientMir_180.png","disgust","1","12","12","gist","scaleDef","earth","orientMir","",""
"","","","","","html-slider-response","153","355310","0.0-143.0","ojouepbntr","69","NaN","<div style=""width:500px;"">
                            <p style=""font-size:50px; font-weight:bold;""
                            >disgust</p>
                            <div style=""width:240px; margin: auto;"">
                                <img src=""images/map15_Greys_scaleRev_orientMir_090.png"" style= ""width:200px""alt=""img"">
                            </div>
                        </div>","-58","","0","","","","images/map15_Greys_scaleRev_orientMir_090.png","disgust","1","15","15","Greys","orientMir","scaleRev","090","",""
"","","","","","html-slider-response","154","357308","0.0-144.0","ojouepbntr","69","NaN","<div style=""width:500px;"">
                            <p style=""font-size:50px; font-weight:bold;""
                            >disgust</p>
                            <div style=""width:240px; margin: auto;"">
                                <img src=""images/map13_viridis_scaleDef_orientDef_180.png"" style= ""width:200px""alt=""img"">
                            </div>
                        </div>","-62","","0","","","","images/map13_viridis_scaleDef_orientDef_180.png","disgust","1","13","13","viridis","orientDef","scaleDef","180","",""
"","","","","","html-slider-response","155","358589","0.0-145.0","ojouepbntr","69","NaN","<div style=""width:500px;"">
                            <p style=""font-size:50px; font-weight:bold;""
                            >disgust</p>
                            <div style=""width:240px; margin: auto;"">
                                <img src=""images/map02_PuBuGn_scaleRev_orientDef_270.png"" style= ""width:200px""alt=""img"">
                            </div>
                        </div>","-62","","0","","","","images/map02_PuBuGn_scaleRev_orientDef_270.png","disgust","1","02","02","PuBuGn","orientDef","scaleRev","270","",""
"","","","","","html-slider-response","156","359822","0.0-146.0","ojouepbntr","69","NaN","<div style=""width:500px;"">
                            <p style=""font-size:50px; font-weight:bold;""
                            >disgust</p>
                            <div style=""width:240px; margin: auto;"">
                                <img src=""images/map23_Greens_scaleDef_orientDef_180.png"" style= ""width:200px""alt=""img"">
                            </div>
                        </div>","-62","","0","","","","images/map23_Greens_scaleDef_orientDef_180.png","disgust","1","23","23","Greens","orientDef","scaleDef","180","",""
"","","","","","html-slider-response","157","361589","0.0-147.0","ojouepbntr","69","NaN","<div style=""width:500px;"">
                            <p style=""font-size:50px; font-weight:bold;""
                            >disgust</p>
                            <div style=""width:240px; margin: auto;"">
                                <img src=""images/map07_RdYlBu_scaleDef_orientMir_000.png"" style= ""width:200px""alt=""img"">
                            </div>
                        </div>","127","","0","","","","images/map07_RdYlBu_scaleDef_orientMir_000.png","disgust","1","07","07","RdYlBu","orientMir","scaleDef","000","",""
"","","","","","html-slider-response","158","362744","0.0-148.0","ojouepbntr","69","NaN","<div style=""width:500px;"">
                            <p style=""font-size:50px; font-weight:bold;""
                            >disgust</p>
                            <div style=""width:240px; margin: auto;"">
                                <img src=""images/map10_coolwarm_scaleRev_orientDef_270.png"" style= ""width:200px""alt=""img"">
                            </div>
                        </div>","103","","0","","","","images/map10_coolwarm_scaleRev_orientDef_270.png","disgust","1","10","10","coolwarm","orientDef","scaleRev","270","",""
"","","","","","html-slider-response","159","364172","0.0-149.0","ojouepbntr","69","NaN","<div style=""width:500px;"">
                            <p style=""font-size:50px; font-weight:bold;""
                            >disgust</p>
                            <div style=""width:240px; margin: auto;"">
                                <img src=""images/map13_inferno_scaleDef_orientMir_180.png"" style= ""width:200px""alt=""img"">
                            </div>
                        </div>","120","","0","","","","images/map13_inferno_scaleDef_orientMir_180.png","disgust","1","13","13","inferno","orientMir","scaleDef","180","",""
"","","","","","html-slider-response","160","365439","0.0-150.0","ojouepbntr","69","NaN","<div style=""width:500px;"">
                            <p style=""font-size:50px; font-weight:bold;""
                            >disgust</p>
                            <div style=""width:240px; margin: auto;"">
                                <img src=""images/map07_RdGy_scaleRev_orientDef_090.png"" style= ""width:200px""alt=""img"">
