"success","timeout","failed_images","failed_audio","failed_video","trial_type","trial_index","time_elapsed","internal_node_id","subject_id","condition_num","rt","stimulus","response","question_order","slider_start","practiceTrial","practiceTrialNum","correct","image_path","concept","repetition","map_id","map_num","scale_name","orientation_code","mapping_code","rotation_code","ishihara_plate","correct_response"
"true","false","[]","[]","[]","preload","0","871","0.0-0.0","ossat63tpc","72","","","","","","","","","","","","","","","","","","",""
"","","","","","html-button-response","1","1634","0.0-1.0","ossat63tpc","72","762","Welcome to our experiment!<p>At the bottom of this screen, you will see a button that says ""Begin Experiment"".<br>Please only click that button when you are ready to complete the 30 minute experiment in one sitting.</p><p> Once you click that button, it will not be possible to restart the experiment.","0","","","","","","","","","","","","","","","",""
"true","","","","","fullscreen","2","3545","0.0-2.0","ossat63tpc","72","904","","","","","","","","","","","","","","","","","",""
"","","","","","survey-multi-select","3","6808","0.0-3.0","ossat63tpc","72","3256","","{""Consent"":[""<strong>I consent</strong>""]}","[0]","","","","","","","","","","","","","","",""
"","","","","","html-button-response","4","8020","0.0-4.0","ossat63tpc","72","1211","Welcome! <p> This experiment involves two parts: demographic information, followed by the experimental task.<p> It will take about 30 minutes to complete both parts.","0","","","","","","","","","","","","","","","",""
"","","","","","survey-text","5","21059","0.0-5.0","ossat63tpc","72","13033","","{""Age"":""18"",""Gender"":""F"",""Race/ethnicity"":""Hispanic"",""Languages"":""English, Spanish""}","","","","","","","","","","","","","","","",""
"","","","","","html-slider-response","6","176890","0.0-6.0","ossat63tpc","72","155827","<div style='text-align:left; font-size:20px; line-height:25px; width: 1000px;'>
                                During this experiment you will be asked to rate how much you associate maps with                    different concepts.<br> Below, you can see some examples of the maps you will be asked to rate. Above the maps
                    is the list of concepts.<br>You will be asked                    to rate how much you associate each map with each concept on a scale from 'not at all' to 'very much' like the
                    one below. <br><br>
                    Now, please look at the list of concepts and maps. For each concept, think about the map you associate 'very
                    much' with the concept.<br>                     When you see that map during the experiment, please rate it near the 'very much' endpoint of the
                    scale.<br>Now, please think about which map you associate 'not at all'                     with each concept. When you see that map during the experiment, please rate it near the 'not at all' endpoint
                    of the scale.<br>
                    Please use the full range of the scale. That is, if a map is somewhat associated with the concept, you would
                    click partway between the middle point and right side of the scale.                    You will be asked to rate each map for a given concept before moving on to the next concept.<br>Press the
                    'Continue' button for instructions on how to use the slider.                    <br>
                </div>

                <div style=""width: 500px; margin: 0 auto;"">
                    <!-- Centered text paragraphs -->
                    <div style=""text-align: center; width: 500px;"">
                        <p style=""font-size:25px; line-height:15px;"">
                            sad&nbsp;&nbsp;&nbsp;&nbsp;
                            angry&nbsp;&nbsp;&nbsp;&nbsp;
                            fearful&nbsp;&nbsp;&nbsp;&nbsp;
                            happy&nbsp;&nbsp;&nbsp;&nbsp;
                            disgust
                        </p>
                        <!-- <p style=""font-size:20px; line-height:15px;"">angry</p>
                        <p style=""font-size:20px;line-height:15px;"">fearful</p>
                        <p style=""font-size:20px;line-height:15px;"">happy</p>
                        <p style=""font-size:20px;line-height:15px;"">disgust</p> -->
                    </div>
            

                    <!-- Grid section -->
                   <div style=""display: flex; justify-content: center; padding-top: 15px;"">
                    <div style=""display: grid; grid-template-columns: repeat(10, 55px); grid-gap: 5px; width: auto;"">
                        <img src=""images/map27_viridis_scaleRev_orientDef_090.png"" alt=""map"" style=""width: 100%;""><img src=""images/map02_cividis_scaleRev_orientDef_090.png"" alt=""map"" style=""width: 100%;""><img src=""images/map10_GnBu_scaleDef_orientDef_180.png"" alt=""map"" style=""width: 100%;""><img src=""images/map12_PuBuGn_scaleDef_orientDef_000.png"" alt=""map"" style=""width: 100%;""><img src=""images/map26_managua_scaleRev_orientDef_090.png"" alt=""map"" style=""width: 100%;""><img src=""images/map02_Greys_scaleRev_orientDef_270.png"" alt=""map"" style=""width: 100%;""><img src=""images/map23_coolwarm_scaleRev_orientDef_090.png"" alt=""map"" style=""width: 100%;""><img src=""images/map26_turbo_scaleDef_orientMir_180.png"" alt=""map"" style=""width: 100%;""><img src=""images/map02_Purples_scaleRev_orientMir_090.png"" alt=""map"" style=""width: 100%;""><img src=""images/map23_seismic_scaleRev_orientMir_090.png"" alt=""map"" style=""width: 100%;""><img src=""images/map05_Oranges_scaleRev_orientDef_270.png"" alt=""map"" style=""width: 100%;""><img src=""images/map05_Reds_scaleRev_orientMir_090.png"" alt=""map"" style=""width: 100%;""><img src=""images/map07_YlOrRd_scaleDef_orientDef_000.png"" alt=""map"" style=""width: 100%;""><img src=""images/map13_PuOr_scaleRev_orientMir_090.png"" alt=""map"" style=""width: 100%;""><img src=""images/map15_RdBu_scaleDef_orientDef_000.png"" alt=""map"" style=""width: 100%;""><img src=""images/map26_gist_earth_scaleRev_orientMir_090.png"" alt=""map"" style=""width: 100%;""><img src=""images/map12_PiYG_scaleDef_orientMir_180.png"" alt=""map"" style=""width: 100%;""><img src=""images/map10_PuBu_scaleDef_orientMir_000.png"" alt=""map"" style=""width: 100%;""><img src=""images/map27_plasma_scaleDef_orientDef_180.png"" alt=""map"" style=""width: 100%;""><img src=""images/map15_Spectral_scaleRev_orientMir_270.png"" alt=""map"" style=""width: 100%;""><img src=""images/map05_Greens_scaleDef_orientDef_000.png"" alt=""map"" style=""width: 100%;""><img src=""images/map27_magma_scaleDef_orientMir_180.png"" alt=""map"" style=""width: 100%;""><img src=""images/map12_YlGn_scaleRev_orientMir_090.png"" alt=""map"" style=""width: 100%;""><img src=""images/map05_YlOrBr_scaleDef_orientMir_180.png"" alt=""map"" style=""width: 100%;""><img src=""images/map15_RdYlBu_scaleRev_orientDef_270.png"" alt=""map"" style=""width: 100%;""><img src=""images/map02_Blues_scaleRev_orientMir_270.png"" alt=""map"" style=""width: 100%;""><img src=""images/map13_PRGn_scaleDef_orientDef_000.png"" alt=""map"" style=""width: 100%;""><img src=""images/map13_BrBG_scaleRev_orientDef_270.png"" alt=""map"" style=""width: 100%;""><img src=""images/map07_OrRd_scaleRev_orientDef_270.png"" alt=""map"" style=""width: 100%;""><img src=""images/map10_BuPu_scaleDef_orientDef_000.png"" alt=""map"" style=""width: 100%;""><img src=""images/map23_bwr_scaleRev_orientDef_270.png"" alt=""map"" style=""width: 100%;""><img src=""images/map07_PuRd_scaleDef_orientMir_000.png"" alt=""map"" style=""width: 100%;""><img src=""images/map15_RdYlGn_scaleRev_orientMir_090.png"" alt=""map"" style=""width: 100%;""><img src=""images/map23_berlin_scaleRev_orientMir_270.png"" alt=""map"" style=""width: 100%;""><img src=""images/map27_inferno_scaleRev_orientMir_090.png"" alt=""map"" style=""width: 100%;""><img src=""images/map26_vanimo_scaleRev_orientDef_270.png"" alt=""map"" style=""width: 100%;""><img src=""images/map10_YlGnBu_scaleRev_orientMir_270.png"" alt=""map"" style=""width: 100%;""><img src=""images/map12_BuGn_scaleDef_orientDef_180.png"" alt=""map"" style=""width: 100%;""><img src=""images/map13_RdGy_scaleRev_orientMir_270.png"" alt=""map"" style=""width: 100%;""><img src=""images/map07_RdPu_scaleRev_orientMir_270.png"" alt=""map"" style=""width: 100%;"">
                    </div>
                </div>

                    <!-- Clear floats -->
                    <div style=""clear: both;""></div>
                </div>
                            ","0","","0","true","","","","","","","","","","","","",""
"","","","","","html-button-response","7","178765","0.0-7.0","ossat63tpc","72","1873","<div style=""width:800px;""><p style=""text-align:left"">To move the slider, click and drag your cursor to the location of the scale where you would like to make your rating and then let go. When you let go of the slider, your response will be recorded and the next trial will begin. <br>
                    We are interested in your initial impressions of each map for the given concept, so please go with your first intuition. <br>
                    Before you begin the experiment, there will be four training trials for you to practice using the scale. <br>
                     When you are ready to start the training trials, please click ""Continue"".</p><br></div>","0","","","","","","","","","","","","","","","",""
"","","","","","html-slider-response","8","182844","0.0-8.0-0.0","ossat63tpc","72","NaN","<div style=""width:500px;"">
                                    <p style=""font-size:25px;"">Please move the slider all the way to the <br> right endpoint of the scale</p>

                                    </div>
                                </div>","200","","0","true","0","true","","","","","","","","","","",""
"","","","","","html-button-response","9","184344","0.0-8.0-1.0","ossat63tpc","72","988","<p align='center'><b>Good job!</b> Click on 'Continue' to proceed.</p>","0","","","","","","","","","","","","","","","",""
"","","","","","html-slider-response","10","186540","0.0-9.0-0.0","ossat63tpc","72","NaN","<div style=""width:500px;"">
                                    <p style=""font-size:25px;"">Please move the slider all the way to the <br> left endpoint of the scale</p>

                                    </div>
                                </div>","-200","","0","true","1","true","","","","","","","","","","",""
"","","","","","html-button-response","11","187832","0.0-9.0-1.0","ossat63tpc","72","784","<p align='center'><b>Good job!</b> Click on 'Continue' to proceed.</p>","0","","","","","","","","","","","","","","","",""
"","","","","","html-slider-response","12","194211","0.0-10.0-0.0","ossat63tpc","72","NaN","<div style=""width:500px;"">
                                    <p style=""font-size:25px;"">Please move the slider halfway between the center and right endpoint of the scale</p>

                                    </div>
                                </div>","103","","0","true","2","true","","","","","","","","","","",""
"","","","","","html-button-response","13","195668","0.0-10.0-1.0","ossat63tpc","72","950","<p align='center'><b>Good job!</b> Click on 'Continue' to proceed.</p>","0","","","","","","","","","","","","","","","",""
"","","","","","html-slider-response","14","197511","0.0-11.0-0.0","ossat63tpc","72","NaN","<div style=""width:500px;"">
                                    <p style=""font-size:25px;"">Please move the slider halfway between the center and left endpoint of the scale</p>

                                    </div>
                                </div>","-106","","0","true","3","true","","","","","","","","","","",""
"","","","","","html-button-response","15","199194","0.0-11.0-1.0","ossat63tpc","72","1180","<p align='center'><b>Good job!</b> Click on 'Continue' to proceed.</p>","0","","","","","","","","","","","","","","","",""
"","","","","","html-button-response","16","200363","0.0-12.0","ossat63tpc","72","1168","<p>Great job! You've completed the practice trials. Now you will begin the main task.</p>","0","","","","","","","","","","","","","","","",""
"","","","","","html-button-response","17","203756","0.0-13.0","ossat63tpc","72","3392","<p>In this block of trials, you will be asked to rate how much you associate each map with:</p > <p style = 'font-size:150%; font-weight: bold'>sad</p><br></br>","0","","","","","","","","","","","","","","","",""
"","","","","","html-slider-response","18","207622","0.0-14.0","ossat63tpc","72","NaN","<div style=""width:500px;"">
                            <p style=""font-size:50px; font-weight:bold;""
                            >sad</p>
                            <div style=""width:240px; margin: auto;"">
                                <img src=""images/map13_RdGy_scaleDef_orientMir_180.png"" style= ""width:200px""alt=""img"">
                            </div>
                        </div>","104","","0","","","","images/map13_RdGy_scaleDef_orientMir_180.png","sad","1","13","13","RdGy","orientMir","scaleDef","180","",""
"","","","","","html-slider-response","19","211821","0.0-15.0","ossat63tpc","72","NaN","<div style=""width:500px;"">
                            <p style=""font-size:50px; font-weight:bold;""
                            >sad</p>
                            <div style=""width:240px; margin: auto;"">
                                <img src=""images/map05_Reds_scaleRev_orientMir_090.png"" style= ""width:200px""alt=""img"">
                            </div>
                        </div>","6","","0","","","","images/map05_Reds_scaleRev_orientMir_090.png","sad","1","05","05","Reds","orientMir","scaleRev","090","",""
"","","","","","html-slider-response","20","217066","0.0-16.0","ossat63tpc","72","NaN","<div style=""width:500px;"">
                            <p style=""font-size:50px; font-weight:bold;""
                            >sad</p>
                            <div style=""width:240px; margin: auto;"">
                                <img src=""images/map13_PRGn_scaleRev_orientDef_090.png"" style= ""width:200px""alt=""img"">
                            </div>
                        </div>","-88","","0","","","","images/map13_PRGn_scaleRev_orientDef_090.png","sad","1","13","13","PRGn","orientDef","scaleRev","090","",""
"","","","","","html-slider-response","21","220152","0.0-17.0","ossat63tpc","72","NaN","<div style=""width:500px;"">
                            <p style=""font-size:50px; font-weight:bold;""
                            >sad</p>
                            <div style=""width:240px; margin: auto;"">
                                <img src=""images/map23_bwr_scaleDef_orientDef_180.png"" style= ""width:200px""alt=""img"">
                            </div>
                        </div>","46","","0","","","","images/map23_bwr_scaleDef_orientDef_180.png","sad","1","23","23","bwr","orientDef","scaleDef","180","",""
"","","","","","html-slider-response","22","222084","0.0-18.0","ossat63tpc","72","NaN","<div style=""width:500px;"">
                            <p style=""font-size:50px; font-weight:bold;""
                            >sad</p>
                            <div style=""width:240px; margin: auto;"">
                                <img src=""images/map27_plasma_scaleDef_orientDef_180.png"" style= ""width:200px""alt=""img"">
                            </div>
                        </div>","-114","","0","","","","images/map27_plasma_scaleDef_orientDef_180.png","sad","1","27","27","plasma","orientDef","scaleDef","180","",""
"","","","","","html-slider-response","23","226101","0.0-19.0","ossat63tpc","72","NaN","<div style=""width:500px;"">
                            <p style=""font-size:50px; font-weight:bold;""
                            >sad</p>
                            <div style=""width:240px; margin: auto;"">
                                <img src=""images/map13_BrBG_scaleDef_orientDef_180.png"" style= ""width:200px""alt=""img"">
                            </div>
                        </div>","43","","0","","","","images/map13_BrBG_scaleDef_orientDef_180.png","sad","1","13","13","BrBG","orientDef","scaleDef","180","",""
"","","","","","html-slider-response","24","228357","0.0-20.0","ossat63tpc","72","NaN","<div style=""width:500px;"">
                            <p style=""font-size:50px; font-weight:bold;""
                            >sad</p>
                            <div style=""width:240px; margin: auto;"">
                                <img src=""images/map27_inferno_scaleDef_orientMir_000.png"" style= ""width:200px""alt=""img"">
                            </div>
                        </div>","48","","0","","","","images/map27_inferno_scaleDef_orientMir_000.png","sad","1","27","27","inferno","orientMir","scaleDef","000","",""
"","","","","","html-slider-response","25","230027","0.0-21.0","ossat63tpc","72","NaN","<div style=""width:500px;"">
                            <p style=""font-size:50px; font-weight:bold;""
                            >sad</p>
                            <div style=""width:240px; margin: auto;"">
                                <img src=""images/map13_PRGn_scaleDef_orientDef_000.png"" style= ""width:200px""alt=""img"">
                            </div>
                        </div>","-110","","0","","","","images/map13_PRGn_scaleDef_orientDef_000.png","sad","1","13","13","PRGn","orientDef","scaleDef","000","",""
"","","","","","html-slider-response","26","232754","0.0-22.0","ossat63tpc","72","NaN","<div style=""width:500px;"">
                            <p style=""font-size:50px; font-weight:bold;""
                            >sad</p>
                            <div style=""width:240px; margin: auto;"">
                                <img src=""images/map02_Blues_scaleRev_orientMir_270.png"" style= ""width:200px""alt=""img"">
                            </div>
                        </div>","200","","0","","","","images/map02_Blues_scaleRev_orientMir_270.png","sad","1","02","02","Blues","orientMir","scaleRev","270","",""
"","","","","","html-slider-response","27","234931","0.0-23.0","ossat63tpc","72","NaN","<div style=""width:500px;"">
                            <p style=""font-size:50px; font-weight:bold;""
                            >sad</p>
                            <div style=""width:240px; margin: auto;"">
                                <img src=""images/map10_PuBu_scaleDef_orientMir_000.png"" style= ""width:200px""alt=""img"">
                            </div>
                        </div>","154","","0","","","","images/map10_PuBu_scaleDef_orientMir_000.png","sad","1","10","10","PuBu","orientMir","scaleDef","000","",""
"","","","","","html-slider-response","28","236943","0.0-24.0","ossat63tpc","72","NaN","<div style=""width:500px;"">
                            <p style=""font-size:50px; font-weight:bold;""
                            >sad</p>
                            <div style=""width:240px; margin: auto;"">
                                <img src=""images/map13_BrBG_scaleRev_orientDef_270.png"" style= ""width:200px""alt=""img"">
                            </div>
                        </div>","75","","0","","","","images/map13_BrBG_scaleRev_orientDef_270.png","sad","1","13","13","BrBG","orientDef","scaleRev","270","",""
"","","","","","html-slider-response","29","238771","0.0-25.0","ossat63tpc","72","NaN","<div style=""width:500px;"">
                            <p style=""font-size:50px; font-weight:bold;""
                            >sad</p>
                            <div style=""width:240px; margin: auto;"">
                                <img src=""images/map12_YlGn_scaleDef_orientMir_000.png"" style= ""width:200px""alt=""img"">
                            </div>
                        </div>","-179","","0","","","","images/map12_YlGn_scaleDef_orientMir_000.png","sad","1","12","12","YlGn","orientMir","scaleDef","000","",""
"","","","","","html-slider-response","30","240699","0.0-26.0","ossat63tpc","72","NaN","<div style=""width:500px;"">
                            <p style=""font-size:50px; font-weight:bold;""
                            >sad</p>
                            <div style=""width:240px; margin: auto;"">
                                <img src=""images/map27_magma_scaleDef_orientMir_180.png"" style= ""width:200px""alt=""img"">
                            </div>
                        </div>","-70","","0","","","","images/map27_magma_scaleDef_orientMir_180.png","sad","1","27","27","magma","orientMir","scaleDef","180","",""
"","","","","","html-slider-response","31","242675","0.0-27.0","ossat63tpc","72","NaN","<div style=""width:500px;"">
                            <p style=""font-size:50px; font-weight:bold;""
                            >sad</p>
                            <div style=""width:240px; margin: auto;"">
                                <img src=""images/map26_gist_earth_scaleDef_orientMir_000.png"" style= ""width:200px""alt=""img"">
                            </div>
                        </div>","-85","","0","","","","images/map26_gist_earth_scaleDef_orientMir_000.png","sad","1","26","26","gist","scaleDef","earth","orientMir","",""
"","","","","","html-slider-response","32","244533","0.0-28.0","ossat63tpc","72","NaN","<div style=""width:500px;"">
                            <p style=""font-size:50px; font-weight:bold;""
                            >sad</p>
                            <div style=""width:240px; margin: auto;"">
                                <img src=""images/map26_managua_scaleDef_orientDef_000.png"" style= ""width:200px""alt=""img"">
                            </div>
                        </div>","66","","0","","","","images/map26_managua_scaleDef_orientDef_000.png","sad","1","26","26","managua","orientDef","scaleDef","000","",""
"","","","","","html-slider-response","33","246537","0.0-29.0","ossat63tpc","72","NaN","<div style=""width:500px;"">
                            <p style=""font-size:50px; font-weight:bold;""
                            >sad</p>
                            <div style=""width:240px; margin: auto;"">
                                <img src=""images/map15_RdBu_scaleDef_orientDef_000.png"" style= ""width:200px""alt=""img"">
                            </div>
                        </div>","29","","0","","","","images/map15_RdBu_scaleDef_orientDef_000.png","sad","1","15","15","RdBu","orientDef","scaleDef","000","",""
"","","","","","html-slider-response","34","249187","0.0-30.0","ossat63tpc","72","NaN","<div style=""width:500px;"">
                            <p style=""font-size:50px; font-weight:bold;""
                            >sad</p>
                            <div style=""width:240px; margin: auto;"">
                                <img src=""images/map15_RdYlBu_scaleDef_orientDef_180.png"" style= ""width:200px""alt=""img"">
                            </div>
                        </div>","21","","0","","","","images/map15_RdYlBu_scaleDef_orientDef_180.png","sad","1","15","15","RdYlBu","orientDef","scaleDef","180","",""
"","","","","","html-slider-response","35","251199","0.0-31.0","ossat63tpc","72","NaN","<div style=""width:500px;"">
                            <p style=""font-size:50px; font-weight:bold;""
                            >sad</p>
                            <div style=""width:240px; margin: auto;"">
                                <img src=""images/map07_OrRd_scaleRev_orientDef_270.png"" style= ""width:200px""alt=""img"">
                            </div>
                        </div>","-141","","0","","","","images/map07_OrRd_scaleRev_orientDef_270.png","sad","1","07","07","OrRd","orientDef","scaleRev","270","",""
"","","","","","html-slider-response","36","253059","0.0-32.0","ossat63tpc","72","NaN","<div style=""width:500px;"">
                            <p style=""font-size:50px; font-weight:bold;""
                            >sad</p>
                            <div style=""width:240px; margin: auto;"">
                                <img src=""images/map23_berlin_scaleDef_orientMir_180.png"" style= ""width:200px""alt=""img"">
                            </div>
                        </div>","64","","0","","","","images/map23_berlin_scaleDef_orientMir_180.png","sad","1","23","23","berlin","orientMir","scaleDef","180","",""
"","","","","","html-slider-response","37","256072","0.0-33.0","ossat63tpc","72","NaN","<div style=""width:500px;"">
                            <p style=""font-size:50px; font-weight:bold;""
                            >sad</p>
                            <div style=""width:240px; margin: auto;"">
                                <img src=""images/map02_Purples_scaleDef_orientMir_000.png"" style= ""width:200px""alt=""img"">
                            </div>
                        </div>","200","","0","","","","images/map02_Purples_scaleDef_orientMir_000.png","sad","1","02","02","Purples","orientMir","scaleDef","000","",""
"","","","","","html-slider-response","38","258383","0.0-34.0","ossat63tpc","72","NaN","<div style=""width:500px;"">
                            <p style=""font-size:50px; font-weight:bold;""
                            >sad</p>
                            <div style=""width:240px; margin: auto;"">
                                <img src=""images/map05_Greens_scaleRev_orientDef_090.png"" style= ""width:200px""alt=""img"">
                            </div>
                        </div>","-200","","0","","","","images/map05_Greens_scaleRev_orientDef_090.png","sad","1","05","05","Greens","orientDef","scaleRev","090","",""
"","","","","","html-slider-response","39","260432","0.0-35.0","ossat63tpc","72","NaN","<div style=""width:500px;"">
                            <p style=""font-size:50px; font-weight:bold;""
                            >sad</p>
                            <div style=""width:240px; margin: auto;"">
                                <img src=""images/map23_coolwarm_scaleDef_orientDef_000.png"" style= ""width:200px""alt=""img"">
                            </div>
                        </div>","50","","0","","","","images/map23_coolwarm_scaleDef_orientDef_000.png","sad","1","23","23","coolwarm","orientDef","scaleDef","000","",""
"","","","","","html-slider-response","40","262210","0.0-36.0","ossat63tpc","72","NaN","<div style=""width:500px;"">
                            <p style=""font-size:50px; font-weight:bold;""
                            >sad</p>
                            <div style=""width:240px; margin: auto;"">
                                <img src=""images/map15_RdYlGn_scaleRev_orientMir_090.png"" style= ""width:200px""alt=""img"">
                            </div>
                        </div>","-86","","0","","","","images/map15_RdYlGn_scaleRev_orientMir_090.png","sad","1","15","15","RdYlGn","orientMir","scaleRev","090","",""
"","","","","","html-slider-response","41","264027","0.0-37.0","ossat63tpc","72","NaN","<div style=""width:500px;"">
                            <p style=""font-size:50px; font-weight:bold;""
                            >sad</p>
                            <div style=""width:240px; margin: auto;"">
                                <img src=""images/map27_inferno_scaleRev_orientMir_090.png"" style= ""width:200px""alt=""img"">
                            </div>
                        </div>","-40","","0","","","","images/map27_inferno_scaleRev_orientMir_090.png","sad","1","27","27","inferno","orientMir","scaleRev","090","",""
"","","","","","html-slider-response","42","265587","0.0-38.0","ossat63tpc","72","NaN","<div style=""width:500px;"">
                            <p style=""font-size:50px; font-weight:bold;""
                            >sad</p>
                            <div style=""width:240px; margin: auto;"">
                                <img src=""images/map02_cividis_scaleDef_orientDef_000.png"" style= ""width:200px""alt=""img"">
                            </div>
                        </div>","42","","0","","","","images/map02_cividis_scaleDef_orientDef_000.png","sad","1","02","02","cividis","orientDef","scaleDef","000","",""
"","","","","","html-slider-response","43","267893","0.0-39.0","ossat63tpc","72","NaN","<div style=""width:500px;"">
                            <p style=""font-size:50px; font-weight:bold;""
                            >sad</p>
                            <div style=""width:240px; margin: auto;"">
                                <img src=""images/map23_coolwarm_scaleRev_orientDef_090.png"" style= ""width:200px""alt=""img"">
                            </div>
                        </div>","46","","0","","","","images/map23_coolwarm_scaleRev_orientDef_090.png","sad","1","23","23","coolwarm","orientDef","scaleRev","090","",""
"","","","","","html-slider-response","44","269588","0.0-40.0","ossat63tpc","72","NaN","<div style=""width:500px;"">
                            <p style=""font-size:50px; font-weight:bold;""
                            >sad</p>
                            <div style=""width:240px; margin: auto;"">
                                <img src=""images/map10_GnBu_scaleDef_orientDef_180.png"" style= ""width:200px""alt=""img"">
                            </div>
                        </div>","134","","0","","","","images/map10_GnBu_scaleDef_orientDef_180.png","sad","1","10","10","GnBu","orientDef","scaleDef","180","",""
"","","","","","html-slider-response","45","271259","0.0-41.0","ossat63tpc","72","NaN","<div style=""width:500px;"">
                            <p style=""font-size:50px; font-weight:bold;""
                            >sad</p>
                            <div style=""width:240px; margin: auto;"">
                                <img src=""images/map15_RdYlBu_scaleRev_orientDef_270.png"" style= ""width:200px""alt=""img"">
                            </div>
                        </div>","48","","0","","","","images/map15_RdYlBu_scaleRev_orientDef_270.png","sad","1","15","15","RdYlBu","orientDef","scaleRev","270","",""
"","","","","","html-slider-response","46","273385","0.0-42.0","ossat63tpc","72","NaN","<div style=""width:500px;"">
                            <p style=""font-size:50px; font-weight:bold;""
                            >sad</p>
                            <div style=""width:240px; margin: auto;"">
                                <img src=""images/map12_PuBuGn_scaleRev_orientDef_090.png"" style= ""width:200px""alt=""img"">
                            </div>
                        </div>","82","","0","","","","images/map12_PuBuGn_scaleRev_orientDef_090.png","sad","1","12","12","PuBuGn","orientDef","scaleRev","090","",""
"","","","","","html-slider-response","47","274925","0.0-43.0","ossat63tpc","72","NaN","<div style=""width:500px;"">
                            <p style=""font-size:50px; font-weight:bold;""
                            >sad</p>
                            <div style=""width:240px; margin: auto;"">
                                <img src=""images/map12_PuBuGn_scaleDef_orientDef_000.png"" style= ""width:200px""alt=""img"">
                            </div>
                        </div>","103","","0","","","","images/map12_PuBuGn_scaleDef_orientDef_000.png","sad","1","12","12","PuBuGn","orientDef","scaleDef","000","",""
"","","","","","html-slider-response","48","276685","0.0-44.0","ossat63tpc","72","NaN","<div style=""width:500px;"">
                            <p style=""font-size:50px; font-weight:bold;""
                            >sad</p>
                            <div style=""width:240px; margin: auto;"">
                                <img src=""images/map12_BuGn_scaleDef_orientDef_180.png"" style= ""width:200px""alt=""img"">
                            </div>
                        </div>","-200","","0","","","","images/map12_BuGn_scaleDef_orientDef_180.png","sad","1","12","12","BuGn","orientDef","scaleDef","180","",""
"","","","","","html-slider-response","49","278423","0.0-45.0","ossat63tpc","72","NaN","<div style=""width:500px;"">
                            <p style=""font-size:50px; font-weight:bold;""
                            >sad</p>
                            <div style=""width:240px; margin: auto;"">
                                <img src=""images/map26_gist_earth_scaleRev_orientMir_090.png"" style= ""width:200px""alt=""img"">
                            </div>
                        </div>","-68","","0","","","","images/map26_gist_earth_scaleRev_orientMir_090.png","sad","1","26","26","gist","scaleRev","earth","orientMir","",""
"","","","","","html-slider-response","50","280038","0.0-46.0","ossat63tpc","72","NaN","<div style=""width:500px;"">
                            <p style=""font-size:50px; font-weight:bold;""
                            >sad</p>
                            <div style=""width:240px; margin: auto;"">
                                <img src=""images/map07_YlOrRd_scaleDef_orientDef_000.png"" style= ""width:200px""alt=""img"">
                            </div>
                        </div>","-93","","0","","","","images/map07_YlOrRd_scaleDef_orientDef_000.png","sad","1","07","07","YlOrRd","orientDef","scaleDef","000","",""
"","","","","","html-slider-response","51","281552","0.0-47.0","ossat63tpc","72","NaN","<div style=""width:500px;"">
                            <p style=""font-size:50px; font-weight:bold;""
                            >sad</p>
                            <div style=""width:240px; margin: auto;"">
                                <img src=""images/map27_magma_scaleRev_orientMir_270.png"" style= ""width:200px""alt=""img"">
                            </div>
                        </div>","-104","","0","","","","images/map27_magma_scaleRev_orientMir_270.png","sad","1","27","27","magma","orientMir","scaleRev","270","",""
"","","","","","html-slider-response","52","283230","0.0-48.0","ossat63tpc","72","NaN","<div style=""width:500px;"">
                            <p style=""font-size:50px; font-weight:bold;""
                            >sad</p>
                            <div style=""width:240px; margin: auto;"">
                                <img src=""images/map13_RdGy_scaleRev_orientMir_270.png"" style= ""width:200px""alt=""img"">
                            </div>
                        </div>","-96","","0","","","","images/map13_RdGy_scaleRev_orientMir_270.png","sad","1","13","13","RdGy","orientMir","scaleRev","270","",""
"","","","","","html-slider-response","53","285366","0.0-49.0","ossat63tpc","72","NaN","<div style=""width:500px;"">
                            <p style=""font-size:50px; font-weight:bold;""
                            >sad</p>
                            <div style=""width:240px; margin: auto;"">
                                <img src=""images/map10_BuPu_scaleDef_orientDef_000.png"" style= ""width:200px""alt=""img"">
                            </div>
                        </div>","200","","0","","","","images/map10_BuPu_scaleDef_orientDef_000.png","sad","1","10","10","BuPu","orientDef","scaleDef","000","",""
"","","","","","html-slider-response","54","286996","0.0-50.0","ossat63tpc","72","NaN","<div style=""width:500px;"">
                            <p style=""font-size:50px; font-weight:bold;""
                            >sad</p>
                            <div style=""width:240px; margin: auto;"">
                                <img src=""images/map05_Oranges_scaleDef_orientDef_180.png"" style= ""width:200px""alt=""img"">
                            </div>
                        </div>","-66","","0","","","","images/map05_Oranges_scaleDef_orientDef_180.png","sad","1","05","05","Oranges","orientDef","scaleDef","180","",""
"","","","","","html-slider-response","55","288446","0.0-51.0","ossat63tpc","72","NaN","<div style=""width:500px;"">
                            <p style=""font-size:50px; font-weight:bold;""
                            >sad</p>
                            <div style=""width:240px; margin: auto;"">
                                <img src=""images/map07_YlOrRd_scaleRev_orientDef_090.png"" style= ""width:200px""alt=""img"">
                            </div>
                        </div>","-89","","0","","","","images/map07_YlOrRd_scaleRev_orientDef_090.png","sad","1","07","07","YlOrRd","orientDef","scaleRev","090","",""
"","","","","","html-slider-response","56","289836","0.0-52.0","ossat63tpc","72","NaN","<div style=""width:500px;"">
                            <p style=""font-size:50px; font-weight:bold;""
                            >sad</p>
                            <div style=""width:240px; margin: auto;"">
                                <img src=""images/map05_YlOrBr_scaleRev_orientMir_270.png"" style= ""width:200px""alt=""img"">
                            </div>
                        </div>","-85","","0","","","","images/map05_YlOrBr_scaleRev_orientMir_270.png","sad","1","05","05","YlOrBr","orientMir","scaleRev","270","",""
"","","","","","html-slider-response","57","292629","0.0-53.0","ossat63tpc","72","NaN","<div style=""width:500px;"">
                            <p style=""font-size:50px; font-weight:bold;""
                            >sad</p>
                            <div style=""width:240px; margin: auto;"">
                                <img src=""images/map15_RdBu_scaleRev_orientDef_090.png"" style= ""width:200px""alt=""img"">
                            </div>
                        </div>","18","","0","","","","images/map15_RdBu_scaleRev_orientDef_090.png","sad","1","15","15","RdBu","orientDef","scaleRev","090","",""
"","","","","","html-button-response","58","294278","0.0-54.0","ossat63tpc","72","1147","<p>You are doing great!<br></br> You are halway done with the current block. When you are ready to continue, click the 'Continue' button.</p>","0","","","","","","","","","","","","","","","",""
"","","","","","html-slider-response","59","298544","0.0-55.0","ossat63tpc","72","NaN","<div style=""width:500px;"">
                            <p style=""font-size:50px; font-weight:bold;""
                            >sad</p>
                            <div style=""width:240px; margin: auto;"">
                                <img src=""images/map15_Spectral_scaleDef_orientMir_180.png"" style= ""width:200px""alt=""img"">
                            </div>
                        </div>","16","","0","","","","images/map15_Spectral_scaleDef_orientMir_180.png","sad","1","15","15","Spectral","orientMir","scaleDef","180","",""
"","","","","","html-slider-response","60","300205","0.0-56.0","ossat63tpc","72","NaN","<div style=""width:500px;"">
                            <p style=""font-size:50px; font-weight:bold;""
                            >sad</p>
                            <div style=""width:240px; margin: auto;"">
                                <img src=""images/map26_vanimo_scaleDef_orientDef_180.png"" style= ""width:200px""alt=""img"">
                            </div>
                        </div>","-85","","0","","","","images/map26_vanimo_scaleDef_orientDef_180.png","sad","1","26","26","vanimo","orientDef","scaleDef","180","",""
"","","","","","html-slider-response","61","301619","0.0-57.0","ossat63tpc","72","NaN","<div style=""width:500px;"">
                            <p style=""font-size:50px; font-weight:bold;""
                            >sad</p>
                            <div style=""width:240px; margin: auto;"">
                                <img src=""images/map05_YlOrBr_scaleDef_orientMir_180.png"" style= ""width:200px""alt=""img"">
                            </div>
                        </div>","-61","","0","","","","images/map05_YlOrBr_scaleDef_orientMir_180.png","sad","1","05","05","YlOrBr","orientMir","scaleDef","180","",""
"","","","","","html-slider-response","62","304053","0.0-58.0","ossat63tpc","72","NaN","<div style=""width:500px;"">
                            <p style=""font-size:50px; font-weight:bold;""
                            >sad</p>
                            <div style=""width:240px; margin: auto;"">
                                <img src=""images/map27_viridis_scaleDef_orientDef_000.png"" style= ""width:200px""alt=""img"">
                            </div>
                        </div>","38","","0","","","","images/map27_viridis_scaleDef_orientDef_000.png","sad","1","27","27","viridis","orientDef","scaleDef","000","",""
"","","","","","html-slider-response","63","305645","0.0-59.0","ossat63tpc","72","NaN","<div style=""width:500px;"">
                            <p style=""font-size:50px; font-weight:bold;""
                            >sad</p>
                            <div style=""width:240px; margin: auto;"">
                                <img src=""images/map12_YlGn_scaleRev_orientMir_090.png"" style= ""width:200px""alt=""img"">
                            </div>
                        </div>","-200","","0","","","","images/map12_YlGn_scaleRev_orientMir_090.png","sad","1","12","12","YlGn","orientMir","scaleRev","090","",""
"","","","","","html-slider-response","64","310804","0.0-60.0","ossat63tpc","72","NaN","<div style=""width:500px;"">
                            <p style=""font-size:50px; font-weight:bold;""
                            >sad</p>
                            <div style=""width:240px; margin: auto;"">
                                <img src=""images/map26_turbo_scaleRev_orientMir_270.png"" style= ""width:200px""alt=""img"">
                            </div>
                        </div>","25","","0","","","","images/map26_turbo_scaleRev_orientMir_270.png","sad","1","26","26","turbo","orientMir","scaleRev","270","",""
"","","","","","html-slider-response","65","312933","0.0-61.0","ossat63tpc","72","NaN","<div style=""width:500px;"">
                            <p style=""font-size:50px; font-weight:bold;""
                            >sad</p>
                            <div style=""width:240px; margin: auto;"">
                                <img src=""images/map02_Blues_scaleDef_orientMir_180.png"" style= ""width:200px""alt=""img"">
                            </div>
                        </div>","77","","0","","","","images/map02_Blues_scaleDef_orientMir_180.png","sad","1","02","02","Blues","orientMir","scaleDef","180","",""
"","","","","","html-slider-response","66","314782","0.0-62.0","ossat63tpc","72","NaN","<div style=""width:500px;"">
                            <p style=""font-size:50px; font-weight:bold;""
                            >sad</p>
                            <div style=""width:240px; margin: auto;"">
                                <img src=""images/map26_turbo_scaleDef_orientMir_180.png"" style= ""width:200px""alt=""img"">
                            </div>
                        </div>","36","","0","","","","images/map26_turbo_scaleDef_orientMir_180.png","sad","1","26","26","turbo","orientMir","scaleDef","180","",""
"","","","","","html-slider-response","67","316383","0.0-63.0","ossat63tpc","72","NaN","<div style=""width:500px;"">
                            <p style=""font-size:50px; font-weight:bold;""
                            >sad</p>
                            <div style=""width:240px; margin: auto;"">
                                <img src=""images/map02_Greys_scaleDef_orientDef_180.png"" style= ""width:200px""alt=""img"">
                            </div>
                        </div>","200","","0","","","","images/map02_Greys_scaleDef_orientDef_180.png","sad","1","02","02","Greys","orientDef","scaleDef","180","",""
"","","","","","html-slider-response","68","318233","0.0-64.0","ossat63tpc","72","NaN","<div style=""width:500px;"">
                            <p style=""font-size:50px; font-weight:bold;""
                            >sad</p>
                            <div style=""width:240px; margin: auto;"">
                                <img src=""images/map02_Greys_scaleRev_orientDef_270.png"" style= ""width:200px""alt=""img"">
                            </div>
                        </div>","138","","0","","","","images/map02_Greys_scaleRev_orientDef_270.png","sad","1","02","02","Greys","orientDef","scaleRev","270","",""
"","","","","","html-slider-response","69","321679","0.0-65.0","ossat63tpc","72","NaN","<div style=""width:500px;"">
                            <p style=""font-size:50px; font-weight:bold;""
                            >sad</p>
                            <div style=""width:240px; margin: auto;"">
                                <img src=""images/map07_RdPu_scaleDef_orientMir_180.png"" style= ""width:200px""alt=""img"">
                            </div>
                        </div>","-54","","0","","","","images/map07_RdPu_scaleDef_orientMir_180.png","sad","1","07","07","RdPu","orientMir","scaleDef","180","",""
"","","","","","html-slider-response","70","323690","0.0-66.0","ossat63tpc","72","NaN","<div style=""width:500px;"">
                            <p style=""font-size:50px; font-weight:bold;""
                            >sad</p>
                            <div style=""width:240px; margin: auto;"">
                                <img src=""images/map12_PiYG_scaleRev_orientMir_270.png"" style= ""width:200px""alt=""img"">
                            </div>
                        </div>","-48","","0","","","","images/map12_PiYG_scaleRev_orientMir_270.png","sad","1","12","12","PiYG","orientMir","scaleRev","270","",""
"","","","","","html-slider-response","71","325216","0.0-67.0","ossat63tpc","72","NaN","<div style=""width:500px;"">
                            <p style=""font-size:50px; font-weight:bold;""
                            >sad</p>
                            <div style=""width:240px; margin: auto;"">
                                <img src=""images/map07_RdPu_scaleRev_orientMir_270.png"" style= ""width:200px""alt=""img"">
                            </div>
                        </div>","-52","","0","","","","images/map07_RdPu_scaleRev_orientMir_270.png","sad","1","07","07","RdPu","orientMir","scaleRev","270","",""
"","","","","","html-slider-response","72","326769","0.0-68.0","ossat63tpc","72","NaN","<div style=""width:500px;"">
                            <p style=""font-size:50px; font-weight:bold;""
                            >sad</p>
                            <div style=""width:240px; margin: auto;"">
                                <img src=""images/map07_PuRd_scaleDef_orientMir_000.png"" style= ""width:200px""alt=""img"">
                            </div>
                        </div>","-62","","0","","","","images/map07_PuRd_scaleDef_orientMir_000.png","sad","1","07","07","PuRd","orientMir","scaleDef","000","",""
"","","","","","html-slider-response","73","328321","0.0-69.0","ossat63tpc","72","NaN","<div style=""width:500px;"">
                            <p style=""font-size:50px; font-weight:bold;""
                            >sad</p>
                            <div style=""width:240px; margin: auto;"">
                                <img src=""images/map07_PuRd_scaleRev_orientMir_090.png"" style= ""width:200px""alt=""img"">
                            </div>
                        </div>","-83","","0","","","","images/map07_PuRd_scaleRev_orientMir_090.png","sad","1","07","07","PuRd","orientMir","scaleRev","090","",""
"","","","","","html-slider-response","74","330127","0.0-70.0","ossat63tpc","72","NaN","<div style=""width:500px;"">
                            <p style=""font-size:50px; font-weight:bold;""
                            >sad</p>
                            <div style=""width:240px; margin: auto;"">
                                <img src=""images/map10_BuPu_scaleRev_orientDef_090.png"" style= ""width:200px""alt=""img"">
                            </div>
                        </div>","200","","0","","","","images/map10_BuPu_scaleRev_orientDef_090.png","sad","1","10","10","BuPu","orientDef","scaleRev","090","",""
"","","","","","html-slider-response","75","331970","0.0-71.0","ossat63tpc","72","NaN","<div style=""width:500px;"">
                            <p style=""font-size:50px; font-weight:bold;""
                            >sad</p>
                            <div style=""width:240px; margin: auto;"">
                                <img src=""images/map27_viridis_scaleRev_orientDef_090.png"" style= ""width:200px""alt=""img"">
                            </div>
                        </div>","-54","","0","","","","images/map27_viridis_scaleRev_orientDef_090.png","sad","1","27","27","viridis","orientDef","scaleRev","090","",""
"","","","","","html-slider-response","76","333621","0.0-72.0","ossat63tpc","72","NaN","<div style=""width:500px;"">
                            <p style=""font-size:50px; font-weight:bold;""
                            >sad</p>
                            <div style=""width:240px; margin: auto;"">
                                <img src=""images/map12_BuGn_scaleRev_orientDef_270.png"" style= ""width:200px""alt=""img"">
                            </div>
                        </div>","-200","","0","","","","images/map12_BuGn_scaleRev_orientDef_270.png","sad","1","12","12","BuGn","orientDef","scaleRev","270","",""
"","","","","","html-slider-response","77","335411","0.0-73.0","ossat63tpc","72","NaN","<div style=""width:500px;"">
                            <p style=""font-size:50px; font-weight:bold;""
                            >sad</p>
                            <div style=""width:240px; margin: auto;"">
                                <img src=""images/map26_vanimo_scaleRev_orientDef_270.png"" style= ""width:200px""alt=""img"">
                            </div>
                        </div>","-83","","0","","","","images/map26_vanimo_scaleRev_orientDef_270.png","sad","1","26","26","vanimo","orientDef","scaleRev","270","",""
"","","","","","html-slider-response","78","337129","0.0-74.0","ossat63tpc","72","NaN","<div style=""width:500px;"">
                            <p style=""font-size:50px; font-weight:bold;""
                            >sad</p>
                            <div style=""width:240px; margin: auto;"">
                                <img src=""images/map23_seismic_scaleRev_orientMir_090.png"" style= ""width:200px""alt=""img"">
                            </div>
                        </div>","45","","0","","","","images/map23_seismic_scaleRev_orientMir_090.png","sad","1","23","23","seismic","orientMir","scaleRev","090","",""
"","","","","","html-slider-response","79","338649","0.0-75.0","ossat63tpc","72","NaN","<div style=""width:500px;"">
                            <p style=""font-size:50px; font-weight:bold;""
                            >sad</p>
                            <div style=""width:240px; margin: auto;"">
                                <img src=""images/map02_Purples_scaleRev_orientMir_090.png"" style= ""width:200px""alt=""img"">
                            </div>
                        </div>","200","","0","","","","images/map02_Purples_scaleRev_orientMir_090.png","sad","1","02","02","Purples","orientMir","scaleRev","090","",""
"","","","","","html-slider-response","80","340131","0.0-76.0","ossat63tpc","72","NaN","<div style=""width:500px;"">
                            <p style=""font-size:50px; font-weight:bold;""
                            >sad</p>
                            <div style=""width:240px; margin: auto;"">
                                <img src=""images/map10_GnBu_scaleRev_orientDef_270.png"" style= ""width:200px""alt=""img"">
                            </div>
                        </div>","70","","0","","","","images/map10_GnBu_scaleRev_orientDef_270.png","sad","1","10","10","GnBu","orientDef","scaleRev","270","",""
"","","","","","html-slider-response","81","341664","0.0-77.0","ossat63tpc","72","NaN","<div style=""width:500px;"">
                            <p style=""font-size:50px; font-weight:bold;""
                            >sad</p>
                            <div style=""width:240px; margin: auto;"">
                                <img src=""images/map10_PuBu_scaleRev_orientMir_090.png"" style= ""width:200px""alt=""img"">
                            </div>
                        </div>","97","","0","","","","images/map10_PuBu_scaleRev_orientMir_090.png","sad","1","10","10","PuBu","orientMir","scaleRev","090","",""
"","","","","","html-slider-response","82","343324","0.0-78.0","ossat63tpc","72","NaN","<div style=""width:500px;"">
                            <p style=""font-size:50px; font-weight:bold;""
                            >sad</p>
                            <div style=""width:240px; margin: auto;"">
                                <img src=""images/map15_Spectral_scaleRev_orientMir_270.png"" style= ""width:200px""alt=""img"">
                            </div>
                        </div>","53","","0","","","","images/map15_Spectral_scaleRev_orientMir_270.png","sad","1","15","15","Spectral","orientMir","scaleRev","270","",""
"","","","","","html-slider-response","83","344791","0.0-79.0","ossat63tpc","72","NaN","<div style=""width:500px;"">
                            <p style=""font-size:50px; font-weight:bold;""
                            >sad</p>
                            <div style=""width:240px; margin: auto;"">
                                <img src=""images/map07_OrRd_scaleDef_orientDef_180.png"" style= ""width:200px""alt=""img"">
                            </div>
                        </div>","-86","","0","","","","images/map07_OrRd_scaleDef_orientDef_180.png","sad","1","07","07","OrRd","orientDef","scaleDef","180","",""
"","","","","","html-slider-response","84","346248","0.0-80.0","ossat63tpc","72","NaN","<div style=""width:500px;"">
                            <p style=""font-size:50px; font-weight:bold;""
                            >sad</p>
                            <div style=""width:240px; margin: auto;"">
                                <img src=""images/map23_bwr_scaleRev_orientDef_270.png"" style= ""width:200px""alt=""img"">
                            </div>
                        </div>","26","","0","","","","images/map23_bwr_scaleRev_orientDef_270.png","sad","1","23","23","bwr","orientDef","scaleRev","270","",""
"","","","","","html-slider-response","85","347503","0.0-81.0","ossat63tpc","72","NaN","<div style=""width:500px;"">
                            <p style=""font-size:50px; font-weight:bold;""
                            >sad</p>
                            <div style=""width:240px; margin: auto;"">
                                <img src=""images/map12_PiYG_scaleDef_orientMir_180.png"" style= ""width:200px""alt=""img"">
                            </div>
                        </div>","-102","","0","","","","images/map12_PiYG_scaleDef_orientMir_180.png","sad","1","12","12","PiYG","orientMir","scaleDef","180","",""
"","","","","","html-slider-response","86","348876","0.0-82.0","ossat63tpc","72","NaN","<div style=""width:500px;"">
                            <p style=""font-size:50px; font-weight:bold;""
                            >sad</p>
                            <div style=""width:240px; margin: auto;"">
                                <img src=""images/map10_YlGnBu_scaleDef_orientMir_180.png"" style= ""width:200px""alt=""img"">
                            </div>
                        </div>","58","","0","","","","images/map10_YlGnBu_scaleDef_orientMir_180.png","sad","1","10","10","YlGnBu","orientMir","scaleDef","180","",""
"","","","","","html-slider-response","87","350201","0.0-83.0","ossat63tpc","72","NaN","<div style=""width:500px;"">
                            <p style=""font-size:50px; font-weight:bold;""
                            >sad</p>
                            <div style=""width:240px; margin: auto;"">
                                <img src=""images/map13_PuOr_scaleRev_orientMir_090.png"" style= ""width:200px""alt=""img"">
                            </div>
                        </div>","-69","","0","","","","images/map13_PuOr_scaleRev_orientMir_090.png","sad","1","13","13","PuOr","orientMir","scaleRev","090","",""
"","","","","","html-slider-response","88","351705","0.0-84.0","ossat63tpc","72","NaN","<div style=""width:500px;"">
                            <p style=""font-size:50px; font-weight:bold;""
                            >sad</p>
                            <div style=""width:240px; margin: auto;"">
                                <img src=""images/map15_RdYlGn_scaleDef_orientMir_000.png"" style= ""width:200px""alt=""img"">
                            </div>
                        </div>","-80","","0","","","","images/map15_RdYlGn_scaleDef_orientMir_000.png","sad","1","15","15","RdYlGn","orientMir","scaleDef","000","",""
"","","","","","html-slider-response","89","353183","0.0-85.0","ossat63tpc","72","NaN","<div style=""width:500px;"">
                            <p style=""font-size:50px; font-weight:bold;""
                            >sad</p>
                            <div style=""width:240px; margin: auto;"">
                                <img src=""images/map23_berlin_scaleRev_orientMir_270.png"" style= ""width:200px""alt=""img"">
                            </div>
                        </div>","32","","0","","","","images/map23_berlin_scaleRev_orientMir_270.png","sad","1","23","23","berlin","orientMir","scaleRev","270","",""
"","","","","","html-slider-response","90","354499","0.0-86.0","ossat63tpc","72","NaN","<div style=""width:500px;"">
                            <p style=""font-size:50px; font-weight:bold;""
                            >sad</p>
                            <div style=""width:240px; margin: auto;"">
                                <img src=""images/map05_Reds_scaleDef_orientMir_000.png"" style= ""width:200px""alt=""img"">
                            </div>
                        </div>","-118","","0","","","","images/map05_Reds_scaleDef_orientMir_000.png","sad","1","05","05","Reds","orientMir","scaleDef","000","",""
"","","","","","html-slider-response","91","356021","0.0-87.0","ossat63tpc","72","NaN","<div style=""width:500px;"">
                            <p style=""font-size:50px; font-weight:bold;""
                            >sad</p>
                            <div style=""width:240px; margin: auto;"">
                                <img src=""images/map26_managua_scaleRev_orientDef_090.png"" style= ""width:200px""alt=""img"">
                            </div>
                        </div>","42","","0","","","","images/map26_managua_scaleRev_orientDef_090.png","sad","1","26","26","managua","orientDef","scaleRev","090","",""
"","","","","","html-slider-response","92","357348","0.0-88.0","ossat63tpc","72","NaN","<div style=""width:500px;"">
                            <p style=""font-size:50px; font-weight:bold;""
                            >sad</p>
                            <div style=""width:240px; margin: auto;"">
                                <img src=""images/map05_Oranges_scaleRev_orientDef_270.png"" style= ""width:200px""alt=""img"">
                            </div>
                        </div>","-110","","0","","","","images/map05_Oranges_scaleRev_orientDef_270.png","sad","1","05","05","Oranges","orientDef","scaleRev","270","",""
"","","","","","html-slider-response","93","358936","0.0-89.0","ossat63tpc","72","NaN","<div style=""width:500px;"">
                            <p style=""font-size:50px; font-weight:bold;""
                            >sad</p>
                            <div style=""width:240px; margin: auto;"">
                                <img src=""images/map23_seismic_scaleDef_orientMir_000.png"" style= ""width:200px""alt=""img"">
                            </div>
                        </div>","33","","0","","","","images/map23_seismic_scaleDef_orientMir_000.png","sad","1","23","23","seismic","orientMir","scaleDef","000","",""
"","","","","","html-slider-response","94","360985","0.0-90.0","ossat63tpc","72","NaN","<div style=""width:500px;"">
                            <p style=""font-size:50px; font-weight:bold;""
                            >sad</p>
                            <div style=""width:240px; margin: auto;"">
                                <img src=""images/map13_PuOr_scaleDef_orientMir_000.png"" style= ""width:200px""alt=""img"">
                            </div>
                        </div>","-78","","0","","","","images/map13_PuOr_scaleDef_orientMir_000.png","sad","1","13","13","PuOr","orientMir","scaleDef","000","",""
"","","","","","html-slider-response","95","362550","0.0-91.0","ossat63tpc","72","NaN","<div style=""width:500px;"">
                            <p style=""font-size:50px; font-weight:bold;""
                            >sad</p>
                            <div style=""width:240px; margin: auto;"">
                                <img src=""images/map10_YlGnBu_scaleRev_orientMir_270.png"" style= ""width:200px""alt=""img"">
                            </div>
                        </div>","69","","0","","","","images/map10_YlGnBu_scaleRev_orientMir_270.png","sad","1","10","10","YlGnBu","orientMir","scaleRev","270","",""
"","","","","","html-slider-response","96","363849","0.0-92.0","ossat63tpc","72","NaN","<div style=""width:500px;"">
                            <p style=""font-size:50px; font-weight:bold;""
                            >sad</p>
                            <div style=""width:240px; margin: auto;"">
                                <img src=""images/map27_plasma_scaleRev_orientDef_270.png"" style= ""width:200px""alt=""img"">
                            </div>
                        </div>","-67","","0","","","","images/map27_plasma_scaleRev_orientDef_270.png","sad","1","27","27","plasma","orientDef","scaleRev","270","",""
"","","","","","html-slider-response","97","365653","0.0-93.0","ossat63tpc","72","NaN","<div style=""width:500px;"">
                            <p style=""font-size:50px; font-weight:bold;""
                            >sad</p>
                            <div style=""width:240px; margin: auto;"">
                                <img src=""images/map02_cividis_scaleRev_orientDef_090.png"" style= ""width:200px""alt=""img"">
                            </div>
                        </div>","74","","0","","","","images/map02_cividis_scaleRev_orientDef_090.png","sad","1","02","02","cividis","orientDef","scaleRev","090","",""
"","","","","","html-slider-response","98","367314","0.0-94.0","ossat63tpc","72","NaN","<div style=""width:500px;"">
                            <p style=""font-size:50px; font-weight:bold;""
                            >sad</p>
                            <div style=""width:240px; margin: auto;"">
                                <img src=""images/map05_Greens_scaleDef_orientDef_000.png"" style= ""width:200px""alt=""img"">
                            </div>
                        </div>","-200","","0","","","","images/map05_Greens_scaleDef_orientDef_000.png","sad","1","05","05","Greens","orientDef","scaleDef","000","",""
"","","","","","html-button-response","99","371171","0.0-95.0","ossat63tpc","72","3349","<p>Great Job! You've finished block 1.<br></br> You have 4 block(s) left to go.<br></br></p>","0","","","","","","","","","","","","","","","",""
"","","","","","html-button-response","100","372045","0.0-96.0","ossat63tpc","72","874","<p>In this block of trials, you will be asked to rate how much you associate each map with:</p > <p style = 'font-size:150%; font-weight: bold'>angry</p><br></br>","0","","","","","","","","","","","","","","","",""
"","","","","","html-slider-response","101","374097","0.0-97.0","ossat63tpc","72","NaN","<div style=""width:500px;"">
                            <p style=""font-size:50px; font-weight:bold;""
                            >angry</p>
                            <div style=""width:240px; margin: auto;"">
                                <img src=""images/map07_RdPu_scaleDef_orientMir_180.png"" style= ""width:200px""alt=""img"">
                            </div>
                        </div>","27","","0","","","","images/map07_RdPu_scaleDef_orientMir_180.png","angry","1","07","07","RdPu","orientMir","scaleDef","180","",""
"","","","","","html-slider-response","102","375824","0.0-98.0","ossat63tpc","72","NaN","<div style=""width:500px;"">
                            <p style=""font-size:50px; font-weight:bold;""
                            >angry</p>
                            <div style=""width:240px; margin: auto;"">
                                <img src=""images/map10_GnBu_scaleDef_orientDef_180.png"" style= ""width:200px""alt=""img"">
                            </div>
                        </div>","-200","","0","","","","images/map10_GnBu_scaleDef_orientDef_180.png","angry","1","10","10","GnBu","orientDef","scaleDef","180","",""
"","","","","","html-slider-response","103","378514","0.0-99.0","ossat63tpc","72","NaN","<div style=""width:500px;"">
                            <p style=""font-size:50px; font-weight:bold;""
                            >angry</p>
                            <div style=""width:240px; margin: auto;"">
                                <img src=""images/map15_Spectral_scaleRev_orientMir_270.png"" style= ""width:200px""alt=""img"">
                            </div>
                        </div>","17","","0","","","","images/map15_Spectral_scaleRev_orientMir_270.png","angry","1","15","15","Spectral","orientMir","scaleRev","270","",""
"","","","","","html-slider-response","104","380066","0.0-100.0","ossat63tpc","72","NaN","<div style=""width:500px;"">
                            <p style=""font-size:50px; font-weight:bold;""
                            >angry</p>
                            <div style=""width:240px; margin: auto;"">
                                <img src=""images/map12_PiYG_scaleRev_orientMir_270.png"" style= ""width:200px""alt=""img"">
                            </div>
                        </div>","-81","","0","","","","images/map12_PiYG_scaleRev_orientMir_270.png","angry","1","12","12","PiYG","orientMir","scaleRev","270","",""
"","","","","","html-slider-response","105","381548","0.0-101.0","ossat63tpc","72","NaN","<div style=""width:500px;"">
                            <p style=""font-size:50px; font-weight:bold;""
                            >angry</p>
                            <div style=""width:240px; margin: auto;"">
                                <img src=""images/map12_PuBuGn_scaleDef_orientDef_000.png"" style= ""width:200px""alt=""img"">
                            </div>
                        </div>","-100","","0","","","","images/map12_PuBuGn_scaleDef_orientDef_000.png","angry","1","12","12","PuBuGn","orientDef","scaleDef","000","",""
"","","","","","html-slider-response","106","383351","0.0-102.0","ossat63tpc","72","NaN","<div style=""width:500px;"">
                            <p style=""font-size:50px; font-weight:bold;""
                            >angry</p>
                            <div style=""width:240px; margin: auto;"">
                                <img src=""images/map23_bwr_scaleRev_orientDef_270.png"" style= ""width:200px""alt=""img"">
                            </div>
                        </div>","17","","0","","","","images/map23_bwr_scaleRev_orientDef_270.png","angry","1","23","23","bwr","orientDef","scaleRev","270","",""
"","","","","","html-slider-response","107","385662","0.0-103.0","ossat63tpc","72","NaN","<div style=""width:500px;"">
                            <p style=""font-size:50px; font-weight:bold;""
                            >angry</p>
                            <div style=""width:240px; margin: auto;"">
                                <img src=""images/map26_turbo_scaleDef_orientMir_180.png"" style= ""width:200px""alt=""img"">
                            </div>
                        </div>","-5","","0","","","","images/map26_turbo_scaleDef_orientMir_180.png","angry","1","26","26","turbo","orientMir","scaleDef","180","",""
"","","","","","html-slider-response","108","387731","0.0-104.0","ossat63tpc","72","NaN","<div style=""width:500px;"">
                            <p style=""font-size:50px; font-weight:bold;""
                            >angry</p>
                            <div style=""width:240px; margin: auto;"">
                                <img src=""images/map26_vanimo_scaleRev_orientDef_270.png"" style= ""width:200px""alt=""img"">
                            </div>
                        </div>","-72","","0","","","","images/map26_vanimo_scaleRev_orientDef_270.png","angry","1","26","26","vanimo","orientDef","scaleRev","270","",""
"","","","","","html-slider-response","109","390098","0.0-105.0","ossat63tpc","72","NaN","<div style=""width:500px;"">
                            <p style=""font-size:50px; font-weight:bold;""
                            >angry</p>
                            <div style=""width:240px; margin: auto;"">
                                <img src=""images/map10_GnBu_scaleRev_orientDef_270.png"" style= ""width:200px""alt=""img"">
                            </div>
                        </div>","-149","","0","","","","images/map10_GnBu_scaleRev_orientDef_270.png","angry","1","10","10","GnBu","orientDef","scaleRev","270","",""
"","","","","","html-slider-response","110","392001","0.0-106.0","ossat63tpc","72","NaN","<div style=""width:500px;"">
                            <p style=""font-size:50px; font-weight:bold;""
                            >angry</p>
                            <div style=""width:240px; margin: auto;"">
                                <img src=""images/map13_RdGy_scaleDef_orientMir_180.png"" style= ""width:200px""alt=""img"">
                            </div>
                        </div>","30","","0","","","","images/map13_RdGy_scaleDef_orientMir_180.png","angry","1","13","13","RdGy","orientMir","scaleDef","180","",""
"","","","","","html-slider-response","111","393462","0.0-107.0","ossat63tpc","72","NaN","<div style=""width:500px;"">
                            <p style=""font-size:50px; font-weight:bold;""
                            >angry</p>
                            <div style=""width:240px; margin: auto;"">
                                <img src=""images/map26_managua_scaleDef_orientDef_000.png"" style= ""width:200px""alt=""img"">
                            </div>
                        </div>","-56","","0","","","","images/map26_managua_scaleDef_orientDef_000.png","angry","1","26","26","managua","orientDef","scaleDef","000","",""
"","","","","","html-slider-response","112","395346","0.0-108.0","ossat63tpc","72","NaN","<div style=""width:500px;"">
                            <p style=""font-size:50px; font-weight:bold;""
                            >angry</p>
                            <div style=""width:240px; margin: auto;"">
                                <img src=""images/map15_RdBu_scaleDef_orientDef_000.png"" style= ""width:200px""alt=""img"">
                            </div>
                        </div>","23","","0","","","","images/map15_RdBu_scaleDef_orientDef_000.png","angry","1","15","15","RdBu","orientDef","scaleDef","000","",""
"","","","","","html-slider-response","113","397754","0.0-109.0","ossat63tpc","72","NaN","<div style=""width:500px;"">
                            <p style=""font-size:50px; font-weight:bold;""
                            >angry</p>
                            <div style=""width:240px; margin: auto;"">
                                <img src=""images/map07_OrRd_scaleRev_orientDef_270.png"" style= ""width:200px""alt=""img"">
                            </div>
                        </div>","46","","0","","","","images/map07_OrRd_scaleRev_orientDef_270.png","angry","1","07","07","OrRd","orientDef","scaleRev","270","",""
"","","","","","html-slider-response","114","399403","0.0-110.0","ossat63tpc","72","NaN","<div style=""width:500px;"">
                            <p style=""font-size:50px; font-weight:bold;""
                            >angry</p>
                            <div style=""width:240px; margin: auto;"">
                                <img src=""images/map12_PuBuGn_scaleRev_orientDef_090.png"" style= ""width:200px""alt=""img"">
                            </div>
                        </div>","-137","","0","","","","images/map12_PuBuGn_scaleRev_orientDef_090.png","angry","1","12","12","PuBuGn","orientDef","scaleRev","090","",""
"","","","","","html-slider-response","115","401163","0.0-111.0","ossat63tpc","72","NaN","<div style=""width:500px;"">
                            <p style=""font-size:50px; font-weight:bold;""
                            >angry</p>
                            <div style=""width:240px; margin: auto;"">
                                <img src=""images/map23_coolwarm_scaleDef_orientDef_000.png"" style= ""width:200px""alt=""img"">
                            </div>
                        </div>","36","","0","","","","images/map23_coolwarm_scaleDef_orientDef_000.png","angry","1","23","23","coolwarm","orientDef","scaleDef","000","",""
"","","","","","html-slider-response","116","403397","0.0-112.0","ossat63tpc","72","NaN","<div style=""width:500px;"">
                            <p style=""font-size:50px; font-weight:bold;""
                            >angry</p>
                            <div style=""width:240px; margin: auto;"">
                                <img src=""images/map02_Greys_scaleDef_orientDef_180.png"" style= ""width:200px""alt=""img"">
                            </div>
                        </div>","-38","","0","","","","images/map02_Greys_scaleDef_orientDef_180.png","angry","1","02","02","Greys","orientDef","scaleDef","180","",""
"","","","","","html-slider-response","117","405068","0.0-113.0","ossat63tpc","72","NaN","<div style=""width:500px;"">
                            <p style=""font-size:50px; font-weight:bold;""
                            >angry</p>
                            <div style=""width:240px; margin: auto;"">
                                <img src=""images/map15_RdYlGn_scaleDef_orientMir_000.png"" style= ""width:200px""alt=""img"">
                            </div>
                        </div>","29","","0","","","","images/map15_RdYlGn_scaleDef_orientMir_000.png","angry","1","15","15","RdYlGn","orientMir","scaleDef","000","",""
"","","","","","html-slider-response","118","407020","0.0-114.0","ossat63tpc","72","NaN","<div style=""width:500px;"">
                            <p style=""font-size:50px; font-weight:bold;""
                            >angry</p>
                            <div style=""width:240px; margin: auto;"">
                                <img src=""images/map05_Reds_scaleDef_orientMir_000.png"" style= ""width:200px""alt=""img"">
                            </div>
                        </div>","200","","0","","","","images/map05_Reds_scaleDef_orientMir_000.png","angry","1","05","05","Reds","orientMir","scaleDef","000","",""
"","","","","","html-slider-response","119","409368","0.0-115.0","ossat63tpc","72","NaN","<div style=""width:500px;"">
                            <p style=""font-size:50px; font-weight:bold;""
                            >angry</p>
                            <div style=""width:240px; margin: auto;"">
                                <img src=""images/map02_cividis_scaleDef_orientDef_000.png"" style= ""width:200px""alt=""img"">
                            </div>
                        </div>","-30","","0","","","","images/map02_cividis_scaleDef_orientDef_000.png","angry","1","02","02","cividis","orientDef","scaleDef","000","",""
"","","","","","html-slider-response","120","411516","0.0-116.0","ossat63tpc","72","NaN","<div style=""width:500px;"">
                            <p style=""font-size:50px; font-weight:bold;""
                            >angry</p>
                            <div style=""width:240px; margin: auto;"">
                                <img src=""images/map02_Greys_scaleRev_orientDef_270.png"" style= ""width:200px""alt=""img"">
                            </div>
                        </div>","-131","","0","","","","images/map02_Greys_scaleRev_orientDef_270.png","angry","1","02","02","Greys","orientDef","scaleRev","270","",""
"","","","","","html-slider-response","121","413063","0.0-117.0","ossat63tpc","72","NaN","<div style=""width:500px;"">
                            <p style=""font-size:50px; font-weight:bold;""
                            >angry</p>
                            <div style=""width:240px; margin: auto;"">
                                <img src=""images/map13_BrBG_scaleRev_orientDef_270.png"" style= ""width:200px""alt=""img"">
                            </div>
                        </div>","-46","","0","","","","images/map13_BrBG_scaleRev_orientDef_270.png","angry","1","13","13","BrBG","orientDef","scaleRev","270","",""
"","","","","","html-slider-response","122","414649","0.0-118.0","ossat63tpc","72","NaN","<div style=""width:500px;"">
                            <p style=""font-size:50px; font-weight:bold;""
                            >angry</p>
                            <div style=""width:240px; margin: auto;"">
                                <img src=""images/map07_OrRd_scaleDef_orientDef_180.png"" style= ""width:200px""alt=""img"">
                            </div>
                        </div>","200","","0","","","","images/map07_OrRd_scaleDef_orientDef_180.png","angry","1","07","07","OrRd","orientDef","scaleDef","180","",""
"","","","","","html-slider-response","123","416511","0.0-119.0","ossat63tpc","72","NaN","<div style=""width:500px;"">
                            <p style=""font-size:50px; font-weight:bold;""
                            >angry</p>
                            <div style=""width:240px; margin: auto;"">
                                <img src=""images/map05_Greens_scaleDef_orientDef_000.png"" style= ""width:200px""alt=""img"">
                            </div>
                        </div>","-200","","0","","","","images/map05_Greens_scaleDef_orientDef_000.png","angry","1","05","05","Greens","orientDef","scaleDef","000","",""
"","","","","","html-slider-response","124","418244","0.0-120.0","ossat63tpc","72","NaN","<div style=""width:500px;"">
                            <p style=""font-size:50px; font-weight:bold;""
                            >angry</p>
                            <div style=""width:240px; margin: auto;"">
                                <img src=""images/map13_BrBG_scaleDef_orientDef_180.png"" style= ""width:200px""alt=""img"">
                            </div>
                        </div>","-58","","0","","","","images/map13_BrBG_scaleDef_orientDef_180.png","angry","1","13","13","BrBG","orientDef","scaleDef","180","",""
"","","","","","html-slider-response","125","419866","0.0-121.0","ossat63tpc","72","NaN","<div style=""width:500px;"">
                            <p style=""font-size:50px; font-weight:bold;""
                            >angry</p>
                            <div style=""width:240px; margin: auto;"">
                                <img src=""images/map23_coolwarm_scaleRev_orientDef_090.png"" style= ""width:200px""alt=""img"">
                            </div>
                        </div>","9","","0","","","","images/map23_coolwarm_scaleRev_orientDef_090.png","angry","1","23","23","coolwarm","orientDef","scaleRev","090","",""
"","","","","","html-slider-response","126","421478","0.0-122.0","ossat63tpc","72","NaN","<div style=""width:500px;"">
                            <p style=""font-size:50px; font-weight:bold;""
                            >angry</p>
                            <div style=""width:240px; margin: auto;"">
                                <img src=""images/map10_BuPu_scaleRev_orientDef_090.png"" style= ""width:200px""alt=""img"">
                            </div>
                        </div>","-70","","0","","","","images/map10_BuPu_scaleRev_orientDef_090.png","angry","1","10","10","BuPu","orientDef","scaleRev","090","",""
"","","","","","html-slider-response","127","422945","0.0-123.0","ossat63tpc","72","NaN","<div style=""width:500px;"">
                            <p style=""font-size:50px; font-weight:bold;""
                            >angry</p>
                            <div style=""width:240px; margin: auto;"">
                                <img src=""images/map13_PRGn_scaleRev_orientDef_090.png"" style= ""width:200px""alt=""img"">
                            </div>
                        </div>","-81","","0","","","","images/map13_PRGn_scaleRev_orientDef_090.png","angry","1","13","13","PRGn","orientDef","scaleRev","090","",""
"","","","","","html-slider-response","128","424566","0.0-124.0","ossat63tpc","72","NaN","<div style=""width:500px;"">
                            <p style=""font-size:50px; font-weight:bold;""
                            >angry</p>
                            <div style=""width:240px; margin: auto;"">
                                <img src=""images/map05_Oranges_scaleDef_orientDef_180.png"" style= ""width:200px""alt=""img"">
                            </div>
                        </div>","197","","0","","","","images/map05_Oranges_scaleDef_orientDef_180.png","angry","1","05","05","Oranges","orientDef","scaleDef","180","",""
"","","","","","html-slider-response","129","426229","0.0-125.0","ossat63tpc","72","NaN","<div style=""width:500px;"">
                            <p style=""font-size:50px; font-weight:bold;""
                            >angry</p>
                            <div style=""width:240px; margin: auto;"">
                                <img src=""images/map10_PuBu_scaleDef_orientMir_000.png"" style= ""width:200px""alt=""img"">
                            </div>
                        </div>","-200","","0","","","","images/map10_PuBu_scaleDef_orientMir_000.png","angry","1","10","10","PuBu","orientMir","scaleDef","000","",""
"","","","","","html-slider-response","130","427816","0.0-126.0","ossat63tpc","72","NaN","<div style=""width:500px;"">
                            <p style=""font-size:50px; font-weight:bold;""
                            >angry</p>
                            <div style=""width:240px; margin: auto;"">
                                <img src=""images/map26_vanimo_scaleDef_orientDef_180.png"" style= ""width:200px""alt=""img"">
                            </div>
                        </div>","-46","","0","","","","images/map26_vanimo_scaleDef_orientDef_180.png","angry","1","26","26","vanimo","orientDef","scaleDef","180","",""
"","","","","","html-slider-response","131","429579","0.0-127.0","ossat63tpc","72","NaN","<div style=""width:500px;"">
                            <p style=""font-size:50px; font-weight:bold;""
                            >angry</p>
                            <div style=""width:240px; margin: auto;"">
                                <img src=""images/map26_turbo_scaleRev_orientMir_270.png"" style= ""width:200px""alt=""img"">
                            </div>
                        </div>","23","","0","","","","images/map26_turbo_scaleRev_orientMir_270.png","angry","1","26","26","turbo","orientMir","scaleRev","270","",""
"","","","","","html-slider-response","132","431122","0.0-128.0","ossat63tpc","72","NaN","<div style=""width:500px;"">
                            <p style=""font-size:50px; font-weight:bold;""
                            >angry</p>
                            <div style=""width:240px; margin: auto;"">
                                <img src=""images/map02_Blues_scaleRev_orientMir_270.png"" style= ""width:200px""alt=""img"">
                            </div>
                        </div>","-120","","0","","","","images/map02_Blues_scaleRev_orientMir_270.png","angry","1","02","02","Blues","orientMir","scaleRev","270","",""
"","","","","","html-slider-response","133","432522","0.0-129.0","ossat63tpc","72","NaN","<div style=""width:500px;"">
                            <p style=""font-size:50px; font-weight:bold;""
                            >angry</p>
                            <div style=""width:240px; margin: auto;"">
                                <img src=""images/map10_YlGnBu_scaleDef_orientMir_180.png"" style= ""width:200px""alt=""img"">
                            </div>
                        </div>","-131","","0","","","","images/map10_YlGnBu_scaleDef_orientMir_180.png","angry","1","10","10","YlGnBu","orientMir","scaleDef","180","",""
"","","","","","html-slider-response","134","434261","0.0-130.0","ossat63tpc","72","NaN","<div style=""width:500px;"">
                            <p style=""font-size:50px; font-weight:bold;""
                            >angry</p>
                            <div style=""width:240px; margin: auto;"">
                                <img src=""images/map13_PuOr_scaleRev_orientMir_090.png"" style= ""width:200px""alt=""img"">
                            </div>
                        </div>","-59","","0","","","","images/map13_PuOr_scaleRev_orientMir_090.png","angry","1","13","13","PuOr","orientMir","scaleRev","090","",""
"","","","","","html-slider-response","135","435614","0.0-131.0","ossat63tpc","72","NaN","<div style=""width:500px;"">
                            <p style=""font-size:50px; font-weight:bold;""
                            >angry</p>
                            <div style=""width:240px; margin: auto;"">
                                <img src=""images/map26_gist_earth_scaleRev_orientMir_090.png"" style= ""width:200px""alt=""img"">
                            </div>
                        </div>","-155","","0","","","","images/map26_gist_earth_scaleRev_orientMir_090.png","angry","1","26","26","gist","scaleRev","earth","orientMir","",""
"","","","","","html-slider-response","136","437671","0.0-132.0","ossat63tpc","72","NaN","<div style=""width:500px;"">
                            <p style=""font-size:50px; font-weight:bold;""
                            >angry</p>
                            <div style=""width:240px; margin: auto;"">
                                <img src=""images/map23_berlin_scaleDef_orientMir_180.png"" style= ""width:200px""alt=""img"">
                            </div>
                        </div>","7","","0","","","","images/map23_berlin_scaleDef_orientMir_180.png","angry","1","23","23","berlin","orientMir","scaleDef","180","",""
"","","","","","html-slider-response","137","439079","0.0-133.0","ossat63tpc","72","NaN","<div style=""width:500px;"">
                            <p style=""font-size:50px; font-weight:bold;""
                            >angry</p>
                            <div style=""width:240px; margin: auto;"">
                                <img src=""images/map23_seismic_scaleRev_orientMir_090.png"" style= ""width:200px""alt=""img"">
                            </div>
                        </div>","28","","0","","","","images/map23_seismic_scaleRev_orientMir_090.png","angry","1","23","23","seismic","orientMir","scaleRev","090","",""
"","","","","","html-slider-response","138","440862","0.0-134.0","ossat63tpc","72","NaN","<div style=""width:500px;"">
                            <p style=""font-size:50px; font-weight:bold;""
                            >angry</p>
                            <div style=""width:240px; margin: auto;"">
                                <img src=""images/map26_managua_scaleRev_orientDef_090.png"" style= ""width:200px""alt=""img"">
                            </div>
                        </div>","-51","","0","","","","images/map26_managua_scaleRev_orientDef_090.png","angry","1","26","26","managua","orientDef","scaleRev","090","",""
"","","","","","html-slider-response","139","442461","0.0-135.0","ossat63tpc","72","NaN","<div style=""width:500px;"">
                            <p style=""font-size:50px; font-weight:bold;""
                            >angry</p>
                            <div style=""width:240px; margin: auto;"">
                                <img src=""images/map27_inferno_scaleDef_orientMir_000.png"" style= ""width:200px""alt=""img"">
                            </div>
                        </div>","-80","","0","","","","images/map27_inferno_scaleDef_orientMir_000.png","angry","1","27","27","inferno","orientMir","scaleDef","000","",""
"","","","","","html-slider-response","140","444743","0.0-136.0","ossat63tpc","72","NaN","<div style=""width:500px;"">
                            <p style=""font-size:50px; font-weight:bold;""
                            >angry</p>
                            <div style=""width:240px; margin: auto;"">
                                <img src=""images/map12_BuGn_scaleDef_orientDef_180.png"" style= ""width:200px""alt=""img"">
                            </div>
                        </div>","-200","","0","","","","images/map12_BuGn_scaleDef_orientDef_180.png","angry","1","12","12","BuGn","orientDef","scaleDef","180","",""
"","","","","","html-button-response","141","446254","0.0-137.0","ossat63tpc","72","1003","<p>You are doing great!<br></br> You are halway done with the current block. When you are ready to continue, click the 'Continue' button.</p>","0","","","","","","","","","","","","","","","",""
"","","","","","html-slider-response","142","447845","0.0-138.0","ossat63tpc","72","NaN","<div style=""width:500px;"">
                            <p style=""font-size:50px; font-weight:bold;""
                            >angry</p>
                            <div style=""width:240px; margin: auto;"">
                                <img src=""images/map27_plasma_scaleRev_orientDef_270.png"" style= ""width:200px""alt=""img"">
                            </div>
                        </div>","-79","","0","","","","images/map27_plasma_scaleRev_orientDef_270.png","angry","1","27","27","plasma","orientDef","scaleRev","270","",""
"","","","","","html-slider-response","143","449113","0.0-139.0","ossat63tpc","72","NaN","<div style=""width:500px;"">
                            <p style=""font-size:50px; font-weight:bold;""
                            >angry</p>
                            <div style=""width:240px; margin: auto;"">
                                <img src=""images/map27_viridis_scaleDef_orientDef_000.png"" style= ""width:200px""alt=""img"">
                            </div>
                        </div>","-128","","0","","","","images/map27_viridis_scaleDef_orientDef_000.png","angry","1","27","27","viridis","orientDef","scaleDef","000","",""
"","","","","","html-slider-response","144","450676","0.0-140.0","ossat63tpc","72","NaN","<div style=""width:500px;"">
                            <p style=""font-size:50px; font-weight:bold;""
                            >angry</p>
                            <div style=""width:240px; margin: auto;"">
                                <img src=""images/map27_inferno_scaleRev_orientMir_090.png"" style= ""width:200px""alt=""img"">
                            </div>
                        </div>","21","","0","","","","images/map27_inferno_scaleRev_orientMir_090.png","angry","1","27","27","inferno","orientMir","scaleRev","090","",""
"","","","","","html-slider-response","145","452427","0.0-141.0","ossat63tpc","72","NaN","<div style=""width:500px;"">
                            <p style=""font-size:50px; font-weight:bold;""
                            >angry</p>
                            <div style=""width:240px; margin: auto;"">
                                <img src=""images/map15_RdYlBu_scaleDef_orientDef_180.png"" style= ""width:200px""alt=""img"">
                            </div>
                        </div>","36","","0","","","","images/map15_RdYlBu_scaleDef_orientDef_180.png","angry","1","15","15","RdYlBu","orientDef","scaleDef","180","",""
"","","","","","html-slider-response","146","453742","0.0-142.0","ossat63tpc","72","NaN","<div style=""width:500px;"">
                            <p style=""font-size:50px; font-weight:bold;""
                            >angry</p>
                            <div style=""width:240px; margin: auto;"">
                                <img src=""images/map10_YlGnBu_scaleRev_orientMir_270.png"" style= ""width:200px""alt=""img"">
                            </div>
                        </div>","-112","","0","","","","images/map10_YlGnBu_scaleRev_orientMir_270.png","angry","1","10","10","YlGnBu","orientMir","scaleRev","270","",""
"","","","","","html-slider-response","147","455050","0.0-143.0","ossat63tpc","72","NaN","<div style=""width:500px;"">
                            <p style=""font-size:50px; font-weight:bold;""
                            >angry</p>
                            <div style=""width:240px; margin: auto;"">
                                <img src=""images/map10_PuBu_scaleRev_orientMir_090.png"" style= ""width:200px""alt=""img"">
                            </div>
                        </div>","-78","","0","","","","images/map10_PuBu_scaleRev_orientMir_090.png","angry","1","10","10","PuBu","orientMir","scaleRev","090","",""
"","","","","","html-slider-response","148","456382","0.0-144.0","ossat63tpc","72","NaN","<div style=""width:500px;"">
                            <p style=""font-size:50px; font-weight:bold;""
                            >angry</p>
                            <div style=""width:240px; margin: auto;"">
                                <img src=""images/map02_Blues_scaleDef_orientMir_180.png"" style= ""width:200px""alt=""img"">
                            </div>
                        </div>","-146","","0","","","","images/map02_Blues_scaleDef_orientMir_180.png","angry","1","02","02","Blues","orientMir","scaleDef","180","",""
"","","","","","html-slider-response","149","457844","0.0-145.0","ossat63tpc","72","NaN","<div style=""width:500px;"">
                            <p style=""font-size:50px; font-weight:bold;""
                            >angry</p>
                            <div style=""width:240px; margin: auto;"">
                                <img src=""images/map07_YlOrRd_scaleDef_orientDef_000.png"" style= ""width:200px""alt=""img"">
                            </div>
                        </div>","30","","0","","","","images/map07_YlOrRd_scaleDef_orientDef_000.png","angry","1","07","07","YlOrRd","orientDef","scaleDef","000","",""
"","","","","","html-slider-response","150","459426","0.0-146.0","ossat63tpc","72","NaN","<div style=""width:500px;"">
                            <p style=""font-size:50px; font-weight:bold;""
                            >angry</p>
                            <div style=""width:240px; margin: auto;"">
                                <img src=""images/map12_YlGn_scaleRev_orientMir_090.png"" style= ""width:200px""alt=""img"">
                            </div>
                        </div>","-200","","0","","","","images/map12_YlGn_scaleRev_orientMir_090.png","angry","1","12","12","YlGn","orientMir","scaleRev","090","",""
"","","","","","html-slider-response","151","461209","0.0-147.0","ossat63tpc","72","NaN","<div style=""width:500px;"">
                            <p style=""font-size:50px; font-weight:bold;""
                            >angry</p>
                            <div style=""width:240px; margin: auto;"">
                                <img src=""images/map07_PuRd_scaleDef_orientMir_000.png"" style= ""width:200px""alt=""img"">
                            </div>
                        </div>","107","","0","","","","images/map07_PuRd_scaleDef_orientMir_000.png","angry","1","07","07","PuRd","orientMir","scaleDef","000","",""
"","","","","","html-slider-response","152","462811","0.0-148.0","ossat63tpc","72","NaN","<div style=""width:500px;"">
                            <p style=""font-size:50px; font-weight:bold;""
                            >angry</p>
                            <div style=""width:240px; margin: auto;"">
                                <img src=""images/map05_Greens_scaleRev_orientDef_090.png"" style= ""width:200px""alt=""img"">
                            </div>
                        </div>","-200","","0","","","","images/map05_Greens_scaleRev_orientDef_090.png","angry","1","05","05","Greens","orientDef","scaleRev","090","",""
"","","","","","html-slider-response","153","464711","0.0-149.0","ossat63tpc","72","NaN","<div style=""width:500px;"">
                            <p style=""font-size:50px; font-weight:bold;""
                            >angry</p>
                            <div style=""width:240px; margin: auto;"">
                                <img src=""images/map23_berlin_scaleRev_orientMir_270.png"" style= ""width:200px""alt=""img"">
                            </div>
                        </div>","30","","0","","","","images/map23_berlin_scaleRev_orientMir_270.png","angry","1","23","23","berlin","orientMir","scaleRev","270","",""
"","","","","","html-slider-response","154","466394","0.0-150.0","ossat63tpc","72","NaN","<div style=""width:500px;"">
                            <p style=""font-size:50px; font-weight:bold;""
                            >angry</p>
                            <div style=""width:240px; margin: auto;"">
                                <img src=""images/map02_cividis_scaleRev_orientDef_090.png"" style= ""width:200px""alt=""img"">
                            </div>
                        </div>","-62","","0","","","","images/map02_cividis_scaleRev_orientDef_090.png","angry","1","02","02","cividis","orientDef","scaleRev","090","",""
"","","","","","html-slider-response","155","467756","0.0-151.0","ossat63tpc","72","NaN","<div style=""width:500px;"">
                            <p style=""font-size:50px; font-weight:bold;""
                            >angry</p>
                            <div style=""width:240px; margin: auto;"">
                                <img src=""images/map23_seismic_scaleDef_orientMir_000.png"" style= ""width:200px""alt=""img"">
                            </div>
                        </div>","67","","0","","","","images/map23_seismic_scaleDef_orientMir_000.png","angry","1","23","23","seismic","orientMir","scaleDef","000","",""
"","","","","","html-slider-response","156","469314","0.0-152.0","ossat63tpc","72","NaN","<div style=""width:500px;"">
                            <p style=""font-size:50px; font-weight:bold;""
                            >angry</p>
                            <div style=""width:240px; margin: auto;"">
                                <img src=""images/map15_Spectral_scaleDef_orientMir_180.png"" style= ""width:200px""alt=""img"">
                            </div>
                        </div>","30","","0","","","","images/map15_Spectral_scaleDef_orientMir_180.png","angry","1","15","15","Spectral","orientMir","scaleDef","180","",""
"","","","","","html-slider-response","157","470545","0.0-153.0","ossat63tpc","72","NaN","<div style=""width:500px;"">
                            <p style=""font-size:50px; font-weight:bold;""
                            >angry</p>
                            <div style=""width:240px; margin: auto;"">
                                <img src=""images/map12_PiYG_scaleDef_orientMir_180.png"" style= ""width:200px""alt=""img"">
                            </div>
                        </div>","-125","","0","","","","images/map12_PiYG_scaleDef_orientMir_180.png","angry","1","12","12","PiYG","orientMir","scaleDef","180","",""
"","","","","","html-slider-response","158","472020","0.0-154.0","ossat63tpc","72","NaN","<div style=""width:500px;"">
                            <p style=""font-size:50px; font-weight:bold;""
                            >angry</p>
                            <div style=""width:240px; margin: auto;"">
                                <img src=""images/map15_RdBu_scaleRev_orientDef_090.png"" style= ""width:200px""alt=""img"">
                            </div>
