"success","timeout","failed_images","failed_audio","failed_video","trial_type","trial_index","time_elapsed","internal_node_id","subject_id","condition_num","rt","stimulus","response","question_order","slider_start","practiceTrial","practiceTrialNum","correct","image_path","concept","repetition","map_id","map_num","scale_name","orientation_code","mapping_code","rotation_code","ishihara_plate","correct_response"
"true","false","[]","[]","[]","preload","0","591","0.0-0.0","p6fhw2y8js","73","","","","","","","","","","","","","","","","","","",""
"","","","","","html-button-response","1","6922","0.0-1.0","p6fhw2y8js","73","6326","Welcome to our experiment!<p>At the bottom of this screen, you will see a button that says ""Begin Experiment"".<br>Please only click that button when you are ready to complete the 30 minute experiment in one sitting.</p><p> Once you click that button, it will not be possible to restart the experiment.","0","","","","","","","","","","","","","","","",""
"true","","","","","fullscreen","2","10124","0.0-2.0","p6fhw2y8js","73","2193","","","","","","","","","","","","","","","","","",""
"","","","","","survey-multi-select","3","18368","0.0-3.0","p6fhw2y8js","73","8237","","{""Consent"":[""<strong>I consent</strong>""]}","[0]","","","","","","","","","","","","","","",""
"","","","","","html-button-response","4","23815","0.0-4.0","p6fhw2y8js","73","5445","Welcome! <p> This experiment involves two parts: demographic information, followed by the experimental task.<p> It will take about 30 minutes to complete both parts.","0","","","","","","","","","","","","","","","",""
"","","","","","survey-text","5","57662","0.0-5.0","p6fhw2y8js","73","33834","","{""Age"":""19"",""Gender"":""Male"",""Race/ethnicity"":""White"",""Languages"":""Spanish and English""}","","","","","","","","","","","","","","","",""
"","","","","","html-slider-response","6","78108","0.0-6.0","p6fhw2y8js","73","20441","<div style='text-align:left; font-size:20px; line-height:25px; width: 1000px;'>
                                During this experiment you will be asked to rate how much you associate maps with                    different concepts.<br> Below, you can see some examples of the maps you will be asked to rate. Above the maps
                    is the list of concepts.<br>You will be asked                    to rate how much you associate each map with each concept on a scale from 'not at all' to 'very much' like the
                    one below. <br><br>
                    Now, please look at the list of concepts and maps. For each concept, think about the map you associate 'very
                    much' with the concept.<br>                     When you see that map during the experiment, please rate it near the 'very much' endpoint of the
                    scale.<br>Now, please think about which map you associate 'not at all'                     with each concept. When you see that map during the experiment, please rate it near the 'not at all' endpoint
                    of the scale.<br>
                    Please use the full range of the scale. That is, if a map is somewhat associated with the concept, you would
                    click partway between the middle point and right side of the scale.                    You will be asked to rate each map for a given concept before moving on to the next concept.<br>Press the
                    'Continue' button for instructions on how to use the slider.                    <br>
                </div>

                <div style=""width: 500px; margin: 0 auto;"">
                    <!-- Centered text paragraphs -->
                    <div style=""text-align: center; width: 500px;"">
                        <p style=""font-size:25px; line-height:15px;"">
                            fearful&nbsp;&nbsp;&nbsp;&nbsp;
                            happy&nbsp;&nbsp;&nbsp;&nbsp;
                            disgust&nbsp;&nbsp;&nbsp;&nbsp;
                            angry&nbsp;&nbsp;&nbsp;&nbsp;
                            sad
                        </p>
                        <!-- <p style=""font-size:20px; line-height:15px;"">happy</p>
                        <p style=""font-size:20px;line-height:15px;"">disgust</p>
                        <p style=""font-size:20px;line-height:15px;"">angry</p>
                        <p style=""font-size:20px;line-height:15px;"">sad</p> -->
                    </div>
            

                    <!-- Grid section -->
                   <div style=""display: flex; justify-content: center; padding-top: 15px;"">
                    <div style=""display: grid; grid-template-columns: repeat(10, 55px); grid-gap: 5px; width: auto;"">
                        <img src=""images/map26_inferno_scaleDef_orientMir_180.png"" alt=""map"" style=""width: 100%;""><img src=""images/map26_plasma_scaleRev_orientMir_090.png"" alt=""map"" style=""width: 100%;""><img src=""images/map10_PuBuGn_scaleRev_orientDef_270.png"" alt=""map"" style=""width: 100%;""><img src=""images/map15_seismic_scaleRev_orientMir_270.png"" alt=""map"" style=""width: 100%;""><img src=""images/map07_PuBu_scaleRev_orientMir_270.png"" alt=""map"" style=""width: 100%;""><img src=""images/map05_YlOrBr_scaleRev_orientDef_090.png"" alt=""map"" style=""width: 100%;""><img src=""images/map13_RdYlBu_scaleRev_orientMir_090.png"" alt=""map"" style=""width: 100%;""><img src=""images/map23_managua_scaleDef_orientDef_180.png"" alt=""map"" style=""width: 100%;""><img src=""images/map10_YlGn_scaleDef_orientMir_180.png"" alt=""map"" style=""width: 100%;""><img src=""images/map27_cividis_scaleDef_orientDef_180.png"" alt=""map"" style=""width: 100%;""><img src=""images/map02_Reds_scaleDef_orientMir_180.png"" alt=""map"" style=""width: 100%;""><img src=""images/map27_magma_scaleRev_orientDef_090.png"" alt=""map"" style=""width: 100%;""><img src=""images/map13_RdGy_scaleRev_orientDef_090.png"" alt=""map"" style=""width: 100%;""><img src=""images/map13_RdYlGn_scaleDef_orientMir_180.png"" alt=""map"" style=""width: 100%;""><img src=""images/map13_RdBu_scaleDef_orientDef_180.png"" alt=""map"" style=""width: 100%;""><img src=""images/map23_vanimo_scaleDef_orientMir_000.png"" alt=""map"" style=""width: 100%;""><img src=""images/map10_YlGnBu_scaleRev_orientDef_090.png"" alt=""map"" style=""width: 100%;""><img src=""images/map12_PRGn_scaleDef_orientDef_180.png"" alt=""map"" style=""width: 100%;""><img src=""images/map26_turbo_scaleRev_orientDef_090.png"" alt=""map"" style=""width: 100%;""><img src=""images/map05_OrRd_scaleRev_orientMir_090.png"" alt=""map"" style=""width: 100%;""><img src=""images/map15_bwr_scaleDef_orientMir_000.png"" alt=""map"" style=""width: 100%;""><img src=""images/map12_BrBG_scaleRev_orientMir_090.png"" alt=""map"" style=""width: 100%;""><img src=""images/map02_Oranges_scaleDef_orientMir_000.png"" alt=""map"" style=""width: 100%;""><img src=""images/map07_GnBu_scaleRev_orientMir_090.png"" alt=""map"" style=""width: 100%;""><img src=""images/map10_BuGn_scaleDef_orientMir_000.png"" alt=""map"" style=""width: 100%;""><img src=""images/map02_Greens_scaleRev_orientDef_270.png"" alt=""map"" style=""width: 100%;""><img src=""images/map02_Blues_scaleDef_orientDef_000.png"" alt=""map"" style=""width: 100%;""><img src=""images/map07_RdPu_scaleDef_orientDef_000.png"" alt=""map"" style=""width: 100%;""><img src=""images/map12_PiYG_scaleDef_orientDef_000.png"" alt=""map"" style=""width: 100%;""><img src=""images/map07_BuPu_scaleDef_orientDef_180.png"" alt=""map"" style=""width: 100%;""><img src=""images/map23_gist_earth_scaleDef_orientMir_180.png"" alt=""map"" style=""width: 100%;""><img src=""images/map05_YlOrRd_scaleRev_orientDef_270.png"" alt=""map"" style=""width: 100%;""><img src=""images/map15_Spectral_scaleDef_orientDef_000.png"" alt=""map"" style=""width: 100%;""><img src=""images/map26_viridis_scaleRev_orientDef_270.png"" alt=""map"" style=""width: 100%;""><img src=""images/map05_PuRd_scaleDef_orientMir_180.png"" alt=""map"" style=""width: 100%;""><img src=""images/map12_PuOr_scaleRev_orientMir_270.png"" alt=""map"" style=""width: 100%;""><img src=""images/map15_coolwarm_scaleDef_orientDef_180.png"" alt=""map"" style=""width: 100%;""><img src=""images/map27_Purples_scaleDef_orientMir_180.png"" alt=""map"" style=""width: 100%;""><img src=""images/map27_Greys_scaleRev_orientMir_090.png"" alt=""map"" style=""width: 100%;""><img src=""images/map23_berlin_scaleDef_orientDef_000.png"" alt=""map"" style=""width: 100%;"">
                    </div>
                </div>

                    <!-- Clear floats -->
                    <div style=""clear: both;""></div>
                </div>
                            ","0","","0","true","","","","","","","","","","","","",""
"","","","","","html-button-response","7","92382","0.0-7.0","p6fhw2y8js","73","14272","<div style=""width:800px;""><p style=""text-align:left"">To move the slider, click and drag your cursor to the location of the scale where you would like to make your rating and then let go. When you let go of the slider, your response will be recorded and the next trial will begin. <br>
                    We are interested in your initial impressions of each map for the given concept, so please go with your first intuition. <br>
                    Before you begin the experiment, there will be four training trials for you to practice using the scale. <br>
                     When you are ready to start the training trials, please click ""Continue"".</p><br></div>","0","","","","","","","","","","","","","","","",""
"","","","","","html-slider-response","8","95413","0.0-8.0-0.0","p6fhw2y8js","73","NaN","<div style=""width:500px;"">
                                    <p style=""font-size:25px;"">Please move the slider all the way to the <br> right endpoint of the scale</p>

                                    </div>
                                </div>","200","","0","true","0","true","","","","","","","","","","",""
"","","","","","html-button-response","9","98081","0.0-8.0-1.0","p6fhw2y8js","73","2156","<p align='center'><b>Good job!</b> Click on 'Continue' to proceed.</p>","0","","","","","","","","","","","","","","","",""
"","","","","","html-slider-response","10","100144","0.0-9.0-0.0","p6fhw2y8js","73","NaN","<div style=""width:500px;"">
                                    <p style=""font-size:25px;"">Please move the slider all the way to the <br> left endpoint of the scale</p>

                                    </div>
                                </div>","-200","","0","true","1","true","","","","","","","","","","",""
"","","","","","html-button-response","11","101254","0.0-9.0-1.0","p6fhw2y8js","73","602","<p align='center'><b>Good job!</b> Click on 'Continue' to proceed.</p>","0","","","","","","","","","","","","","","","",""
"","","","","","html-slider-response","12","104469","0.0-10.0-0.0","p6fhw2y8js","73","NaN","<div style=""width:500px;"">
                                    <p style=""font-size:25px;"">Please move the slider halfway between the center and right endpoint of the scale</p>

                                    </div>
                                </div>","106","","0","true","2","true","","","","","","","","","","",""
"","","","","","html-button-response","13","105637","0.0-10.0-1.0","p6fhw2y8js","73","666","<p align='center'><b>Good job!</b> Click on 'Continue' to proceed.</p>","0","","","","","","","","","","","","","","","",""
"","","","","","html-slider-response","14","107744","0.0-11.0-0.0","p6fhw2y8js","73","NaN","<div style=""width:500px;"">
                                    <p style=""font-size:25px;"">Please move the slider halfway between the center and left endpoint of the scale</p>

                                    </div>
                                </div>","-110","","0","true","3","true","","","","","","","","","","",""
"","","","","","html-button-response","15","108867","0.0-11.0-1.0","p6fhw2y8js","73","610","<p align='center'><b>Good job!</b> Click on 'Continue' to proceed.</p>","0","","","","","","","","","","","","","","","",""
"","","","","","html-button-response","16","110130","0.0-12.0","p6fhw2y8js","73","1259","<p>Great job! You've completed the practice trials. Now you will begin the main task.</p>","0","","","","","","","","","","","","","","","",""
"","","","","","html-button-response","17","113139","0.0-13.0","p6fhw2y8js","73","3005","<p>In this block of trials, you will be asked to rate how much you associate each map with:</p > <p style = 'font-size:150%; font-weight: bold'>fearful</p><br></br>","0","","","","","","","","","","","","","","","",""
"","","","","","html-slider-response","18","115263","0.0-14.0","p6fhw2y8js","73","NaN","<div style=""width:500px;"">
                            <p style=""font-size:50px; font-weight:bold;""
                            >fearful</p>
                            <div style=""width:240px; margin: auto;"">
                                <img src=""images/map07_RdPu_scaleDef_orientDef_000.png"" style= ""width:200px""alt=""img"">
                            </div>
                        </div>","-144","","0","","","","images/map07_RdPu_scaleDef_orientDef_000.png","fearful","1","07","07","RdPu","orientDef","scaleDef","000","",""
"","","","","","html-slider-response","19","117529","0.0-15.0","p6fhw2y8js","73","NaN","<div style=""width:500px;"">
                            <p style=""font-size:50px; font-weight:bold;""
                            >fearful</p>
                            <div style=""width:240px; margin: auto;"">
                                <img src=""images/map07_PuBu_scaleDef_orientMir_180.png"" style= ""width:200px""alt=""img"">
                            </div>
                        </div>","-119","","0","","","","images/map07_PuBu_scaleDef_orientMir_180.png","fearful","1","07","07","PuBu","orientMir","scaleDef","180","",""
"","","","","","html-slider-response","20","120258","0.0-16.0","p6fhw2y8js","73","NaN","<div style=""width:500px;"">
                            <p style=""font-size:50px; font-weight:bold;""
                            >fearful</p>
                            <div style=""width:240px; margin: auto;"">
                                <img src=""images/map07_BuPu_scaleDef_orientDef_180.png"" style= ""width:200px""alt=""img"">
                            </div>
                        </div>","78","","0","","","","images/map07_BuPu_scaleDef_orientDef_180.png","fearful","1","07","07","BuPu","orientDef","scaleDef","180","",""
"","","","","","html-slider-response","21","122269","0.0-17.0","p6fhw2y8js","73","NaN","<div style=""width:500px;"">
                            <p style=""font-size:50px; font-weight:bold;""
                            >fearful</p>
                            <div style=""width:240px; margin: auto;"">
                                <img src=""images/map15_bwr_scaleDef_orientMir_000.png"" style= ""width:200px""alt=""img"">
                            </div>
                        </div>","200","","0","","","","images/map15_bwr_scaleDef_orientMir_000.png","fearful","1","15","15","bwr","orientMir","scaleDef","000","",""
"","","","","","html-slider-response","22","123961","0.0-18.0","p6fhw2y8js","73","NaN","<div style=""width:500px;"">
                            <p style=""font-size:50px; font-weight:bold;""
                            >fearful</p>
                            <div style=""width:240px; margin: auto;"">
                                <img src=""images/map12_BrBG_scaleRev_orientMir_090.png"" style= ""width:200px""alt=""img"">
                            </div>
                        </div>","200","","0","","","","images/map12_BrBG_scaleRev_orientMir_090.png","fearful","1","12","12","BrBG","orientMir","scaleRev","090","",""
"","","","","","html-slider-response","23","126313","0.0-19.0","p6fhw2y8js","73","NaN","<div style=""width:500px;"">
                            <p style=""font-size:50px; font-weight:bold;""
                            >fearful</p>
                            <div style=""width:240px; margin: auto;"">
                                <img src=""images/map10_YlGn_scaleDef_orientMir_180.png"" style= ""width:200px""alt=""img"">
                            </div>
                        </div>","-34","","0","","","","images/map10_YlGn_scaleDef_orientMir_180.png","fearful","1","10","10","YlGn","orientMir","scaleDef","180","",""
"","","","","","html-slider-response","24","129425","0.0-20.0","p6fhw2y8js","73","NaN","<div style=""width:500px;"">
                            <p style=""font-size:50px; font-weight:bold;""
                            >fearful</p>
                            <div style=""width:240px; margin: auto;"">
                                <img src=""images/map27_Purples_scaleRev_orientMir_270.png"" style= ""width:200px""alt=""img"">
                            </div>
                        </div>","30","","0","","","","images/map27_Purples_scaleRev_orientMir_270.png","fearful","1","27","27","Purples","orientMir","scaleRev","270","",""
"","","","","","html-slider-response","25","132065","0.0-21.0","p6fhw2y8js","73","NaN","<div style=""width:500px;"">
                            <p style=""font-size:50px; font-weight:bold;""
                            >fearful</p>
                            <div style=""width:240px; margin: auto;"">
                                <img src=""images/map02_Reds_scaleRev_orientMir_270.png"" style= ""width:200px""alt=""img"">
                            </div>
                        </div>","118","","0","","","","images/map02_Reds_scaleRev_orientMir_270.png","fearful","1","02","02","Reds","orientMir","scaleRev","270","",""
"","","","","","html-slider-response","26","134904","0.0-22.0","p6fhw2y8js","73","NaN","<div style=""width:500px;"">
                            <p style=""font-size:50px; font-weight:bold;""
                            >fearful</p>
                            <div style=""width:240px; margin: auto;"">
                                <img src=""images/map13_RdBu_scaleDef_orientDef_180.png"" style= ""width:200px""alt=""img"">
                            </div>
                        </div>","184","","0","","","","images/map13_RdBu_scaleDef_orientDef_180.png","fearful","1","13","13","RdBu","orientDef","scaleDef","180","",""
"","","","","","html-slider-response","27","137442","0.0-23.0","p6fhw2y8js","73","NaN","<div style=""width:500px;"">
                            <p style=""font-size:50px; font-weight:bold;""
                            >fearful</p>
                            <div style=""width:240px; margin: auto;"">
                                <img src=""images/map12_PRGn_scaleRev_orientDef_270.png"" style= ""width:200px""alt=""img"">
                            </div>
                        </div>","200","","0","","","","images/map12_PRGn_scaleRev_orientDef_270.png","fearful","1","12","12","PRGn","orientDef","scaleRev","270","",""
"","","","","","html-slider-response","28","139627","0.0-24.0","p6fhw2y8js","73","NaN","<div style=""width:500px;"">
                            <p style=""font-size:50px; font-weight:bold;""
                            >fearful</p>
                            <div style=""width:240px; margin: auto;"">
                                <img src=""images/map10_BuGn_scaleRev_orientMir_090.png"" style= ""width:200px""alt=""img"">
                            </div>
                        </div>","-66","","0","","","","images/map10_BuGn_scaleRev_orientMir_090.png","fearful","1","10","10","BuGn","orientMir","scaleRev","090","",""
"","","","","","html-slider-response","29","142877","0.0-25.0","p6fhw2y8js","73","NaN","<div style=""width:500px;"">
                            <p style=""font-size:50px; font-weight:bold;""
                            >fearful</p>
                            <div style=""width:240px; margin: auto;"">
                                <img src=""images/map23_managua_scaleDef_orientDef_180.png"" style= ""width:200px""alt=""img"">
                            </div>
                        </div>","-142","","0","","","","images/map23_managua_scaleDef_orientDef_180.png","fearful","1","23","23","managua","orientDef","scaleDef","180","",""
"","","","","","html-slider-response","30","145446","0.0-26.0","p6fhw2y8js","73","NaN","<div style=""width:500px;"">
                            <p style=""font-size:50px; font-weight:bold;""
                            >fearful</p>
                            <div style=""width:240px; margin: auto;"">
                                <img src=""images/map02_Reds_scaleDef_orientMir_180.png"" style= ""width:200px""alt=""img"">
                            </div>
                        </div>","106","","0","","","","images/map02_Reds_scaleDef_orientMir_180.png","fearful","1","02","02","Reds","orientMir","scaleDef","180","",""
"","","","","","html-slider-response","31","148496","0.0-27.0","p6fhw2y8js","73","NaN","<div style=""width:500px;"">
                            <p style=""font-size:50px; font-weight:bold;""
                            >fearful</p>
                            <div style=""width:240px; margin: auto;"">
                                <img src=""images/map23_gist_earth_scaleRev_orientMir_270.png"" style= ""width:200px""alt=""img"">
                            </div>
                        </div>","50","","0","","","","images/map23_gist_earth_scaleRev_orientMir_270.png","fearful","1","23","23","gist","scaleRev","earth","orientMir","",""
"","","","","","html-slider-response","32","150979","0.0-28.0","p6fhw2y8js","73","NaN","<div style=""width:500px;"">
                            <p style=""font-size:50px; font-weight:bold;""
                            >fearful</p>
                            <div style=""width:240px; margin: auto;"">
                                <img src=""images/map27_magma_scaleDef_orientDef_000.png"" style= ""width:200px""alt=""img"">
                            </div>
                        </div>","-38","","0","","","","images/map27_magma_scaleDef_orientDef_000.png","fearful","1","27","27","magma","orientDef","scaleDef","000","",""
"","","","","","html-slider-response","33","153191","0.0-29.0","p6fhw2y8js","73","NaN","<div style=""width:500px;"">
                            <p style=""font-size:50px; font-weight:bold;""
                            >fearful</p>
                            <div style=""width:240px; margin: auto;"">
                                <img src=""images/map10_PuBuGn_scaleRev_orientDef_270.png"" style= ""width:200px""alt=""img"">
                            </div>
                        </div>","-200","","0","","","","images/map10_PuBuGn_scaleRev_orientDef_270.png","fearful","1","10","10","PuBuGn","orientDef","scaleRev","270","",""
"","","","","","html-slider-response","34","156597","0.0-30.0","p6fhw2y8js","73","NaN","<div style=""width:500px;"">
                            <p style=""font-size:50px; font-weight:bold;""
                            >fearful</p>
                            <div style=""width:240px; margin: auto;"">
                                <img src=""images/map10_YlGn_scaleRev_orientMir_270.png"" style= ""width:200px""alt=""img"">
                            </div>
                        </div>","-14","","0","","","","images/map10_YlGn_scaleRev_orientMir_270.png","fearful","1","10","10","YlGn","orientMir","scaleRev","270","",""
"","","","","","html-slider-response","35","159114","0.0-31.0","p6fhw2y8js","73","NaN","<div style=""width:500px;"">
                            <p style=""font-size:50px; font-weight:bold;""
                            >fearful</p>
                            <div style=""width:240px; margin: auto;"">
                                <img src=""images/map07_PuBu_scaleRev_orientMir_270.png"" style= ""width:200px""alt=""img"">
                            </div>
                        </div>","-126","","0","","","","images/map07_PuBu_scaleRev_orientMir_270.png","fearful","1","07","07","PuBu","orientMir","scaleRev","270","",""
"","","","","","html-slider-response","36","163013","0.0-32.0","p6fhw2y8js","73","NaN","<div style=""width:500px;"">
                            <p style=""font-size:50px; font-weight:bold;""
                            >fearful</p>
                            <div style=""width:240px; margin: auto;"">
                                <img src=""images/map12_PuOr_scaleDef_orientMir_180.png"" style= ""width:200px""alt=""img"">
                            </div>
                        </div>","200","","0","","","","images/map12_PuOr_scaleDef_orientMir_180.png","fearful","1","12","12","PuOr","orientMir","scaleDef","180","",""
"","","","","","html-slider-response","37","166528","0.0-33.0","p6fhw2y8js","73","NaN","<div style=""width:500px;"">
                            <p style=""font-size:50px; font-weight:bold;""
                            >fearful</p>
                            <div style=""width:240px; margin: auto;"">
                                <img src=""images/map15_coolwarm_scaleDef_orientDef_180.png"" style= ""width:200px""alt=""img"">
                            </div>
                        </div>","102","","0","","","","images/map15_coolwarm_scaleDef_orientDef_180.png","fearful","1","15","15","coolwarm","orientDef","scaleDef","180","",""
"","","","","","html-slider-response","38","168631","0.0-34.0","p6fhw2y8js","73","NaN","<div style=""width:500px;"">
                            <p style=""font-size:50px; font-weight:bold;""
                            >fearful</p>
                            <div style=""width:240px; margin: auto;"">
                                <img src=""images/map07_GnBu_scaleDef_orientMir_000.png"" style= ""width:200px""alt=""img"">
                            </div>
                        </div>","-11","","0","","","","images/map07_GnBu_scaleDef_orientMir_000.png","fearful","1","07","07","GnBu","orientMir","scaleDef","000","",""
"","","","","","html-slider-response","39","170798","0.0-35.0","p6fhw2y8js","73","NaN","<div style=""width:500px;"">
                            <p style=""font-size:50px; font-weight:bold;""
                            >fearful</p>
                            <div style=""width:240px; margin: auto;"">
                                <img src=""images/map26_plasma_scaleDef_orientMir_000.png"" style= ""width:200px""alt=""img"">
                            </div>
                        </div>","13","","0","","","","images/map26_plasma_scaleDef_orientMir_000.png","fearful","1","26","26","plasma","orientMir","scaleDef","000","",""
"","","","","","html-slider-response","40","176832","0.0-36.0","p6fhw2y8js","73","NaN","<div style=""width:500px;"">
                            <p style=""font-size:50px; font-weight:bold;""
                            >fearful</p>
                            <div style=""width:240px; margin: auto;"">
                                <img src=""images/map05_YlOrRd_scaleDef_orientDef_180.png"" style= ""width:200px""alt=""img"">
                            </div>
                        </div>","62","","0","","","","images/map05_YlOrRd_scaleDef_orientDef_180.png","fearful","1","05","05","YlOrRd","orientDef","scaleDef","180","",""
"","","","","","html-slider-response","41","179989","0.0-37.0","p6fhw2y8js","73","NaN","<div style=""width:500px;"">
                            <p style=""font-size:50px; font-weight:bold;""
                            >fearful</p>
                            <div style=""width:240px; margin: auto;"">
                                <img src=""images/map02_Blues_scaleRev_orientDef_090.png"" style= ""width:200px""alt=""img"">
                            </div>
                        </div>","-148","","0","","","","images/map02_Blues_scaleRev_orientDef_090.png","fearful","1","02","02","Blues","orientDef","scaleRev","090","",""
"","","","","","html-slider-response","42","184747","0.0-38.0","p6fhw2y8js","73","NaN","<div style=""width:500px;"">
                            <p style=""font-size:50px; font-weight:bold;""
                            >fearful</p>
                            <div style=""width:240px; margin: auto;"">
                                <img src=""images/map13_RdGy_scaleDef_orientDef_000.png"" style= ""width:200px""alt=""img"">
                            </div>
                        </div>","195","","0","","","","images/map13_RdGy_scaleDef_orientDef_000.png","fearful","1","13","13","RdGy","orientDef","scaleDef","000","",""
"","","","","","html-slider-response","43","190984","0.0-39.0","p6fhw2y8js","73","NaN","<div style=""width:500px;"">
                            <p style=""font-size:50px; font-weight:bold;""
                            >fearful</p>
                            <div style=""width:240px; margin: auto;"">
                                <img src=""images/map12_PRGn_scaleDef_orientDef_180.png"" style= ""width:200px""alt=""img"">
                            </div>
                        </div>","164","","0","","","","images/map12_PRGn_scaleDef_orientDef_180.png","fearful","1","12","12","PRGn","orientDef","scaleDef","180","",""
"","","","","","html-slider-response","44","196525","0.0-40.0","p6fhw2y8js","73","NaN","<div style=""width:500px;"">
                            <p style=""font-size:50px; font-weight:bold;""
                            >fearful</p>
                            <div style=""width:240px; margin: auto;"">
                                <img src=""images/map13_RdYlGn_scaleRev_orientMir_270.png"" style= ""width:200px""alt=""img"">
                            </div>
                        </div>","126","","0","","","","images/map13_RdYlGn_scaleRev_orientMir_270.png","fearful","1","13","13","RdYlGn","orientMir","scaleRev","270","",""
"","","","","","html-slider-response","45","204904","0.0-41.0","p6fhw2y8js","73","NaN","<div style=""width:500px;"">
                            <p style=""font-size:50px; font-weight:bold;""
                            >fearful</p>
                            <div style=""width:240px; margin: auto;"">
                                <img src=""images/map05_PuRd_scaleDef_orientMir_180.png"" style= ""width:200px""alt=""img"">
                            </div>
                        </div>","32","","0","","","","images/map05_PuRd_scaleDef_orientMir_180.png","fearful","1","05","05","PuRd","orientMir","scaleDef","180","",""
"","","","","","html-slider-response","46","209622","0.0-42.0","p6fhw2y8js","73","NaN","<div style=""width:500px;"">
                            <p style=""font-size:50px; font-weight:bold;""
                            >fearful</p>
                            <div style=""width:240px; margin: auto;"">
                                <img src=""images/map07_BuPu_scaleRev_orientDef_270.png"" style= ""width:200px""alt=""img"">
                            </div>
                        </div>","-52","","0","","","","images/map07_BuPu_scaleRev_orientDef_270.png","fearful","1","07","07","BuPu","orientDef","scaleRev","270","",""
"","","","","","html-slider-response","47","212257","0.0-43.0","p6fhw2y8js","73","NaN","<div style=""width:500px;"">
                            <p style=""font-size:50px; font-weight:bold;""
                            >fearful</p>
                            <div style=""width:240px; margin: auto;"">
                                <img src=""images/map23_berlin_scaleDef_orientDef_000.png"" style= ""width:200px""alt=""img"">
                            </div>
                        </div>","43","","0","","","","images/map23_berlin_scaleDef_orientDef_000.png","fearful","1","23","23","berlin","orientDef","scaleDef","000","",""
"","","","","","html-slider-response","48","215607","0.0-44.0","p6fhw2y8js","73","NaN","<div style=""width:500px;"">
                            <p style=""font-size:50px; font-weight:bold;""
                            >fearful</p>
                            <div style=""width:240px; margin: auto;"">
                                <img src=""images/map27_Purples_scaleDef_orientMir_180.png"" style= ""width:200px""alt=""img"">
                            </div>
                        </div>","38","","0","","","","images/map27_Purples_scaleDef_orientMir_180.png","fearful","1","27","27","Purples","orientMir","scaleDef","180","",""
"","","","","","html-slider-response","49","218834","0.0-45.0","p6fhw2y8js","73","NaN","<div style=""width:500px;"">
                            <p style=""font-size:50px; font-weight:bold;""
                            >fearful</p>
                            <div style=""width:240px; margin: auto;"">
                                <img src=""images/map13_RdYlBu_scaleRev_orientMir_090.png"" style= ""width:200px""alt=""img"">
                            </div>
                        </div>","118","","0","","","","images/map13_RdYlBu_scaleRev_orientMir_090.png","fearful","1","13","13","RdYlBu","orientMir","scaleRev","090","",""
"","","","","","html-slider-response","50","220761","0.0-46.0","p6fhw2y8js","73","NaN","<div style=""width:500px;"">
                            <p style=""font-size:50px; font-weight:bold;""
                            >fearful</p>
                            <div style=""width:240px; margin: auto;"">
                                <img src=""images/map26_inferno_scaleRev_orientMir_270.png"" style= ""width:200px""alt=""img"">
                            </div>
                        </div>","107","","0","","","","images/map26_inferno_scaleRev_orientMir_270.png","fearful","1","26","26","inferno","orientMir","scaleRev","270","",""
"","","","","","html-slider-response","51","223531","0.0-47.0","p6fhw2y8js","73","NaN","<div style=""width:500px;"">
                            <p style=""font-size:50px; font-weight:bold;""
                            >fearful</p>
                            <div style=""width:240px; margin: auto;"">
                                <img src=""images/map15_coolwarm_scaleRev_orientDef_270.png"" style= ""width:200px""alt=""img"">
                            </div>
                        </div>","142","","0","","","","images/map15_coolwarm_scaleRev_orientDef_270.png","fearful","1","15","15","coolwarm","orientDef","scaleRev","270","",""
"","","","","","html-slider-response","52","225283","0.0-48.0","p6fhw2y8js","73","NaN","<div style=""width:500px;"">
                            <p style=""font-size:50px; font-weight:bold;""
                            >fearful</p>
                            <div style=""width:240px; margin: auto;"">
                                <img src=""images/map15_bwr_scaleRev_orientMir_090.png"" style= ""width:200px""alt=""img"">
                            </div>
                        </div>","166","","0","","","","images/map15_bwr_scaleRev_orientMir_090.png","fearful","1","15","15","bwr","orientMir","scaleRev","090","",""
"","","","","","html-slider-response","53","227099","0.0-49.0","p6fhw2y8js","73","NaN","<div style=""width:500px;"">
                            <p style=""font-size:50px; font-weight:bold;""
                            >fearful</p>
                            <div style=""width:240px; margin: auto;"">
                                <img src=""images/map15_Spectral_scaleDef_orientDef_000.png"" style= ""width:200px""alt=""img"">
                            </div>
                        </div>","164","","0","","","","images/map15_Spectral_scaleDef_orientDef_000.png","fearful","1","15","15","Spectral","orientDef","scaleDef","000","",""
"","","","","","html-slider-response","54","229154","0.0-50.0","p6fhw2y8js","73","NaN","<div style=""width:500px;"">
                            <p style=""font-size:50px; font-weight:bold;""
                            >fearful</p>
                            <div style=""width:240px; margin: auto;"">
                                <img src=""images/map13_RdYlBu_scaleDef_orientMir_000.png"" style= ""width:200px""alt=""img"">
                            </div>
                        </div>","164","","0","","","","images/map13_RdYlBu_scaleDef_orientMir_000.png","fearful","1","13","13","RdYlBu","orientMir","scaleDef","000","",""
"","","","","","html-slider-response","55","233733","0.0-51.0","p6fhw2y8js","73","NaN","<div style=""width:500px;"">
                            <p style=""font-size:50px; font-weight:bold;""
                            >fearful</p>
                            <div style=""width:240px; margin: auto;"">
                                <img src=""images/map05_PuRd_scaleRev_orientMir_270.png"" style= ""width:200px""alt=""img"">
                            </div>
                        </div>","-44","","0","","","","images/map05_PuRd_scaleRev_orientMir_270.png","fearful","1","05","05","PuRd","orientMir","scaleRev","270","",""
"","","","","","html-slider-response","56","235954","0.0-52.0","p6fhw2y8js","73","NaN","<div style=""width:500px;"">
                            <p style=""font-size:50px; font-weight:bold;""
                            >fearful</p>
                            <div style=""width:240px; margin: auto;"">
                                <img src=""images/map23_gist_earth_scaleDef_orientMir_180.png"" style= ""width:200px""alt=""img"">
                            </div>
                        </div>","-44","","0","","","","images/map23_gist_earth_scaleDef_orientMir_180.png","fearful","1","23","23","gist","scaleDef","earth","orientMir","",""
"","","","","","html-slider-response","57","237228","0.0-53.0","p6fhw2y8js","73","NaN","<div style=""width:500px;"">
                            <p style=""font-size:50px; font-weight:bold;""
                            >fearful</p>
                            <div style=""width:240px; margin: auto;"">
                                <img src=""images/map02_Greens_scaleRev_orientDef_270.png"" style= ""width:200px""alt=""img"">
                            </div>
                        </div>","-44","","0","","","","images/map02_Greens_scaleRev_orientDef_270.png","fearful","1","02","02","Greens","orientDef","scaleRev","270","",""
"","","","","","html-button-response","58","240381","0.0-54.0","p6fhw2y8js","73","2643","<p>You are doing great!<br></br> You are halway done with the current block. When you are ready to continue, click the 'Continue' button.</p>","0","","","","","","","","","","","","","","","",""
"","","","","","html-slider-response","59","243048","0.0-55.0","p6fhw2y8js","73","NaN","<div style=""width:500px;"">
                            <p style=""font-size:50px; font-weight:bold;""
                            >fearful</p>
                            <div style=""width:240px; margin: auto;"">
                                <img src=""images/map27_cividis_scaleDef_orientDef_180.png"" style= ""width:200px""alt=""img"">
                            </div>
                        </div>","-125","","0","","","","images/map27_cividis_scaleDef_orientDef_180.png","fearful","1","27","27","cividis","orientDef","scaleDef","180","",""
"","","","","","html-slider-response","60","245007","0.0-56.0","p6fhw2y8js","73","NaN","<div style=""width:500px;"">
                            <p style=""font-size:50px; font-weight:bold;""
                            >fearful</p>
                            <div style=""width:240px; margin: auto;"">
                                <img src=""images/map12_PiYG_scaleDef_orientDef_000.png"" style= ""width:200px""alt=""img"">
                            </div>
                        </div>","98","","0","","","","images/map12_PiYG_scaleDef_orientDef_000.png","fearful","1","12","12","PiYG","orientDef","scaleDef","000","",""
"","","","","","html-slider-response","61","246817","0.0-57.0","p6fhw2y8js","73","NaN","<div style=""width:500px;"">
                            <p style=""font-size:50px; font-weight:bold;""
                            >fearful</p>
                            <div style=""width:240px; margin: auto;"">
                                <img src=""images/map13_RdGy_scaleRev_orientDef_090.png"" style= ""width:200px""alt=""img"">
                            </div>
                        </div>","109","","0","","","","images/map13_RdGy_scaleRev_orientDef_090.png","fearful","1","13","13","RdGy","orientDef","scaleRev","090","",""
"","","","","","html-slider-response","62","249532","0.0-58.0","p6fhw2y8js","73","NaN","<div style=""width:500px;"">
                            <p style=""font-size:50px; font-weight:bold;""
                            >fearful</p>
                            <div style=""width:240px; margin: auto;"">
                                <img src=""images/map10_PuBuGn_scaleDef_orientDef_180.png"" style= ""width:200px""alt=""img"">
                            </div>
                        </div>","-178","","0","","","","images/map10_PuBuGn_scaleDef_orientDef_180.png","fearful","1","10","10","PuBuGn","orientDef","scaleDef","180","",""
"","","","","","html-slider-response","63","253289","0.0-59.0","p6fhw2y8js","73","NaN","<div style=""width:500px;"">
                            <p style=""font-size:50px; font-weight:bold;""
                            >fearful</p>
                            <div style=""width:240px; margin: auto;"">
                                <img src=""images/map05_YlOrBr_scaleDef_orientDef_000.png"" style= ""width:200px""alt=""img"">
                            </div>
                        </div>","-195","","0","","","","images/map05_YlOrBr_scaleDef_orientDef_000.png","fearful","1","05","05","YlOrBr","orientDef","scaleDef","000","",""
"","","","","","html-slider-response","64","255768","0.0-60.0","p6fhw2y8js","73","NaN","<div style=""width:500px;"">
                            <p style=""font-size:50px; font-weight:bold;""
                            >fearful</p>
                            <div style=""width:240px; margin: auto;"">
                                <img src=""images/map26_viridis_scaleRev_orientDef_270.png"" style= ""width:200px""alt=""img"">
                            </div>
                        </div>","-75","","0","","","","images/map26_viridis_scaleRev_orientDef_270.png","fearful","1","26","26","viridis","orientDef","scaleRev","270","",""
"","","","","","html-slider-response","65","259216","0.0-61.0","p6fhw2y8js","73","NaN","<div style=""width:500px;"">
                            <p style=""font-size:50px; font-weight:bold;""
                            >fearful</p>
                            <div style=""width:240px; margin: auto;"">
                                <img src=""images/map26_plasma_scaleRev_orientMir_090.png"" style= ""width:200px""alt=""img"">
                            </div>
                        </div>","36","","0","","","","images/map26_plasma_scaleRev_orientMir_090.png","fearful","1","26","26","plasma","orientMir","scaleRev","090","",""
"","","","","","html-slider-response","66","261822","0.0-62.0","p6fhw2y8js","73","NaN","<div style=""width:500px;"">
                            <p style=""font-size:50px; font-weight:bold;""
                            >fearful</p>
                            <div style=""width:240px; margin: auto;"">
                                <img src=""images/map27_Greys_scaleDef_orientMir_000.png"" style= ""width:200px""alt=""img"">
                            </div>
                        </div>","-26","","0","","","","images/map27_Greys_scaleDef_orientMir_000.png","fearful","1","27","27","Greys","orientMir","scaleDef","000","",""
"","","","","","html-slider-response","67","267020","0.0-63.0","p6fhw2y8js","73","NaN","<div style=""width:500px;"">
                            <p style=""font-size:50px; font-weight:bold;""
                            >fearful</p>
                            <div style=""width:240px; margin: auto;"">
                                <img src=""images/map12_PuOr_scaleRev_orientMir_270.png"" style= ""width:200px""alt=""img"">
                            </div>
                        </div>","98","","0","","","","images/map12_PuOr_scaleRev_orientMir_270.png","fearful","1","12","12","PuOr","orientMir","scaleRev","270","",""
"","","","","","html-slider-response","68","269394","0.0-64.0","p6fhw2y8js","73","NaN","<div style=""width:500px;"">
                            <p style=""font-size:50px; font-weight:bold;""
                            >fearful</p>
                            <div style=""width:240px; margin: auto;"">
                                <img src=""images/map12_PiYG_scaleRev_orientDef_090.png"" style= ""width:200px""alt=""img"">
                            </div>
                        </div>","90","","0","","","","images/map12_PiYG_scaleRev_orientDef_090.png","fearful","1","12","12","PiYG","orientDef","scaleRev","090","",""
"","","","","","html-slider-response","69","271761","0.0-65.0","p6fhw2y8js","73","NaN","<div style=""width:500px;"">
                            <p style=""font-size:50px; font-weight:bold;""
                            >fearful</p>
                            <div style=""width:240px; margin: auto;"">
                                <img src=""images/map10_YlGnBu_scaleDef_orientDef_000.png"" style= ""width:200px""alt=""img"">
                            </div>
                        </div>","-168","","0","","","","images/map10_YlGnBu_scaleDef_orientDef_000.png","fearful","1","10","10","YlGnBu","orientDef","scaleDef","000","",""
"","","","","","html-slider-response","70","273896","0.0-66.0","p6fhw2y8js","73","NaN","<div style=""width:500px;"">
                            <p style=""font-size:50px; font-weight:bold;""
                            >fearful</p>
                            <div style=""width:240px; margin: auto;"">
                                <img src=""images/map26_inferno_scaleDef_orientMir_180.png"" style= ""width:200px""alt=""img"">
                            </div>
                        </div>","30","","0","","","","images/map26_inferno_scaleDef_orientMir_180.png","fearful","1","26","26","inferno","orientMir","scaleDef","180","",""
"","","","","","html-slider-response","71","278465","0.0-67.0","p6fhw2y8js","73","NaN","<div style=""width:500px;"">
                            <p style=""font-size:50px; font-weight:bold;""
                            >fearful</p>
                            <div style=""width:240px; margin: auto;"">
                                <img src=""images/map05_OrRd_scaleDef_orientMir_000.png"" style= ""width:200px""alt=""img"">
                            </div>
                        </div>","37","","0","","","","images/map05_OrRd_scaleDef_orientMir_000.png","fearful","1","05","05","OrRd","orientMir","scaleDef","000","",""
"","","","","","html-slider-response","72","282751","0.0-68.0","p6fhw2y8js","73","NaN","<div style=""width:500px;"">
                            <p style=""font-size:50px; font-weight:bold;""
                            >fearful</p>
                            <div style=""width:240px; margin: auto;"">
                                <img src=""images/map13_RdBu_scaleRev_orientDef_270.png"" style= ""width:200px""alt=""img"">
                            </div>
                        </div>","133","","0","","","","images/map13_RdBu_scaleRev_orientDef_270.png","fearful","1","13","13","RdBu","orientDef","scaleRev","270","",""
"","","","","","html-slider-response","73","285058","0.0-69.0","p6fhw2y8js","73","NaN","<div style=""width:500px;"">
                            <p style=""font-size:50px; font-weight:bold;""
                            >fearful</p>
                            <div style=""width:240px; margin: auto;"">
                                <img src=""images/map02_Oranges_scaleDef_orientMir_000.png"" style= ""width:200px""alt=""img"">
                            </div>
                        </div>","-65","","0","","","","images/map02_Oranges_scaleDef_orientMir_000.png","fearful","1","02","02","Oranges","orientMir","scaleDef","000","",""
"","","","","","html-slider-response","74","288740","0.0-70.0","p6fhw2y8js","73","NaN","<div style=""width:500px;"">
                            <p style=""font-size:50px; font-weight:bold;""
                            >fearful</p>
                            <div style=""width:240px; margin: auto;"">
                                <img src=""images/map15_seismic_scaleRev_orientMir_270.png"" style= ""width:200px""alt=""img"">
                            </div>
                        </div>","135","","0","","","","images/map15_seismic_scaleRev_orientMir_270.png","fearful","1","15","15","seismic","orientMir","scaleRev","270","",""
"","","","","","html-slider-response","75","290537","0.0-71.0","p6fhw2y8js","73","NaN","<div style=""width:500px;"">
                            <p style=""font-size:50px; font-weight:bold;""
                            >fearful</p>
                            <div style=""width:240px; margin: auto;"">
                                <img src=""images/map27_magma_scaleRev_orientDef_090.png"" style= ""width:200px""alt=""img"">
                            </div>
                        </div>","74","","0","","","","images/map27_magma_scaleRev_orientDef_090.png","fearful","1","27","27","magma","orientDef","scaleRev","090","",""
"","","","","","html-slider-response","76","292561","0.0-72.0","p6fhw2y8js","73","NaN","<div style=""width:500px;"">
                            <p style=""font-size:50px; font-weight:bold;""
                            >fearful</p>
                            <div style=""width:240px; margin: auto;"">
                                <img src=""images/map07_RdPu_scaleRev_orientDef_090.png"" style= ""width:200px""alt=""img"">
                            </div>
                        </div>","-29","","0","","","","images/map07_RdPu_scaleRev_orientDef_090.png","fearful","1","07","07","RdPu","orientDef","scaleRev","090","",""
"","","","","","html-slider-response","77","294906","0.0-73.0","p6fhw2y8js","73","NaN","<div style=""width:500px;"">
                            <p style=""font-size:50px; font-weight:bold;""
                            >fearful</p>
                            <div style=""width:240px; margin: auto;"">
                                <img src=""images/map15_seismic_scaleDef_orientMir_180.png"" style= ""width:200px""alt=""img"">
                            </div>
                        </div>","21","","0","","","","images/map15_seismic_scaleDef_orientMir_180.png","fearful","1","15","15","seismic","orientMir","scaleDef","180","",""
"","","","","","html-slider-response","78","297759","0.0-74.0","p6fhw2y8js","73","NaN","<div style=""width:500px;"">
                            <p style=""font-size:50px; font-weight:bold;""
                            >fearful</p>
                            <div style=""width:240px; margin: auto;"">
                                <img src=""images/map05_YlOrRd_scaleRev_orientDef_270.png"" style= ""width:200px""alt=""img"">
                            </div>
                        </div>","-58","","0","","","","images/map05_YlOrRd_scaleRev_orientDef_270.png","fearful","1","05","05","YlOrRd","orientDef","scaleRev","270","",""
"","","","","","html-slider-response","79","299790","0.0-75.0","p6fhw2y8js","73","NaN","<div style=""width:500px;"">
                            <p style=""font-size:50px; font-weight:bold;""
                            >fearful</p>
                            <div style=""width:240px; margin: auto;"">
                                <img src=""images/map07_GnBu_scaleRev_orientMir_090.png"" style= ""width:200px""alt=""img"">
                            </div>
                        </div>","-154","","0","","","","images/map07_GnBu_scaleRev_orientMir_090.png","fearful","1","07","07","GnBu","orientMir","scaleRev","090","",""
"","","","","","html-slider-response","80","302559","0.0-76.0","p6fhw2y8js","73","NaN","<div style=""width:500px;"">
                            <p style=""font-size:50px; font-weight:bold;""
                            >fearful</p>
                            <div style=""width:240px; margin: auto;"">
                                <img src=""images/map05_YlOrBr_scaleRev_orientDef_090.png"" style= ""width:200px""alt=""img"">
                            </div>
                        </div>","-55","","0","","","","images/map05_YlOrBr_scaleRev_orientDef_090.png","fearful","1","05","05","YlOrBr","orientDef","scaleRev","090","",""
"","","","","","html-slider-response","81","305235","0.0-77.0","p6fhw2y8js","73","NaN","<div style=""width:500px;"">
                            <p style=""font-size:50px; font-weight:bold;""
                            >fearful</p>
                            <div style=""width:240px; margin: auto;"">
                                <img src=""images/map23_managua_scaleRev_orientDef_270.png"" style= ""width:200px""alt=""img"">
                            </div>
                        </div>","29","","0","","","","images/map23_managua_scaleRev_orientDef_270.png","fearful","1","23","23","managua","orientDef","scaleRev","270","",""
"","","","","","html-slider-response","82","308113","0.0-78.0","p6fhw2y8js","73","NaN","<div style=""width:500px;"">
                            <p style=""font-size:50px; font-weight:bold;""
                            >fearful</p>
                            <div style=""width:240px; margin: auto;"">
                                <img src=""images/map26_turbo_scaleRev_orientDef_090.png"" style= ""width:200px""alt=""img"">
                            </div>
                        </div>","176","","0","","","","images/map26_turbo_scaleRev_orientDef_090.png","fearful","1","26","26","turbo","orientDef","scaleRev","090","",""
"","","","","","html-slider-response","83","312855","0.0-79.0","p6fhw2y8js","73","NaN","<div style=""width:500px;"">
                            <p style=""font-size:50px; font-weight:bold;""
                            >fearful</p>
                            <div style=""width:240px; margin: auto;"">
                                <img src=""images/map23_vanimo_scaleRev_orientMir_090.png"" style= ""width:200px""alt=""img"">
                            </div>
                        </div>","35","","0","","","","images/map23_vanimo_scaleRev_orientMir_090.png","fearful","1","23","23","vanimo","orientMir","scaleRev","090","",""
"","","","","","html-slider-response","84","317671","0.0-80.0","p6fhw2y8js","73","NaN","<div style=""width:500px;"">
                            <p style=""font-size:50px; font-weight:bold;""
                            >fearful</p>
                            <div style=""width:240px; margin: auto;"">
                                <img src=""images/map26_viridis_scaleDef_orientDef_180.png"" style= ""width:200px""alt=""img"">
                            </div>
                        </div>","78","","0","","","","images/map26_viridis_scaleDef_orientDef_180.png","fearful","1","26","26","viridis","orientDef","scaleDef","180","",""
"","","","","","html-slider-response","85","320061","0.0-81.0","p6fhw2y8js","73","NaN","<div style=""width:500px;"">
                            <p style=""font-size:50px; font-weight:bold;""
                            >fearful</p>
                            <div style=""width:240px; margin: auto;"">
                                <img src=""images/map10_YlGnBu_scaleRev_orientDef_090.png"" style= ""width:200px""alt=""img"">
                            </div>
                        </div>","-144","","0","","","","images/map10_YlGnBu_scaleRev_orientDef_090.png","fearful","1","10","10","YlGnBu","orientDef","scaleRev","090","",""
"","","","","","html-slider-response","86","322250","0.0-82.0","p6fhw2y8js","73","NaN","<div style=""width:500px;"">
                            <p style=""font-size:50px; font-weight:bold;""
                            >fearful</p>
                            <div style=""width:240px; margin: auto;"">
                                <img src=""images/map26_turbo_scaleDef_orientDef_000.png"" style= ""width:200px""alt=""img"">
                            </div>
                        </div>","154","","0","","","","images/map26_turbo_scaleDef_orientDef_000.png","fearful","1","26","26","turbo","orientDef","scaleDef","000","",""
"","","","","","html-slider-response","87","324789","0.0-83.0","p6fhw2y8js","73","NaN","<div style=""width:500px;"">
                            <p style=""font-size:50px; font-weight:bold;""
                            >fearful</p>
                            <div style=""width:240px; margin: auto;"">
                                <img src=""images/map23_berlin_scaleRev_orientDef_090.png"" style= ""width:200px""alt=""img"">
                            </div>
                        </div>","-29","","0","","","","images/map23_berlin_scaleRev_orientDef_090.png","fearful","1","23","23","berlin","orientDef","scaleRev","090","",""
"","","","","","html-slider-response","88","326803","0.0-84.0","p6fhw2y8js","73","NaN","<div style=""width:500px;"">
                            <p style=""font-size:50px; font-weight:bold;""
                            >fearful</p>
                            <div style=""width:240px; margin: auto;"">
                                <img src=""images/map02_Greens_scaleDef_orientDef_180.png"" style= ""width:200px""alt=""img"">
                            </div>
                        </div>","-166","","0","","","","images/map02_Greens_scaleDef_orientDef_180.png","fearful","1","02","02","Greens","orientDef","scaleDef","180","",""
"","","","","","html-slider-response","89","328890","0.0-85.0","p6fhw2y8js","73","NaN","<div style=""width:500px;"">
                            <p style=""font-size:50px; font-weight:bold;""
                            >fearful</p>
                            <div style=""width:240px; margin: auto;"">
                                <img src=""images/map23_vanimo_scaleDef_orientMir_000.png"" style= ""width:200px""alt=""img"">
                            </div>
                        </div>","33","","0","","","","images/map23_vanimo_scaleDef_orientMir_000.png","fearful","1","23","23","vanimo","orientMir","scaleDef","000","",""
"","","","","","html-slider-response","90","331588","0.0-86.0","p6fhw2y8js","73","NaN","<div style=""width:500px;"">
                            <p style=""font-size:50px; font-weight:bold;""
                            >fearful</p>
                            <div style=""width:240px; margin: auto;"">
                                <img src=""images/map05_OrRd_scaleRev_orientMir_090.png"" style= ""width:200px""alt=""img"">
                            </div>
                        </div>","72","","0","","","","images/map05_OrRd_scaleRev_orientMir_090.png","fearful","1","05","05","OrRd","orientMir","scaleRev","090","",""
"","","","","","html-slider-response","91","333566","0.0-87.0","p6fhw2y8js","73","NaN","<div style=""width:500px;"">
                            <p style=""font-size:50px; font-weight:bold;""
                            >fearful</p>
                            <div style=""width:240px; margin: auto;"">
                                <img src=""images/map02_Oranges_scaleRev_orientMir_090.png"" style= ""width:200px""alt=""img"">
                            </div>
                        </div>","79","","0","","","","images/map02_Oranges_scaleRev_orientMir_090.png","fearful","1","02","02","Oranges","orientMir","scaleRev","090","",""
"","","","","","html-slider-response","92","335521","0.0-88.0","p6fhw2y8js","73","NaN","<div style=""width:500px;"">
                            <p style=""font-size:50px; font-weight:bold;""
                            >fearful</p>
                            <div style=""width:240px; margin: auto;"">
                                <img src=""images/map10_BuGn_scaleDef_orientMir_000.png"" style= ""width:200px""alt=""img"">
                            </div>
                        </div>","-123","","0","","","","images/map10_BuGn_scaleDef_orientMir_000.png","fearful","1","10","10","BuGn","orientMir","scaleDef","000","",""
"","","","","","html-slider-response","93","338597","0.0-89.0","p6fhw2y8js","73","NaN","<div style=""width:500px;"">
                            <p style=""font-size:50px; font-weight:bold;""
                            >fearful</p>
                            <div style=""width:240px; margin: auto;"">
                                <img src=""images/map02_Blues_scaleDef_orientDef_000.png"" style= ""width:200px""alt=""img"">
                            </div>
                        </div>","-192","","0","","","","images/map02_Blues_scaleDef_orientDef_000.png","fearful","1","02","02","Blues","orientDef","scaleDef","000","",""
"","","","","","html-slider-response","94","340506","0.0-90.0","p6fhw2y8js","73","NaN","<div style=""width:500px;"">
                            <p style=""font-size:50px; font-weight:bold;""
                            >fearful</p>
                            <div style=""width:240px; margin: auto;"">
                                <img src=""images/map27_cividis_scaleRev_orientDef_270.png"" style= ""width:200px""alt=""img"">
                            </div>
                        </div>","-78","","0","","","","images/map27_cividis_scaleRev_orientDef_270.png","fearful","1","27","27","cividis","orientDef","scaleRev","270","",""
"","","","","","html-slider-response","95","342624","0.0-91.0","p6fhw2y8js","73","NaN","<div style=""width:500px;"">
                            <p style=""font-size:50px; font-weight:bold;""
                            >fearful</p>
                            <div style=""width:240px; margin: auto;"">
                                <img src=""images/map15_Spectral_scaleRev_orientDef_090.png"" style= ""width:200px""alt=""img"">
                            </div>
                        </div>","118","","0","","","","images/map15_Spectral_scaleRev_orientDef_090.png","fearful","1","15","15","Spectral","orientDef","scaleRev","090","",""
"","","","","","html-slider-response","96","344250","0.0-92.0","p6fhw2y8js","73","NaN","<div style=""width:500px;"">
                            <p style=""font-size:50px; font-weight:bold;""
                            >fearful</p>
                            <div style=""width:240px; margin: auto;"">
                                <img src=""images/map12_BrBG_scaleDef_orientMir_000.png"" style= ""width:200px""alt=""img"">
                            </div>
                        </div>","136","","0","","","","images/map12_BrBG_scaleDef_orientMir_000.png","fearful","1","12","12","BrBG","orientMir","scaleDef","000","",""
"","","","","","html-slider-response","97","346128","0.0-93.0","p6fhw2y8js","73","NaN","<div style=""width:500px;"">
                            <p style=""font-size:50px; font-weight:bold;""
                            >fearful</p>
                            <div style=""width:240px; margin: auto;"">
                                <img src=""images/map27_Greys_scaleRev_orientMir_090.png"" style= ""width:200px""alt=""img"">
                            </div>
                        </div>","-13","","0","","","","images/map27_Greys_scaleRev_orientMir_090.png","fearful","1","27","27","Greys","orientMir","scaleRev","090","",""
"","","","","","html-slider-response","98","347992","0.0-94.0","p6fhw2y8js","73","NaN","<div style=""width:500px;"">
                            <p style=""font-size:50px; font-weight:bold;""
                            >fearful</p>
                            <div style=""width:240px; margin: auto;"">
                                <img src=""images/map13_RdYlGn_scaleDef_orientMir_180.png"" style= ""width:200px""alt=""img"">
                            </div>
                        </div>","14","","0","","","","images/map13_RdYlGn_scaleDef_orientMir_180.png","fearful","1","13","13","RdYlGn","orientMir","scaleDef","180","",""
"","","","","","html-button-response","99","350073","0.0-95.0","p6fhw2y8js","73","1577","<p>Great Job! You've finished block 1.<br></br> You have 4 block(s) left to go.<br></br></p>","0","","","","","","","","","","","","","","","",""
"","","","","","html-button-response","100","357232","0.0-96.0","p6fhw2y8js","73","7158","<p>In this block of trials, you will be asked to rate how much you associate each map with:</p > <p style = 'font-size:150%; font-weight: bold'>happy</p><br></br>","0","","","","","","","","","","","","","","","",""
"","","","","","html-slider-response","101","358982","0.0-97.0","p6fhw2y8js","73","NaN","<div style=""width:500px;"">
                            <p style=""font-size:50px; font-weight:bold;""
                            >happy</p>
                            <div style=""width:240px; margin: auto;"">
                                <img src=""images/map12_PRGn_scaleRev_orientDef_270.png"" style= ""width:200px""alt=""img"">
                            </div>
                        </div>","-52","","0","","","","images/map12_PRGn_scaleRev_orientDef_270.png","happy","1","12","12","PRGn","orientDef","scaleRev","270","",""
"","","","","","html-slider-response","102","360759","0.0-98.0","p6fhw2y8js","73","NaN","<div style=""width:500px;"">
                            <p style=""font-size:50px; font-weight:bold;""
                            >happy</p>
                            <div style=""width:240px; margin: auto;"">
                                <img src=""images/map27_magma_scaleRev_orientDef_090.png"" style= ""width:200px""alt=""img"">
                            </div>
                        </div>","141","","0","","","","images/map27_magma_scaleRev_orientDef_090.png","happy","1","27","27","magma","orientDef","scaleRev","090","",""
"","","","","","html-slider-response","103","362675","0.0-99.0","p6fhw2y8js","73","NaN","<div style=""width:500px;"">
                            <p style=""font-size:50px; font-weight:bold;""
                            >happy</p>
                            <div style=""width:240px; margin: auto;"">
                                <img src=""images/map10_YlGn_scaleDef_orientMir_180.png"" style= ""width:200px""alt=""img"">
                            </div>
                        </div>","177","","0","","","","images/map10_YlGn_scaleDef_orientMir_180.png","happy","1","10","10","YlGn","orientMir","scaleDef","180","",""
"","","","","","html-slider-response","104","364792","0.0-100.0","p6fhw2y8js","73","NaN","<div style=""width:500px;"">
                            <p style=""font-size:50px; font-weight:bold;""
                            >happy</p>
                            <div style=""width:240px; margin: auto;"">
                                <img src=""images/map05_YlOrBr_scaleDef_orientDef_000.png"" style= ""width:200px""alt=""img"">
                            </div>
                        </div>","197","","0","","","","images/map05_YlOrBr_scaleDef_orientDef_000.png","happy","1","05","05","YlOrBr","orientDef","scaleDef","000","",""
"","","","","","html-slider-response","105","366743","0.0-101.0","p6fhw2y8js","73","NaN","<div style=""width:500px;"">
                            <p style=""font-size:50px; font-weight:bold;""
                            >happy</p>
                            <div style=""width:240px; margin: auto;"">
                                <img src=""images/map26_inferno_scaleDef_orientMir_180.png"" style= ""width:200px""alt=""img"">
                            </div>
                        </div>","-72","","0","","","","images/map26_inferno_scaleDef_orientMir_180.png","happy","1","26","26","inferno","orientMir","scaleDef","180","",""
"","","","","","html-slider-response","106","368543","0.0-102.0","p6fhw2y8js","73","NaN","<div style=""width:500px;"">
                            <p style=""font-size:50px; font-weight:bold;""
                            >happy</p>
                            <div style=""width:240px; margin: auto;"">
                                <img src=""images/map26_plasma_scaleDef_orientMir_000.png"" style= ""width:200px""alt=""img"">
                            </div>
                        </div>","-63","","0","","","","images/map26_plasma_scaleDef_orientMir_000.png","happy","1","26","26","plasma","orientMir","scaleDef","000","",""
"","","","","","html-slider-response","107","370702","0.0-103.0","p6fhw2y8js","73","NaN","<div style=""width:500px;"">
                            <p style=""font-size:50px; font-weight:bold;""
                            >happy</p>
                            <div style=""width:240px; margin: auto;"">
                                <img src=""images/map07_GnBu_scaleDef_orientMir_000.png"" style= ""width:200px""alt=""img"">
                            </div>
                        </div>","147","","0","","","","images/map07_GnBu_scaleDef_orientMir_000.png","happy","1","07","07","GnBu","orientMir","scaleDef","000","",""
"","","","","","html-slider-response","108","372493","0.0-104.0","p6fhw2y8js","73","NaN","<div style=""width:500px;"">
                            <p style=""font-size:50px; font-weight:bold;""
                            >happy</p>
                            <div style=""width:240px; margin: auto;"">
                                <img src=""images/map13_RdGy_scaleRev_orientDef_090.png"" style= ""width:200px""alt=""img"">
                            </div>
                        </div>","-29","","0","","","","images/map13_RdGy_scaleRev_orientDef_090.png","happy","1","13","13","RdGy","orientDef","scaleRev","090","",""
"","","","","","html-slider-response","109","374323","0.0-105.0","p6fhw2y8js","73","NaN","<div style=""width:500px;"">
                            <p style=""font-size:50px; font-weight:bold;""
                            >happy</p>
                            <div style=""width:240px; margin: auto;"">
                                <img src=""images/map07_RdPu_scaleRev_orientDef_090.png"" style= ""width:200px""alt=""img"">
                            </div>
                        </div>","50","","0","","","","images/map07_RdPu_scaleRev_orientDef_090.png","happy","1","07","07","RdPu","orientDef","scaleRev","090","",""
"","","","","","html-slider-response","110","376006","0.0-106.0","p6fhw2y8js","73","NaN","<div style=""width:500px;"">
                            <p style=""font-size:50px; font-weight:bold;""
                            >happy</p>
                            <div style=""width:240px; margin: auto;"">
                                <img src=""images/map26_viridis_scaleRev_orientDef_270.png"" style= ""width:200px""alt=""img"">
                            </div>
                        </div>","122","","0","","","","images/map26_viridis_scaleRev_orientDef_270.png","happy","1","26","26","viridis","orientDef","scaleRev","270","",""
"","","","","","html-slider-response","111","377989","0.0-107.0","p6fhw2y8js","73","NaN","<div style=""width:500px;"">
                            <p style=""font-size:50px; font-weight:bold;""
                            >happy</p>
                            <div style=""width:240px; margin: auto;"">
                                <img src=""images/map10_PuBuGn_scaleDef_orientDef_180.png"" style= ""width:200px""alt=""img"">
                            </div>
                        </div>","78","","0","","","","images/map10_PuBuGn_scaleDef_orientDef_180.png","happy","1","10","10","PuBuGn","orientDef","scaleDef","180","",""
"","","","","","html-slider-response","112","380342","0.0-108.0","p6fhw2y8js","73","NaN","<div style=""width:500px;"">
                            <p style=""font-size:50px; font-weight:bold;""
                            >happy</p>
                            <div style=""width:240px; margin: auto;"">
                                <img src=""images/map27_cividis_scaleDef_orientDef_180.png"" style= ""width:200px""alt=""img"">
                            </div>
                        </div>","-100","","0","","","","images/map27_cividis_scaleDef_orientDef_180.png","happy","1","27","27","cividis","orientDef","scaleDef","180","",""
"","","","","","html-slider-response","113","382478","0.0-109.0","p6fhw2y8js","73","NaN","<div style=""width:500px;"">
                            <p style=""font-size:50px; font-weight:bold;""
                            >happy</p>
                            <div style=""width:240px; margin: auto;"">
                                <img src=""images/map15_bwr_scaleRev_orientMir_090.png"" style= ""width:200px""alt=""img"">
                            </div>
                        </div>","-143","","0","","","","images/map15_bwr_scaleRev_orientMir_090.png","happy","1","15","15","bwr","orientMir","scaleRev","090","",""
"","","","","","html-slider-response","114","384908","0.0-110.0","p6fhw2y8js","73","NaN","<div style=""width:500px;"">
                            <p style=""font-size:50px; font-weight:bold;""
                            >happy</p>
                            <div style=""width:240px; margin: auto;"">
                                <img src=""images/map10_BuGn_scaleRev_orientMir_090.png"" style= ""width:200px""alt=""img"">
                            </div>
                        </div>","161","","0","","","","images/map10_BuGn_scaleRev_orientMir_090.png","happy","1","10","10","BuGn","orientMir","scaleRev","090","",""
"","","","","","html-slider-response","115","386926","0.0-111.0","p6fhw2y8js","73","NaN","<div style=""width:500px;"">
                            <p style=""font-size:50px; font-weight:bold;""
                            >happy</p>
                            <div style=""width:240px; margin: auto;"">
                                <img src=""images/map02_Blues_scaleDef_orientDef_000.png"" style= ""width:200px""alt=""img"">
                            </div>
                        </div>","170","","0","","","","images/map02_Blues_scaleDef_orientDef_000.png","happy","1","02","02","Blues","orientDef","scaleDef","000","",""
"","","","","","html-slider-response","116","388582","0.0-112.0","p6fhw2y8js","73","NaN","<div style=""width:500px;"">
                            <p style=""font-size:50px; font-weight:bold;""
                            >happy</p>
                            <div style=""width:240px; margin: auto;"">
                                <img src=""images/map26_turbo_scaleDef_orientDef_000.png"" style= ""width:200px""alt=""img"">
                            </div>
                        </div>","-186","","0","","","","images/map26_turbo_scaleDef_orientDef_000.png","happy","1","26","26","turbo","orientDef","scaleDef","000","",""
"","","","","","html-slider-response","117","390421","0.0-113.0","p6fhw2y8js","73","NaN","<div style=""width:500px;"">
                            <p style=""font-size:50px; font-weight:bold;""
                            >happy</p>
                            <div style=""width:240px; margin: auto;"">
                                <img src=""images/map13_RdYlBu_scaleRev_orientMir_090.png"" style= ""width:200px""alt=""img"">
                            </div>
                        </div>","-148","","0","","","","images/map13_RdYlBu_scaleRev_orientMir_090.png","happy","1","13","13","RdYlBu","orientMir","scaleRev","090","",""
"","","","","","html-slider-response","118","392304","0.0-114.0","p6fhw2y8js","73","NaN","<div style=""width:500px;"">
                            <p style=""font-size:50px; font-weight:bold;""
                            >happy</p>
                            <div style=""width:240px; margin: auto;"">
                                <img src=""images/map05_PuRd_scaleRev_orientMir_270.png"" style= ""width:200px""alt=""img"">
                            </div>
                        </div>","144","","0","","","","images/map05_PuRd_scaleRev_orientMir_270.png","happy","1","05","05","PuRd","orientMir","scaleRev","270","",""
"","","","","","html-slider-response","119","394100","0.0-115.0","p6fhw2y8js","73","NaN","<div style=""width:500px;"">
                            <p style=""font-size:50px; font-weight:bold;""
                            >happy</p>
                            <div style=""width:240px; margin: auto;"">
                                <img src=""images/map05_PuRd_scaleDef_orientMir_180.png"" style= ""width:200px""alt=""img"">
                            </div>
                        </div>","137","","0","","","","images/map05_PuRd_scaleDef_orientMir_180.png","happy","1","05","05","PuRd","orientMir","scaleDef","180","",""
"","","","","","html-slider-response","120","395836","0.0-116.0","p6fhw2y8js","73","NaN","<div style=""width:500px;"">
                            <p style=""font-size:50px; font-weight:bold;""
                            >happy</p>
                            <div style=""width:240px; margin: auto;"">
                                <img src=""images/map12_PuOr_scaleDef_orientMir_180.png"" style= ""width:200px""alt=""img"">
                            </div>
                        </div>","-93","","0","","","","images/map12_PuOr_scaleDef_orientMir_180.png","happy","1","12","12","PuOr","orientMir","scaleDef","180","",""
"","","","","","html-slider-response","121","398103","0.0-117.0","p6fhw2y8js","73","NaN","<div style=""width:500px;"">
                            <p style=""font-size:50px; font-weight:bold;""
                            >happy</p>
                            <div style=""width:240px; margin: auto;"">
                                <img src=""images/map26_turbo_scaleRev_orientDef_090.png"" style= ""width:200px""alt=""img"">
                            </div>
                        </div>","-176","","0","","","","images/map26_turbo_scaleRev_orientDef_090.png","happy","1","26","26","turbo","orientDef","scaleRev","090","",""
"","","","","","html-slider-response","122","400382","0.0-118.0","p6fhw2y8js","73","NaN","<div style=""width:500px;"">
                            <p style=""font-size:50px; font-weight:bold;""
                            >happy</p>
                            <div style=""width:240px; margin: auto;"">
                                <img src=""images/map23_gist_earth_scaleDef_orientMir_180.png"" style= ""width:200px""alt=""img"">
                            </div>
                        </div>","-55","","0","","","","images/map23_gist_earth_scaleDef_orientMir_180.png","happy","1","23","23","gist","scaleDef","earth","orientMir","",""
"","","","","","html-slider-response","123","406884","0.0-119.0","p6fhw2y8js","73","NaN","<div style=""width:500px;"">
                            <p style=""font-size:50px; font-weight:bold;""
                            >happy</p>
                            <div style=""width:240px; margin: auto;"">
                                <img src=""images/map05_YlOrRd_scaleRev_orientDef_270.png"" style= ""width:200px""alt=""img"">
                            </div>
                        </div>","-32","","0","","","","images/map05_YlOrRd_scaleRev_orientDef_270.png","happy","1","05","05","YlOrRd","orientDef","scaleRev","270","",""
"","","","","","html-slider-response","124","408299","0.0-120.0","p6fhw2y8js","73","NaN","<div style=""width:500px;"">
                            <p style=""font-size:50px; font-weight:bold;""
                            >happy</p>
                            <div style=""width:240px; margin: auto;"">
                                <img src=""images/map13_RdGy_scaleDef_orientDef_000.png"" style= ""width:200px""alt=""img"">
                            </div>
                        </div>","-103","","0","","","","images/map13_RdGy_scaleDef_orientDef_000.png","happy","1","13","13","RdGy","orientDef","scaleDef","000","",""
"","","","","","html-slider-response","125","415328","0.0-121.0","p6fhw2y8js","73","NaN","<div style=""width:500px;"">
                            <p style=""font-size:50px; font-weight:bold;""
                            >happy</p>
                            <div style=""width:240px; margin: auto;"">
                                <img src=""images/map05_OrRd_scaleRev_orientMir_090.png"" style= ""width:200px""alt=""img"">
                            </div>
                        </div>","-54","","0","","","","images/map05_OrRd_scaleRev_orientMir_090.png","happy","1","05","05","OrRd","orientMir","scaleRev","090","",""
"","","","","","html-slider-response","126","416950","0.0-122.0","p6fhw2y8js","73","NaN","<div style=""width:500px;"">
                            <p style=""font-size:50px; font-weight:bold;""
                            >happy</p>
                            <div style=""width:240px; margin: auto;"">
                                <img src=""images/map10_YlGn_scaleRev_orientMir_270.png"" style= ""width:200px""alt=""img"">
                            </div>
                        </div>","122","","0","","","","images/map10_YlGn_scaleRev_orientMir_270.png","happy","1","10","10","YlGn","orientMir","scaleRev","270","",""
"","","","","","html-slider-response","127","420115","0.0-123.0","p6fhw2y8js","73","NaN","<div style=""width:500px;"">
                            <p style=""font-size:50px; font-weight:bold;""
                            >happy</p>
                            <div style=""width:240px; margin: auto;"">
                                <img src=""images/map02_Greens_scaleDef_orientDef_180.png"" style= ""width:200px""alt=""img"">
                            </div>
                        </div>","123","","0","","","","images/map02_Greens_scaleDef_orientDef_180.png","happy","1","02","02","Greens","orientDef","scaleDef","180","",""
"","","","","","html-slider-response","128","426680","0.0-124.0","p6fhw2y8js","73","NaN","<div style=""width:500px;"">
                            <p style=""font-size:50px; font-weight:bold;""
                            >happy</p>
                            <div style=""width:240px; margin: auto;"">
                                <img src=""images/map23_vanimo_scaleRev_orientMir_090.png"" style= ""width:200px""alt=""img"">
                            </div>
                        </div>","-38","","0","","","","images/map23_vanimo_scaleRev_orientMir_090.png","happy","1","23","23","vanimo","orientMir","scaleRev","090","",""
"","","","","","html-slider-response","129","429646","0.0-125.0","p6fhw2y8js","73","NaN","<div style=""width:500px;"">
                            <p style=""font-size:50px; font-weight:bold;""
                            >happy</p>
                            <div style=""width:240px; margin: auto;"">
                                <img src=""images/map27_Purples_scaleRev_orientMir_270.png"" style= ""width:200px""alt=""img"">
                            </div>
                        </div>","134","","0","","","","images/map27_Purples_scaleRev_orientMir_270.png","happy","1","27","27","Purples","orientMir","scaleRev","270","",""
"","","","","","html-slider-response","130","431334","0.0-126.0","p6fhw2y8js","73","NaN","<div style=""width:500px;"">
                            <p style=""font-size:50px; font-weight:bold;""
                            >happy</p>
                            <div style=""width:240px; margin: auto;"">
                                <img src=""images/map15_Spectral_scaleRev_orientDef_090.png"" style= ""width:200px""alt=""img"">
                            </div>
                        </div>","-99","","0","","","","images/map15_Spectral_scaleRev_orientDef_090.png","happy","1","15","15","Spectral","orientDef","scaleRev","090","",""
"","","","","","html-slider-response","131","434367","0.0-127.0","p6fhw2y8js","73","NaN","<div style=""width:500px;"">
                            <p style=""font-size:50px; font-weight:bold;""
                            >happy</p>
                            <div style=""width:240px; margin: auto;"">
                                <img src=""images/map07_GnBu_scaleRev_orientMir_090.png"" style= ""width:200px""alt=""img"">
                            </div>
                        </div>","112","","0","","","","images/map07_GnBu_scaleRev_orientMir_090.png","happy","1","07","07","GnBu","orientMir","scaleRev","090","",""
"","","","","","html-slider-response","132","436098","0.0-128.0","p6fhw2y8js","73","NaN","<div style=""width:500px;"">
                            <p style=""font-size:50px; font-weight:bold;""
                            >happy</p>
                            <div style=""width:240px; margin: auto;"">
                                <img src=""images/map02_Reds_scaleDef_orientMir_180.png"" style= ""width:200px""alt=""img"">
                            </div>
                        </div>","-48","","0","","","","images/map02_Reds_scaleDef_orientMir_180.png","happy","1","02","02","Reds","orientMir","scaleDef","180","",""
"","","","","","html-slider-response","133","445720","0.0-129.0","p6fhw2y8js","73","NaN","<div style=""width:500px;"">
                            <p style=""font-size:50px; font-weight:bold;""
                            >happy</p>
                            <div style=""width:240px; margin: auto;"">
                                <img src=""images/map12_PiYG_scaleRev_orientDef_090.png"" style= ""width:200px""alt=""img"">
                            </div>
                        </div>","-124","","0","","","","images/map12_PiYG_scaleRev_orientDef_090.png","happy","1","12","12","PiYG","orientDef","scaleRev","090","",""
"","","","","","html-slider-response","134","447168","0.0-130.0","p6fhw2y8js","73","NaN","<div style=""width:500px;"">
                            <p style=""font-size:50px; font-weight:bold;""
                            >happy</p>
                            <div style=""width:240px; margin: auto;"">
                                <img src=""images/map15_coolwarm_scaleRev_orientDef_270.png"" style= ""width:200px""alt=""img"">
                            </div>
                        </div>","-124","","0","","","","images/map15_coolwarm_scaleRev_orientDef_270.png","happy","1","15","15","coolwarm","orientDef","scaleRev","270","",""
"","","","","","html-slider-response","135","449896","0.0-131.0","p6fhw2y8js","73","NaN","<div style=""width:500px;"">
                            <p style=""font-size:50px; font-weight:bold;""
                            >happy</p>
                            <div style=""width:240px; margin: auto;"">
                                <img src=""images/map10_PuBuGn_scaleRev_orientDef_270.png"" style= ""width:200px""alt=""img"">
                            </div>
                        </div>","109","","0","","","","images/map10_PuBuGn_scaleRev_orientDef_270.png","happy","1","10","10","PuBuGn","orientDef","scaleRev","270","",""
"","","","","","html-slider-response","136","452731","0.0-132.0","p6fhw2y8js","73","NaN","<div style=""width:500px;"">
                            <p style=""font-size:50px; font-weight:bold;""
                            >happy</p>
                            <div style=""width:240px; margin: auto;"">
                                <img src=""images/map12_BrBG_scaleRev_orientMir_090.png"" style= ""width:200px""alt=""img"">
                            </div>
                        </div>","-54","","0","","","","images/map12_BrBG_scaleRev_orientMir_090.png","happy","1","12","12","BrBG","orientMir","scaleRev","090","",""
"","","","","","html-slider-response","137","454898","0.0-133.0","p6fhw2y8js","73","NaN","<div style=""width:500px;"">
                            <p style=""font-size:50px; font-weight:bold;""
                            >happy</p>
                            <div style=""width:240px; margin: auto;"">
                                <img src=""images/map23_berlin_scaleRev_orientDef_090.png"" style= ""width:200px""alt=""img"">
                            </div>
                        </div>","-143","","0","","","","images/map23_berlin_scaleRev_orientDef_090.png","happy","1","23","23","berlin","orientDef","scaleRev","090","",""
"","","","","","html-slider-response","138","456981","0.0-134.0","p6fhw2y8js","73","NaN","<div style=""width:500px;"">
                            <p style=""font-size:50px; font-weight:bold;""
                            >happy</p>
                            <div style=""width:240px; margin: auto;"">
                                <img src=""images/map07_PuBu_scaleRev_orientMir_270.png"" style= ""width:200px""alt=""img"">
                            </div>
                        </div>","131","","0","","","","images/map07_PuBu_scaleRev_orientMir_270.png","happy","1","07","07","PuBu","orientMir","scaleRev","270","",""
"","","","","","html-slider-response","139","459400","0.0-135.0","p6fhw2y8js","73","NaN","<div style=""width:500px;"">
                            <p style=""font-size:50px; font-weight:bold;""
                            >happy</p>
                            <div style=""width:240px; margin: auto;"">
                                <img src=""images/map15_seismic_scaleRev_orientMir_270.png"" style= ""width:200px""alt=""img"">
                            </div>
                        </div>","-197","","0","","","","images/map15_seismic_scaleRev_orientMir_270.png","happy","1","15","15","seismic","orientMir","scaleRev","270","",""
"","","","","","html-slider-response","140","461659","0.0-136.0","p6fhw2y8js","73","NaN","<div style=""width:500px;"">
                            <p style=""font-size:50px; font-weight:bold;""
                            >happy</p>
                            <div style=""width:240px; margin: auto;"">
                                <img src=""images/map05_YlOrBr_scaleRev_orientDef_090.png"" style= ""width:200px""alt=""img"">
                            </div>
                        </div>","179","","0","","","","images/map05_YlOrBr_scaleRev_orientDef_090.png","happy","1","05","05","YlOrBr","orientDef","scaleRev","090","",""
"","","","","","html-button-response","141","464320","0.0-137.0","p6fhw2y8js","73","2144","<p>You are doing great!<br></br> You are halway done with the current block. When you are ready to continue, click the 'Continue' button.</p>","0","","","","","","","","","","","","","","","",""
"","","","","","html-slider-response","142","465670","0.0-138.0","p6fhw2y8js","73","NaN","<div style=""width:500px;"">
                            <p style=""font-size:50px; font-weight:bold;""
                            >happy</p>
                            <div style=""width:240px; margin: auto;"">
                                <img src=""images/map15_coolwarm_scaleDef_orientDef_180.png"" style= ""width:200px""alt=""img"">
                            </div>
                        </div>","-126","","0","","","","images/map15_coolwarm_scaleDef_orientDef_180.png","happy","1","15","15","coolwarm","orientDef","scaleDef","180","",""
"","","","","","html-slider-response","143","467992","0.0-139.0","p6fhw2y8js","73","NaN","<div style=""width:500px;"">
                            <p style=""font-size:50px; font-weight:bold;""
                            >happy</p>
                            <div style=""width:240px; margin: auto;"">
                                <img src=""images/map12_PuOr_scaleRev_orientMir_270.png"" style= ""width:200px""alt=""img"">
                            </div>
                        </div>","-66","","0","","","","images/map12_PuOr_scaleRev_orientMir_270.png","happy","1","12","12","PuOr","orientMir","scaleRev","270","",""
"","","","","","html-slider-response","144","469682","0.0-140.0","p6fhw2y8js","73","NaN","<div style=""width:500px;"">
                            <p style=""font-size:50px; font-weight:bold;""
                            >happy</p>
                            <div style=""width:240px; margin: auto;"">
                                <img src=""images/map27_Greys_scaleDef_orientMir_000.png"" style= ""width:200px""alt=""img"">
                            </div>
                        </div>","-47","","0","","","","images/map27_Greys_scaleDef_orientMir_000.png","happy","1","27","27","Greys","orientMir","scaleDef","000","",""
"","","","","","html-slider-response","145","471307","0.0-141.0","p6fhw2y8js","73","NaN","<div style=""width:500px;"">
                            <p style=""font-size:50px; font-weight:bold;""
                            >happy</p>
                            <div style=""width:240px; margin: auto;"">
                                <img src=""images/map27_magma_scaleDef_orientDef_000.png"" style= ""width:200px""alt=""img"">
                            </div>
                        </div>","96","","0","","","","images/map27_magma_scaleDef_orientDef_000.png","happy","1","27","27","magma","orientDef","scaleDef","000","",""
"","","","","","html-slider-response","146","473307","0.0-142.0","p6fhw2y8js","73","NaN","<div style=""width:500px;"">
                            <p style=""font-size:50px; font-weight:bold;""
                            >happy</p>
                            <div style=""width:240px; margin: auto;"">
                                <img src=""images/map26_viridis_scaleDef_orientDef_180.png"" style= ""width:200px""alt=""img"">
                            </div>
                        </div>","-122","","0","","","","images/map26_viridis_scaleDef_orientDef_180.png","happy","1","26","26","viridis","orientDef","scaleDef","180","",""
"","","","","","html-slider-response","147","475466","0.0-143.0","p6fhw2y8js","73","NaN","<div style=""width:500px;"">
                            <p style=""font-size:50px; font-weight:bold;""
                            >happy</p>
                            <div style=""width:240px; margin: auto;"">
                                <img src=""images/map27_Greys_scaleRev_orientMir_090.png"" style= ""width:200px""alt=""img"">
                            </div>
                        </div>","129","","0","","","","images/map27_Greys_scaleRev_orientMir_090.png","happy","1","27","27","Greys","orientMir","scaleRev","090","",""
"","","","","","html-slider-response","148","477281","0.0-144.0","p6fhw2y8js","73","NaN","<div style=""width:500px;"">
                            <p style=""font-size:50px; font-weight:bold;""
                            >happy</p>
                            <div style=""width:240px; margin: auto;"">
                                <img src=""images/map12_PRGn_scaleDef_orientDef_180.png"" style= ""width:200px""alt=""img"">
                            </div>
                        </div>","-138","","0","","","","images/map12_PRGn_scaleDef_orientDef_180.png","happy","1","12","12","PRGn","orientDef","scaleDef","180","",""
"","","","","","html-slider-response","149","478677","0.0-145.0","p6fhw2y8js","73","NaN","<div style=""width:500px;"">
                            <p style=""font-size:50px; font-weight:bold;""
                            >happy</p>
                            <div style=""width:240px; margin: auto;"">
                                <img src=""images/map12_PiYG_scaleDef_orientDef_000.png"" style= ""width:200px""alt=""img"">
                            </div>
                        </div>","-138","","0","","","","images/map12_PiYG_scaleDef_orientDef_000.png","happy","1","12","12","PiYG","orientDef","scaleDef","000","",""
"","","","","","html-slider-response","150","480899","0.0-146.0","p6fhw2y8js","73","NaN","<div style=""width:500px;"">
                            <p style=""font-size:50px; font-weight:bold;""
                            >happy</p>
                            <div style=""width:240px; margin: auto;"">
                                <img src=""images/map07_BuPu_scaleDef_orientDef_180.png"" style= ""width:200px""alt=""img"">
                            </div>
                        </div>","66","","0","","","","images/map07_BuPu_scaleDef_orientDef_180.png","happy","1","07","07","BuPu","orientDef","scaleDef","180","",""
"","","","","","html-slider-response","151","482954","0.0-147.0","p6fhw2y8js","73","NaN","<div style=""width:500px;"">
                            <p style=""font-size:50px; font-weight:bold;""
                            >happy</p>
                            <div style=""width:240px; margin: auto;"">
                                <img src=""images/map05_YlOrRd_scaleDef_orientDef_180.png"" style= ""width:200px""alt=""img"">
                            </div>
                        </div>","-79","","0","","","","images/map05_YlOrRd_scaleDef_orientDef_180.png","happy","1","05","05","YlOrRd","orientDef","scaleDef","180","",""
"","","","","","html-slider-response","152","484643","0.0-148.0","p6fhw2y8js","73","NaN","<div style=""width:500px;"">
                            <p style=""font-size:50px; font-weight:bold;""
                            >happy</p>
                            <div style=""width:240px; margin: auto;"">
                                <img src=""images/map23_managua_scaleRev_orientDef_270.png"" style= ""width:200px""alt=""img"">
                            </div>
                        </div>","-171","","0","","","","images/map23_managua_scaleRev_orientDef_270.png","happy","1","23","23","managua","orientDef","scaleRev","270","",""
"","","","","","html-slider-response","153","486438","0.0-149.0","p6fhw2y8js","73","NaN","<div style=""width:500px;"">
                            <p style=""font-size:50px; font-weight:bold;""
                            >happy</p>
                            <div style=""width:240px; margin: auto;"">
                                <img src=""images/map13_RdBu_scaleDef_orientDef_180.png"" style= ""width:200px""alt=""img"">
                            </div>
                        </div>","-197","","0","","","","images/map13_RdBu_scaleDef_orientDef_180.png","happy","1","13","13","RdBu","orientDef","scaleDef","180","",""
"","","","","","html-slider-response","154","488402","0.0-150.0","p6fhw2y8js","73","NaN","<div style=""width:500px;"">
                            <p style=""font-size:50px; font-weight:bold;""
                            >happy</p>
                            <div style=""width:240px; margin: auto;"">
                                <img src=""images/map10_BuGn_scaleDef_orientMir_000.png"" style= ""width:200px""alt=""img"">
                            </div>
                        </div>","118","","0","","","","images/map10_BuGn_scaleDef_orientMir_000.png","happy","1","10","10","BuGn","orientMir","scaleDef","000","",""
"","","","","","html-slider-response","155","491016","0.0-151.0","p6fhw2y8js","73","NaN","<div style=""width:500px;"">
                            <p style=""font-size:50px; font-weight:bold;""
                            >happy</p>
                            <div style=""width:240px; margin: auto;"">
                                <img src=""images/map13_RdYlBu_scaleDef_orientMir_000.png"" style= ""width:200px""alt=""img"">
                            </div>
                        </div>","-77","","0","","","","images/map13_RdYlBu_scaleDef_orientMir_000.png","happy","1","13","13","RdYlBu","orientMir","scaleDef","000","",""
"","","","","","html-slider-response","156","492809","0.0-152.0","p6fhw2y8js","73","NaN","<div style=""width:500px;"">
                            <p style=""font-size:50px; font-weight:bold;""
                            >happy</p>
                            <div style=""width:240px; margin: auto;"">
                                <img src=""images/map07_PuBu_scaleDef_orientMir_180.png"" style= ""width:200px""alt=""img"">
                            </div>
                        </div>","112","","0","","","","images/map07_PuBu_scaleDef_orientMir_180.png","happy","1","07","07","PuBu","orientMir","scaleDef","180","",""
"","","","","","html-slider-response","157","494316","0.0-153.0","p6fhw2y8js","73","NaN","<div style=""width:500px;"">
                            <p style=""font-size:50px; font-weight:bold;""
                            >happy</p>
                            <div style=""width:240px; margin: auto;"">
                                <img src=""images/map07_BuPu_scaleRev_orientDef_270.png"" style= ""width:200px""alt=""img"">
                            </div>
