"success","timeout","failed_images","failed_audio","failed_video","trial_type","trial_index","time_elapsed","internal_node_id","subject_id","condition_num","rt","stimulus","response","question_order","slider_start","practiceTrial","practiceTrialNum","correct","image_path","concept","repetition","map_id","map_num","scale_name","orientation_code","mapping_code","rotation_code","ishihara_plate","correct_response"
"true","false","[]","[]","[]","preload","0","1002","0.0-0.0","p6j0wp7dy6","60","","","","","","","","","","","","","","","","","","",""
"","","","","","html-button-response","1","2432","0.0-1.0","p6j0wp7dy6","60","1429","Welcome to our experiment!<p>At the bottom of this screen, you will see a button that says ""Begin Experiment"".<br>Please only click that button when you are ready to complete the 30 minute experiment in one sitting.</p><p> Once you click that button, it will not be possible to restart the experiment.","0","","","","","","","","","","","","","","","",""
"true","","","","","fullscreen","2","4317","0.0-2.0","p6j0wp7dy6","60","883","","","","","","","","","","","","","","","","","",""
"","","","","","survey-multi-select","3","9514","0.0-3.0","p6j0wp7dy6","60","5192","","{""Consent"":[""<strong>I consent</strong>""]}","[0]","","","","","","","","","","","","","","",""
"","","","","","html-button-response","4","12232","0.0-4.0","p6j0wp7dy6","60","2717","Welcome! <p> This experiment involves two parts: demographic information, followed by the experimental task.<p> It will take about 30 minutes to complete both parts.","0","","","","","","","","","","","","","","","",""
"","","","","","survey-text","5","20978","0.0-5.0","p6j0wp7dy6","60","8741","","{""Age"":""18"",""Gender"":""Female"",""Race/ethnicity"":""White"",""Languages"":""English""}","","","","","","","","","","","","","","","",""
"","","","","","html-slider-response","6","30647","0.0-6.0","p6j0wp7dy6","60","9668","<div style='text-align:left; font-size:20px; line-height:25px; width: 1000px;'>
                                During this experiment you will be asked to rate how much you associate maps with                    different concepts.<br> Below, you can see some examples of the maps you will be asked to rate. Above the maps
                    is the list of concepts.<br>You will be asked                    to rate how much you associate each map with each concept on a scale from 'not at all' to 'very much' like the
                    one below. <br><br>
                    Now, please look at the list of concepts and maps. For each concept, think about the map you associate 'very
                    much' with the concept.<br>                     When you see that map during the experiment, please rate it near the 'very much' endpoint of the
                    scale.<br>Now, please think about which map you associate 'not at all'                     with each concept. When you see that map during the experiment, please rate it near the 'not at all' endpoint
                    of the scale.<br>
                    Please use the full range of the scale. That is, if a map is somewhat associated with the concept, you would
                    click partway between the middle point and right side of the scale.                    You will be asked to rate each map for a given concept before moving on to the next concept.<br>Press the
                    'Continue' button for instructions on how to use the slider.                    <br>
                </div>

                <div style=""width: 500px; margin: 0 auto;"">
                    <!-- Centered text paragraphs -->
                    <div style=""text-align: center; width: 500px;"">
                        <p style=""font-size:25px; line-height:15px;"">
                            disgust&nbsp;&nbsp;&nbsp;&nbsp;
                            happy&nbsp;&nbsp;&nbsp;&nbsp;
                            angry&nbsp;&nbsp;&nbsp;&nbsp;
                            fearful&nbsp;&nbsp;&nbsp;&nbsp;
                            sad
                        </p>
                        <!-- <p style=""font-size:20px; line-height:15px;"">happy</p>
                        <p style=""font-size:20px;line-height:15px;"">angry</p>
                        <p style=""font-size:20px;line-height:15px;"">fearful</p>
                        <p style=""font-size:20px;line-height:15px;"">sad</p> -->
                    </div>
            

                    <!-- Grid section -->
                   <div style=""display: flex; justify-content: center; padding-top: 15px;"">
                    <div style=""display: grid; grid-template-columns: repeat(10, 55px); grid-gap: 5px; width: auto;"">
                        <img src=""images/map10_PiYG_scaleDef_orientDef_180.png"" alt=""map"" style=""width: 100%;""><img src=""images/map15_managua_scaleDef_orientMir_000.png"" alt=""map"" style=""width: 100%;""><img src=""images/map07_YlGnBu_scaleDef_orientDef_180.png"" alt=""map"" style=""width: 100%;""><img src=""images/map07_PuBuGn_scaleRev_orientMir_090.png"" alt=""map"" style=""width: 100%;""><img src=""images/map07_BuGn_scaleRev_orientMir_270.png"" alt=""map"" style=""width: 100%;""><img src=""images/map23_plasma_scaleDef_orientMir_180.png"" alt=""map"" style=""width: 100%;""><img src=""images/map13_coolwarm_scaleDef_orientMir_000.png"" alt=""map"" style=""width: 100%;""><img src=""images/map13_Spectral_scaleDef_orientDef_180.png"" alt=""map"" style=""width: 100%;""><img src=""images/map12_PuOr_scaleDef_orientDef_000.png"" alt=""map"" style=""width: 100%;""><img src=""images/map26_Greys_scaleRev_orientMir_270.png"" alt=""map"" style=""width: 100%;""><img src=""images/map26_magma_scaleDef_orientDef_180.png"" alt=""map"" style=""width: 100%;""><img src=""images/map05_GnBu_scaleDef_orientMir_180.png"" alt=""map"" style=""width: 100%;""><img src=""images/map15_vanimo_scaleDef_orientMir_180.png"" alt=""map"" style=""width: 100%;""><img src=""images/map23_turbo_scaleRev_orientDef_270.png"" alt=""map"" style=""width: 100%;""><img src=""images/map02_Reds_scaleDef_orientDef_000.png"" alt=""map"" style=""width: 100%;""><img src=""images/map02_YlOrRd_scaleDef_orientMir_000.png"" alt=""map"" style=""width: 100%;""><img src=""images/map27_Greens_scaleRev_orientMir_090.png"" alt=""map"" style=""width: 100%;""><img src=""images/map12_RdBu_scaleRev_orientMir_090.png"" alt=""map"" style=""width: 100%;""><img src=""images/map02_OrRd_scaleDef_orientMir_180.png"" alt=""map"" style=""width: 100%;""><img src=""images/map26_cividis_scaleRev_orientMir_090.png"" alt=""map"" style=""width: 100%;""><img src=""images/map12_RdGy_scaleDef_orientDef_180.png"" alt=""map"" style=""width: 100%;""><img src=""images/map27_Purples_scaleDef_orientDef_000.png"" alt=""map"" style=""width: 100%;""><img src=""images/map05_RdPu_scaleRev_orientDef_270.png"" alt=""map"" style=""width: 100%;""><img src=""images/map07_PuBu_scaleRev_orientDef_090.png"" alt=""map"" style=""width: 100%;""><img src=""images/map10_BrBG_scaleDef_orientMir_180.png"" alt=""map"" style=""width: 100%;""><img src=""images/map15_berlin_scaleDef_orientDef_180.png"" alt=""map"" style=""width: 100%;""><img src=""images/map13_bwr_scaleDef_orientMir_180.png"" alt=""map"" style=""width: 100%;""><img src=""images/map15_seismic_scaleDef_orientDef_000.png"" alt=""map"" style=""width: 100%;""><img src=""images/map10_PRGn_scaleDef_orientMir_000.png"" alt=""map"" style=""width: 100%;""><img src=""images/map23_gist_earth_scaleRev_orientDef_090.png"" alt=""map"" style=""width: 100%;""><img src=""images/map10_YlGn_scaleDef_orientDef_000.png"" alt=""map"" style=""width: 100%;""><img src=""images/map27_Blues_scaleDef_orientDef_180.png"" alt=""map"" style=""width: 100%;""><img src=""images/map13_RdYlGn_scaleDef_orientDef_000.png"" alt=""map"" style=""width: 100%;""><img src=""images/map12_RdYlBu_scaleRev_orientMir_270.png"" alt=""map"" style=""width: 100%;""><img src=""images/map05_BuPu_scaleRev_orientMir_090.png"" alt=""map"" style=""width: 100%;""><img src=""images/map27_Oranges_scaleRev_orientMir_270.png"" alt=""map"" style=""width: 100%;""><img src=""images/map23_viridis_scaleDef_orientMir_000.png"" alt=""map"" style=""width: 100%;""><img src=""images/map26_inferno_scaleDef_orientDef_000.png"" alt=""map"" style=""width: 100%;""><img src=""images/map02_YlOrBr_scaleRev_orientDef_270.png"" alt=""map"" style=""width: 100%;""><img src=""images/map05_PuRd_scaleDef_orientDef_000.png"" alt=""map"" style=""width: 100%;"">
                    </div>
                </div>

                    <!-- Clear floats -->
                    <div style=""clear: both;""></div>
                </div>
                            ","null","","0","true","","","","","","","","","","","","",""
"","","","","","html-button-response","7","38944","0.0-7.0","p6j0wp7dy6","60","8296","<div style=""width:800px;""><p style=""text-align:left"">To move the slider, click and drag your cursor to the location of the scale where you would like to make your rating and then let go. When you let go of the slider, your response will be recorded and the next trial will begin. <br>
                    We are interested in your initial impressions of each map for the given concept, so please go with your first intuition. <br>
                    Before you begin the experiment, there will be four training trials for you to practice using the scale. <br>
                     When you are ready to start the training trials, please click ""Continue"".</p><br></div>","0","","","","","","","","","","","","","","","",""
"","","","","","html-slider-response","8","42475","0.0-8.0-0.0","p6j0wp7dy6","60","NaN","<div style=""width:500px;"">
                                    <p style=""font-size:25px;"">Please move the slider all the way to the <br> right endpoint of the scale</p>

                                    </div>
                                </div>","200","","0","true","0","true","","","","","","","","","","",""
"","","","","","html-button-response","9","44664","0.0-8.0-1.0","p6j0wp7dy6","60","1686","<p align='center'><b>Good job!</b> Click on 'Continue' to proceed.</p>","0","","","","","","","","","","","","","","","",""
"","","","","","html-slider-response","10","46739","0.0-9.0-0.0","p6j0wp7dy6","60","NaN","<div style=""width:500px;"">
                                    <p style=""font-size:25px;"">Please move the slider all the way to the <br> left endpoint of the scale</p>

                                    </div>
                                </div>","-200","","0","true","1","true","","","","","","","","","","",""
"","","","","","html-button-response","11","48282","0.0-9.0-1.0","p6j0wp7dy6","60","1040","<p align='center'><b>Good job!</b> Click on 'Continue' to proceed.</p>","0","","","","","","","","","","","","","","","",""
"","","","","","html-slider-response","12","52175","0.0-10.0-0.0","p6j0wp7dy6","60","NaN","<div style=""width:500px;"">
                                    <p style=""font-size:25px;"">Please move the slider halfway between the center and right endpoint of the scale</p>

                                    </div>
                                </div>","106","","0","true","2","true","","","","","","","","","","",""
"","","","","","html-button-response","13","53432","0.0-10.0-1.0","p6j0wp7dy6","60","755","<p align='center'><b>Good job!</b> Click on 'Continue' to proceed.</p>","0","","","","","","","","","","","","","","","",""
"","","","","","html-slider-response","14","55292","0.0-11.0-0.0","p6j0wp7dy6","60","NaN","<div style=""width:500px;"">
                                    <p style=""font-size:25px;"">Please move the slider halfway between the center and left endpoint of the scale</p>

                                    </div>
                                </div>","-101","","0","true","3","true","","","","","","","","","","",""
"","","","","","html-button-response","15","56377","0.0-11.0-1.0","p6j0wp7dy6","60","584","<p align='center'><b>Good job!</b> Click on 'Continue' to proceed.</p>","0","","","","","","","","","","","","","","","",""
"","","","","","html-button-response","16","57394","0.0-12.0","p6j0wp7dy6","60","1017","<p>Great job! You've completed the practice trials. Now you will begin the main task.</p>","0","","","","","","","","","","","","","","","",""
"","","","","","html-button-response","17","61032","0.0-13.0","p6j0wp7dy6","60","3637","<p>In this block of trials, you will be asked to rate how much you associate each map with:</p > <p style = 'font-size:150%; font-weight: bold'>disgust</p><br></br>","0","","","","","","","","","","","","","","","",""
"","","","","","html-slider-response","18","64426","0.0-14.0","p6j0wp7dy6","60","NaN","<div style=""width:500px;"">
                            <p style=""font-size:50px; font-weight:bold;""
                            >disgust</p>
                            <div style=""width:240px; margin: auto;"">
                                <img src=""images/map07_PuBuGn_scaleDef_orientMir_000.png"" style= ""width:200px""alt=""img"">
                            </div>
                        </div>","-158","","0","","","","images/map07_PuBuGn_scaleDef_orientMir_000.png","disgust","1","07","07","PuBuGn","orientMir","scaleDef","000","",""
"","","","","","html-slider-response","19","68142","0.0-15.0","p6j0wp7dy6","60","NaN","<div style=""width:500px;"">
                            <p style=""font-size:50px; font-weight:bold;""
                            >disgust</p>
                            <div style=""width:240px; margin: auto;"">
                                <img src=""images/map05_GnBu_scaleDef_orientMir_180.png"" style= ""width:200px""alt=""img"">
                            </div>
                        </div>","-146","","0","","","","images/map05_GnBu_scaleDef_orientMir_180.png","disgust","1","05","05","GnBu","orientMir","scaleDef","180","",""
"","","","","","html-slider-response","20","70955","0.0-16.0","p6j0wp7dy6","60","NaN","<div style=""width:500px;"">
                            <p style=""font-size:50px; font-weight:bold;""
                            >disgust</p>
                            <div style=""width:240px; margin: auto;"">
                                <img src=""images/map23_turbo_scaleRev_orientDef_270.png"" style= ""width:200px""alt=""img"">
                            </div>
                        </div>","101","","0","","","","images/map23_turbo_scaleRev_orientDef_270.png","disgust","1","23","23","turbo","orientDef","scaleRev","270","",""
"","","","","","html-slider-response","21","76797","0.0-17.0","p6j0wp7dy6","60","NaN","<div style=""width:500px;"">
                            <p style=""font-size:50px; font-weight:bold;""
                            >disgust</p>
                            <div style=""width:240px; margin: auto;"">
                                <img src=""images/map10_YlGn_scaleRev_orientDef_090.png"" style= ""width:200px""alt=""img"">
                            </div>
                        </div>","84","","0","","","","images/map10_YlGn_scaleRev_orientDef_090.png","disgust","1","10","10","YlGn","orientDef","scaleRev","090","",""
"","","","","","html-slider-response","22","81272","0.0-18.0","p6j0wp7dy6","60","NaN","<div style=""width:500px;"">
                            <p style=""font-size:50px; font-weight:bold;""
                            >disgust</p>
                            <div style=""width:240px; margin: auto;"">
                                <img src=""images/map07_BuGn_scaleRev_orientMir_270.png"" style= ""width:200px""alt=""img"">
                            </div>
                        </div>","-46","","0","","","","images/map07_BuGn_scaleRev_orientMir_270.png","disgust","1","07","07","BuGn","orientMir","scaleRev","270","",""
"","","","","","html-slider-response","23","83327","0.0-19.0","p6j0wp7dy6","60","NaN","<div style=""width:500px;"">
                            <p style=""font-size:50px; font-weight:bold;""
                            >disgust</p>
                            <div style=""width:240px; margin: auto;"">
                                <img src=""images/map13_Spectral_scaleRev_orientDef_270.png"" style= ""width:200px""alt=""img"">
                            </div>
                        </div>","96","","0","","","","images/map13_Spectral_scaleRev_orientDef_270.png","disgust","1","13","13","Spectral","orientDef","scaleRev","270","",""
"","","","","","html-slider-response","24","85359","0.0-20.0","p6j0wp7dy6","60","NaN","<div style=""width:500px;"">
                            <p style=""font-size:50px; font-weight:bold;""
                            >disgust</p>
                            <div style=""width:240px; margin: auto;"">
                                <img src=""images/map12_RdYlBu_scaleRev_orientMir_270.png"" style= ""width:200px""alt=""img"">
                            </div>
                        </div>","38","","0","","","","images/map12_RdYlBu_scaleRev_orientMir_270.png","disgust","1","12","12","RdYlBu","orientMir","scaleRev","270","",""
"","","","","","html-slider-response","25","87194","0.0-21.0","p6j0wp7dy6","60","NaN","<div style=""width:500px;"">
                            <p style=""font-size:50px; font-weight:bold;""
                            >disgust</p>
                            <div style=""width:240px; margin: auto;"">
                                <img src=""images/map27_Blues_scaleRev_orientDef_270.png"" style= ""width:200px""alt=""img"">
                            </div>
                        </div>","-120","","0","","","","images/map27_Blues_scaleRev_orientDef_270.png","disgust","1","27","27","Blues","orientDef","scaleRev","270","",""
"","","","","","html-slider-response","26","89121","0.0-22.0","p6j0wp7dy6","60","NaN","<div style=""width:500px;"">
                            <p style=""font-size:50px; font-weight:bold;""
                            >disgust</p>
                            <div style=""width:240px; margin: auto;"">
                                <img src=""images/map26_cividis_scaleRev_orientMir_090.png"" style= ""width:200px""alt=""img"">
                            </div>
                        </div>","20","","0","","","","images/map26_cividis_scaleRev_orientMir_090.png","disgust","1","26","26","cividis","orientMir","scaleRev","090","",""
"","","","","","html-slider-response","27","91041","0.0-23.0","p6j0wp7dy6","60","NaN","<div style=""width:500px;"">
                            <p style=""font-size:50px; font-weight:bold;""
                            >disgust</p>
                            <div style=""width:240px; margin: auto;"">
                                <img src=""images/map13_coolwarm_scaleDef_orientMir_000.png"" style= ""width:200px""alt=""img"">
                            </div>
                        </div>","58","","0","","","","images/map13_coolwarm_scaleDef_orientMir_000.png","disgust","1","13","13","coolwarm","orientMir","scaleDef","000","",""
"","","","","","html-slider-response","28","92704","0.0-24.0","p6j0wp7dy6","60","NaN","<div style=""width:500px;"">
                            <p style=""font-size:50px; font-weight:bold;""
                            >disgust</p>
                            <div style=""width:240px; margin: auto;"">
                                <img src=""images/map12_PuOr_scaleDef_orientDef_000.png"" style= ""width:200px""alt=""img"">
                            </div>
                        </div>","48","","0","","","","images/map12_PuOr_scaleDef_orientDef_000.png","disgust","1","12","12","PuOr","orientDef","scaleDef","000","",""
"","","","","","html-slider-response","29","95221","0.0-25.0","p6j0wp7dy6","60","NaN","<div style=""width:500px;"">
                            <p style=""font-size:50px; font-weight:bold;""
                            >disgust</p>
                            <div style=""width:240px; margin: auto;"">
                                <img src=""images/map26_inferno_scaleDef_orientDef_000.png"" style= ""width:200px""alt=""img"">
                            </div>
                        </div>","-66","","0","","","","images/map26_inferno_scaleDef_orientDef_000.png","disgust","1","26","26","inferno","orientDef","scaleDef","000","",""
"","","","","","html-slider-response","30","96954","0.0-26.0","p6j0wp7dy6","60","NaN","<div style=""width:500px;"">
                            <p style=""font-size:50px; font-weight:bold;""
                            >disgust</p>
                            <div style=""width:240px; margin: auto;"">
                                <img src=""images/map27_Blues_scaleDef_orientDef_180.png"" style= ""width:200px""alt=""img"">
                            </div>
                        </div>","-82","","0","","","","images/map27_Blues_scaleDef_orientDef_180.png","disgust","1","27","27","Blues","orientDef","scaleDef","180","",""
"","","","","","html-slider-response","31","98873","0.0-27.0","p6j0wp7dy6","60","NaN","<div style=""width:500px;"">
                            <p style=""font-size:50px; font-weight:bold;""
                            >disgust</p>
                            <div style=""width:240px; margin: auto;"">
                                <img src=""images/map13_bwr_scaleRev_orientMir_270.png"" style= ""width:200px""alt=""img"">
                            </div>
                        </div>","-74","","0","","","","images/map13_bwr_scaleRev_orientMir_270.png","disgust","1","13","13","bwr","orientMir","scaleRev","270","",""
"","","","","","html-slider-response","32","100723","0.0-28.0","p6j0wp7dy6","60","NaN","<div style=""width:500px;"">
                            <p style=""font-size:50px; font-weight:bold;""
                            >disgust</p>
                            <div style=""width:240px; margin: auto;"">
                                <img src=""images/map23_plasma_scaleDef_orientMir_180.png"" style= ""width:200px""alt=""img"">
                            </div>
                        </div>","45","","0","","","","images/map23_plasma_scaleDef_orientMir_180.png","disgust","1","23","23","plasma","orientMir","scaleDef","180","",""
"","","","","","html-slider-response","33","102666","0.0-29.0","p6j0wp7dy6","60","NaN","<div style=""width:500px;"">
                            <p style=""font-size:50px; font-weight:bold;""
                            >disgust</p>
                            <div style=""width:240px; margin: auto;"">
                                <img src=""images/map05_BuPu_scaleRev_orientMir_090.png"" style= ""width:200px""alt=""img"">
                            </div>
                        </div>","-81","","0","","","","images/map05_BuPu_scaleRev_orientMir_090.png","disgust","1","05","05","BuPu","orientMir","scaleRev","090","",""
"","","","","","html-slider-response","34","104255","0.0-30.0","p6j0wp7dy6","60","NaN","<div style=""width:500px;"">
                            <p style=""font-size:50px; font-weight:bold;""
                            >disgust</p>
                            <div style=""width:240px; margin: auto;"">
                                <img src=""images/map10_PiYG_scaleRev_orientDef_270.png"" style= ""width:200px""alt=""img"">
                            </div>
                        </div>","78","","0","","","","images/map10_PiYG_scaleRev_orientDef_270.png","disgust","1","10","10","PiYG","orientDef","scaleRev","270","",""
"","","","","","html-slider-response","35","105891","0.0-31.0","p6j0wp7dy6","60","NaN","<div style=""width:500px;"">
                            <p style=""font-size:50px; font-weight:bold;""
                            >disgust</p>
                            <div style=""width:240px; margin: auto;"">
                                <img src=""images/map07_PuBu_scaleRev_orientDef_090.png"" style= ""width:200px""alt=""img"">
                            </div>
                        </div>","-148","","0","","","","images/map07_PuBu_scaleRev_orientDef_090.png","disgust","1","07","07","PuBu","orientDef","scaleRev","090","",""
"","","","","","html-slider-response","36","107774","0.0-32.0","p6j0wp7dy6","60","NaN","<div style=""width:500px;"">
                            <p style=""font-size:50px; font-weight:bold;""
                            >disgust</p>
                            <div style=""width:240px; margin: auto;"">
                                <img src=""images/map15_managua_scaleRev_orientMir_090.png"" style= ""width:200px""alt=""img"">
                            </div>
                        </div>","74","","0","","","","images/map15_managua_scaleRev_orientMir_090.png","disgust","1","15","15","managua","orientMir","scaleRev","090","",""
"","","","","","html-slider-response","37","109305","0.0-33.0","p6j0wp7dy6","60","NaN","<div style=""width:500px;"">
                            <p style=""font-size:50px; font-weight:bold;""
                            >disgust</p>
                            <div style=""width:240px; margin: auto;"">
                                <img src=""images/map13_RdYlGn_scaleRev_orientDef_090.png"" style= ""width:200px""alt=""img"">
                            </div>
                        </div>","87","","0","","","","images/map13_RdYlGn_scaleRev_orientDef_090.png","disgust","1","13","13","RdYlGn","orientDef","scaleRev","090","",""
"","","","","","html-slider-response","38","110886","0.0-34.0","p6j0wp7dy6","60","NaN","<div style=""width:500px;"">
                            <p style=""font-size:50px; font-weight:bold;""
                            >disgust</p>
                            <div style=""width:240px; margin: auto;"">
                                <img src=""images/map26_Greys_scaleRev_orientMir_270.png"" style= ""width:200px""alt=""img"">
                            </div>
                        </div>","-81","","0","","","","images/map26_Greys_scaleRev_orientMir_270.png","disgust","1","26","26","Greys","orientMir","scaleRev","270","",""
"","","","","","html-slider-response","39","112555","0.0-35.0","p6j0wp7dy6","60","NaN","<div style=""width:500px;"">
                            <p style=""font-size:50px; font-weight:bold;""
                            >disgust</p>
                            <div style=""width:240px; margin: auto;"">
                                <img src=""images/map26_cividis_scaleDef_orientMir_000.png"" style= ""width:200px""alt=""img"">
                            </div>
                        </div>","-70","","0","","","","images/map26_cividis_scaleDef_orientMir_000.png","disgust","1","26","26","cividis","orientMir","scaleDef","000","",""
"","","","","","html-slider-response","40","114706","0.0-36.0","p6j0wp7dy6","60","NaN","<div style=""width:500px;"">
                            <p style=""font-size:50px; font-weight:bold;""
                            >disgust</p>
                            <div style=""width:240px; margin: auto;"">
                                <img src=""images/map15_vanimo_scaleRev_orientMir_270.png"" style= ""width:200px""alt=""img"">
                            </div>
                        </div>","29","","0","","","","images/map15_vanimo_scaleRev_orientMir_270.png","disgust","1","15","15","vanimo","orientMir","scaleRev","270","",""
"","","","","","html-slider-response","41","116457","0.0-37.0","p6j0wp7dy6","60","NaN","<div style=""width:500px;"">
                            <p style=""font-size:50px; font-weight:bold;""
                            >disgust</p>
                            <div style=""width:240px; margin: auto;"">
                                <img src=""images/map23_gist_earth_scaleDef_orientDef_000.png"" style= ""width:200px""alt=""img"">
                            </div>
                        </div>","70","","0","","","","images/map23_gist_earth_scaleDef_orientDef_000.png","disgust","1","23","23","gist","scaleDef","earth","orientDef","",""
"","","","","","html-slider-response","42","117725","0.0-38.0","p6j0wp7dy6","60","NaN","<div style=""width:500px;"">
                            <p style=""font-size:50px; font-weight:bold;""
                            >disgust</p>
                            <div style=""width:240px; margin: auto;"">
                                <img src=""images/map13_RdYlGn_scaleDef_orientDef_000.png"" style= ""width:200px""alt=""img"">
                            </div>
                        </div>","72","","0","","","","images/map13_RdYlGn_scaleDef_orientDef_000.png","disgust","1","13","13","RdYlGn","orientDef","scaleDef","000","",""
"","","","","","html-slider-response","43","119289","0.0-39.0","p6j0wp7dy6","60","NaN","<div style=""width:500px;"">
                            <p style=""font-size:50px; font-weight:bold;""
                            >disgust</p>
                            <div style=""width:240px; margin: auto;"">
                                <img src=""images/map05_GnBu_scaleRev_orientMir_270.png"" style= ""width:200px""alt=""img"">
                            </div>
                        </div>","-130","","0","","","","images/map05_GnBu_scaleRev_orientMir_270.png","disgust","1","05","05","GnBu","orientMir","scaleRev","270","",""
"","","","","","html-slider-response","44","121354","0.0-40.0","p6j0wp7dy6","60","NaN","<div style=""width:500px;"">
                            <p style=""font-size:50px; font-weight:bold;""
                            >disgust</p>
                            <div style=""width:240px; margin: auto;"">
                                <img src=""images/map10_BrBG_scaleRev_orientMir_270.png"" style= ""width:200px""alt=""img"">
                            </div>
                        </div>","-56","","0","","","","images/map10_BrBG_scaleRev_orientMir_270.png","disgust","1","10","10","BrBG","orientMir","scaleRev","270","",""
"","","","","","html-slider-response","45","122875","0.0-41.0","p6j0wp7dy6","60","NaN","<div style=""width:500px;"">
                            <p style=""font-size:50px; font-weight:bold;""
                            >disgust</p>
                            <div style=""width:240px; margin: auto;"">
                                <img src=""images/map26_Greys_scaleDef_orientMir_180.png"" style= ""width:200px""alt=""img"">
                            </div>
                        </div>","-65","","0","","","","images/map26_Greys_scaleDef_orientMir_180.png","disgust","1","26","26","Greys","orientMir","scaleDef","180","",""
"","","","","","html-slider-response","46","124526","0.0-42.0","p6j0wp7dy6","60","NaN","<div style=""width:500px;"">
                            <p style=""font-size:50px; font-weight:bold;""
                            >disgust</p>
                            <div style=""width:240px; margin: auto;"">
                                <img src=""images/map07_PuBuGn_scaleRev_orientMir_090.png"" style= ""width:200px""alt=""img"">
                            </div>
                        </div>","-145","","0","","","","images/map07_PuBuGn_scaleRev_orientMir_090.png","disgust","1","07","07","PuBuGn","orientMir","scaleRev","090","",""
"","","","","","html-slider-response","47","126472","0.0-43.0","p6j0wp7dy6","60","NaN","<div style=""width:500px;"">
                            <p style=""font-size:50px; font-weight:bold;""
                            >disgust</p>
                            <div style=""width:240px; margin: auto;"">
                                <img src=""images/map13_coolwarm_scaleRev_orientMir_090.png"" style= ""width:200px""alt=""img"">
                            </div>
                        </div>","88","","0","","","","images/map13_coolwarm_scaleRev_orientMir_090.png","disgust","1","13","13","coolwarm","orientMir","scaleRev","090","",""
"","","","","","html-slider-response","48","128226","0.0-44.0","p6j0wp7dy6","60","NaN","<div style=""width:500px;"">
                            <p style=""font-size:50px; font-weight:bold;""
                            >disgust</p>
                            <div style=""width:240px; margin: auto;"">
                                <img src=""images/map05_PuRd_scaleDef_orientDef_000.png"" style= ""width:200px""alt=""img"">
                            </div>
                        </div>","-176","","0","","","","images/map05_PuRd_scaleDef_orientDef_000.png","disgust","1","05","05","PuRd","orientDef","scaleDef","000","",""
"","","","","","html-slider-response","49","129459","0.0-45.0","p6j0wp7dy6","60","NaN","<div style=""width:500px;"">
                            <p style=""font-size:50px; font-weight:bold;""
                            >disgust</p>
                            <div style=""width:240px; margin: auto;"">
                                <img src=""images/map05_PuRd_scaleRev_orientDef_090.png"" style= ""width:200px""alt=""img"">
                            </div>
                        </div>","-174","","0","","","","images/map05_PuRd_scaleRev_orientDef_090.png","disgust","1","05","05","PuRd","orientDef","scaleRev","090","",""
"","","","","","html-slider-response","50","131072","0.0-46.0","p6j0wp7dy6","60","NaN","<div style=""width:500px;"">
                            <p style=""font-size:50px; font-weight:bold;""
                            >disgust</p>
                            <div style=""width:240px; margin: auto;"">
                                <img src=""images/map15_berlin_scaleRev_orientDef_270.png"" style= ""width:200px""alt=""img"">
                            </div>
                        </div>","69","","0","","","","images/map15_berlin_scaleRev_orientDef_270.png","disgust","1","15","15","berlin","orientDef","scaleRev","270","",""
"","","","","","html-slider-response","51","132355","0.0-47.0","p6j0wp7dy6","60","NaN","<div style=""width:500px;"">
                            <p style=""font-size:50px; font-weight:bold;""
                            >disgust</p>
                            <div style=""width:240px; margin: auto;"">
                                <img src=""images/map13_Spectral_scaleDef_orientDef_180.png"" style= ""width:200px""alt=""img"">
                            </div>
                        </div>","64","","0","","","","images/map13_Spectral_scaleDef_orientDef_180.png","disgust","1","13","13","Spectral","orientDef","scaleDef","180","",""
"","","","","","html-slider-response","52","134344","0.0-48.0","p6j0wp7dy6","60","NaN","<div style=""width:500px;"">
                            <p style=""font-size:50px; font-weight:bold;""
                            >disgust</p>
                            <div style=""width:240px; margin: auto;"">
                                <img src=""images/map23_viridis_scaleDef_orientMir_000.png"" style= ""width:200px""alt=""img"">
                            </div>
                        </div>","-107","","0","","","","images/map23_viridis_scaleDef_orientMir_000.png","disgust","1","23","23","viridis","orientMir","scaleDef","000","",""
"","","","","","html-slider-response","53","136276","0.0-49.0","p6j0wp7dy6","60","NaN","<div style=""width:500px;"">
                            <p style=""font-size:50px; font-weight:bold;""
                            >disgust</p>
                            <div style=""width:240px; margin: auto;"">
                                <img src=""images/map10_PRGn_scaleDef_orientMir_000.png"" style= ""width:200px""alt=""img"">
                            </div>
                        </div>","-86","","0","","","","images/map10_PRGn_scaleDef_orientMir_000.png","disgust","1","10","10","PRGn","orientMir","scaleDef","000","",""
"","","","","","html-slider-response","54","138038","0.0-50.0","p6j0wp7dy6","60","NaN","<div style=""width:500px;"">
                            <p style=""font-size:50px; font-weight:bold;""
                            >disgust</p>
                            <div style=""width:240px; margin: auto;"">
                                <img src=""images/map12_PuOr_scaleRev_orientDef_090.png"" style= ""width:200px""alt=""img"">
                            </div>
                        </div>","64","","0","","","","images/map12_PuOr_scaleRev_orientDef_090.png","disgust","1","12","12","PuOr","orientDef","scaleRev","090","",""
"","","","","","html-slider-response","55","139508","0.0-51.0","p6j0wp7dy6","60","NaN","<div style=""width:500px;"">
                            <p style=""font-size:50px; font-weight:bold;""
                            >disgust</p>
                            <div style=""width:240px; margin: auto;"">
                                <img src=""images/map02_Reds_scaleRev_orientDef_090.png"" style= ""width:200px""alt=""img"">
                            </div>
                        </div>","-76","","0","","","","images/map02_Reds_scaleRev_orientDef_090.png","disgust","1","02","02","Reds","orientDef","scaleRev","090","",""
"","","","","","html-slider-response","56","141144","0.0-52.0","p6j0wp7dy6","60","NaN","<div style=""width:500px;"">
                            <p style=""font-size:50px; font-weight:bold;""
                            >disgust</p>
                            <div style=""width:240px; margin: auto;"">
                                <img src=""images/map10_PRGn_scaleRev_orientMir_090.png"" style= ""width:200px""alt=""img"">
                            </div>
                        </div>","-99","","0","","","","images/map10_PRGn_scaleRev_orientMir_090.png","disgust","1","10","10","PRGn","orientMir","scaleRev","090","",""
"","","","","","html-slider-response","57","142575","0.0-53.0","p6j0wp7dy6","60","NaN","<div style=""width:500px;"">
                            <p style=""font-size:50px; font-weight:bold;""
                            >disgust</p>
                            <div style=""width:240px; margin: auto;"">
                                <img src=""images/map27_Greens_scaleRev_orientMir_090.png"" style= ""width:200px""alt=""img"">
                            </div>
                        </div>","-89","","0","","","","images/map27_Greens_scaleRev_orientMir_090.png","disgust","1","27","27","Greens","orientMir","scaleRev","090","",""
"","","","","","html-button-response","58","145681","0.0-54.0","p6j0wp7dy6","60","2602","<p>You are doing great!<br></br> You are halway done with the current block. When you are ready to continue, click the 'Continue' button.</p>","0","","","","","","","","","","","","","","","",""
"","","","","","html-slider-response","59","149738","0.0-55.0","p6j0wp7dy6","60","NaN","<div style=""width:500px;"">
                            <p style=""font-size:50px; font-weight:bold;""
                            >disgust</p>
                            <div style=""width:240px; margin: auto;"">
                                <img src=""images/map02_YlOrBr_scaleRev_orientDef_270.png"" style= ""width:200px""alt=""img"">
                            </div>
                        </div>","-109","","0","","","","images/map02_YlOrBr_scaleRev_orientDef_270.png","disgust","1","02","02","YlOrBr","orientDef","scaleRev","270","",""
"","","","","","html-slider-response","60","151221","0.0-56.0","p6j0wp7dy6","60","NaN","<div style=""width:500px;"">
                            <p style=""font-size:50px; font-weight:bold;""
                            >disgust</p>
                            <div style=""width:240px; margin: auto;"">
                                <img src=""images/map13_bwr_scaleDef_orientMir_180.png"" style= ""width:200px""alt=""img"">
                            </div>
                        </div>","-102","","0","","","","images/map13_bwr_scaleDef_orientMir_180.png","disgust","1","13","13","bwr","orientMir","scaleDef","180","",""
"","","","","","html-slider-response","61","153121","0.0-57.0","p6j0wp7dy6","60","NaN","<div style=""width:500px;"">
                            <p style=""font-size:50px; font-weight:bold;""
                            >disgust</p>
                            <div style=""width:240px; margin: auto;"">
                                <img src=""images/map02_YlOrRd_scaleDef_orientMir_000.png"" style= ""width:200px""alt=""img"">
                            </div>
                        </div>","-62","","0","","","","images/map02_YlOrRd_scaleDef_orientMir_000.png","disgust","1","02","02","YlOrRd","orientMir","scaleDef","000","",""
"","","","","","html-slider-response","62","154743","0.0-58.0","p6j0wp7dy6","60","NaN","<div style=""width:500px;"">
                            <p style=""font-size:50px; font-weight:bold;""
                            >disgust</p>
                            <div style=""width:240px; margin: auto;"">
                                <img src=""images/map23_viridis_scaleRev_orientMir_090.png"" style= ""width:200px""alt=""img"">
                            </div>
                        </div>","77","","0","","","","images/map23_viridis_scaleRev_orientMir_090.png","disgust","1","23","23","viridis","orientMir","scaleRev","090","",""
"","","","","","html-slider-response","63","156441","0.0-59.0","p6j0wp7dy6","60","NaN","<div style=""width:500px;"">
                            <p style=""font-size:50px; font-weight:bold;""
                            >disgust</p>
                            <div style=""width:240px; margin: auto;"">
                                <img src=""images/map27_Purples_scaleDef_orientDef_000.png"" style= ""width:200px""alt=""img"">
                            </div>
                        </div>","56","","0","","","","images/map27_Purples_scaleDef_orientDef_000.png","disgust","1","27","27","Purples","orientDef","scaleDef","000","",""
"","","","","","html-slider-response","64","158038","0.0-60.0","p6j0wp7dy6","60","NaN","<div style=""width:500px;"">
                            <p style=""font-size:50px; font-weight:bold;""
                            >disgust</p>
                            <div style=""width:240px; margin: auto;"">
                                <img src=""images/map12_RdYlBu_scaleDef_orientMir_180.png"" style= ""width:200px""alt=""img"">
                            </div>
                        </div>","-100","","0","","","","images/map12_RdYlBu_scaleDef_orientMir_180.png","disgust","1","12","12","RdYlBu","orientMir","scaleDef","180","",""
"","","","","","html-slider-response","65","159338","0.0-61.0","p6j0wp7dy6","60","NaN","<div style=""width:500px;"">
                            <p style=""font-size:50px; font-weight:bold;""
                            >disgust</p>
                            <div style=""width:240px; margin: auto;"">
                                <img src=""images/map15_vanimo_scaleDef_orientMir_180.png"" style= ""width:200px""alt=""img"">
                            </div>
                        </div>","-94","","0","","","","images/map15_vanimo_scaleDef_orientMir_180.png","disgust","1","15","15","vanimo","orientMir","scaleDef","180","",""
"","","","","","html-slider-response","66","161443","0.0-62.0","p6j0wp7dy6","60","NaN","<div style=""width:500px;"">
                            <p style=""font-size:50px; font-weight:bold;""
                            >disgust</p>
                            <div style=""width:240px; margin: auto;"">
                                <img src=""images/map02_YlOrRd_scaleRev_orientMir_090.png"" style= ""width:200px""alt=""img"">
                            </div>
                        </div>","83","","0","","","","images/map02_YlOrRd_scaleRev_orientMir_090.png","disgust","1","02","02","YlOrRd","orientMir","scaleRev","090","",""
"","","","","","html-slider-response","67","163275","0.0-63.0","p6j0wp7dy6","60","NaN","<div style=""width:500px;"">
                            <p style=""font-size:50px; font-weight:bold;""
                            >disgust</p>
                            <div style=""width:240px; margin: auto;"">
                                <img src=""images/map10_YlGn_scaleDef_orientDef_000.png"" style= ""width:200px""alt=""img"">
                            </div>
                        </div>","-133","","0","","","","images/map10_YlGn_scaleDef_orientDef_000.png","disgust","1","10","10","YlGn","orientDef","scaleDef","000","",""
"","","","","","html-slider-response","68","164676","0.0-64.0","p6j0wp7dy6","60","NaN","<div style=""width:500px;"">
                            <p style=""font-size:50px; font-weight:bold;""
                            >disgust</p>
                            <div style=""width:240px; margin: auto;"">
                                <img src=""images/map07_BuGn_scaleDef_orientMir_180.png"" style= ""width:200px""alt=""img"">
                            </div>
                        </div>","-79","","0","","","","images/map07_BuGn_scaleDef_orientMir_180.png","disgust","1","07","07","BuGn","orientMir","scaleDef","180","",""
"","","","","","html-slider-response","69","166192","0.0-65.0","p6j0wp7dy6","60","NaN","<div style=""width:500px;"">
                            <p style=""font-size:50px; font-weight:bold;""
                            >disgust</p>
                            <div style=""width:240px; margin: auto;"">
                                <img src=""images/map23_gist_earth_scaleRev_orientDef_090.png"" style= ""width:200px""alt=""img"">
                            </div>
                        </div>","-132","","0","","","","images/map23_gist_earth_scaleRev_orientDef_090.png","disgust","1","23","23","gist","scaleRev","earth","orientDef","",""
"","","","","","html-slider-response","70","167860","0.0-66.0","p6j0wp7dy6","60","NaN","<div style=""width:500px;"">
                            <p style=""font-size:50px; font-weight:bold;""
                            >disgust</p>
                            <div style=""width:240px; margin: auto;"">
                                <img src=""images/map15_berlin_scaleDef_orientDef_180.png"" style= ""width:200px""alt=""img"">
                            </div>
                        </div>","141","","0","","","","images/map15_berlin_scaleDef_orientDef_180.png","disgust","1","15","15","berlin","orientDef","scaleDef","180","",""
"","","","","","html-slider-response","71","169021","0.0-67.0","p6j0wp7dy6","60","NaN","<div style=""width:500px;"">
                            <p style=""font-size:50px; font-weight:bold;""
                            >disgust</p>
                            <div style=""width:240px; margin: auto;"">
                                <img src=""images/map23_turbo_scaleDef_orientDef_180.png"" style= ""width:200px""alt=""img"">
                            </div>
                        </div>","141","","0","","","","images/map23_turbo_scaleDef_orientDef_180.png","disgust","1","23","23","turbo","orientDef","scaleDef","180","",""
"","","","","","html-slider-response","72","170388","0.0-68.0","p6j0wp7dy6","60","NaN","<div style=""width:500px;"">
                            <p style=""font-size:50px; font-weight:bold;""
                            >disgust</p>
                            <div style=""width:240px; margin: auto;"">
                                <img src=""images/map15_managua_scaleDef_orientMir_000.png"" style= ""width:200px""alt=""img"">
                            </div>
                        </div>","141","","0","","","","images/map15_managua_scaleDef_orientMir_000.png","disgust","1","15","15","managua","orientMir","scaleDef","000","",""
"","","","","","html-slider-response","73","172094","0.0-69.0","p6j0wp7dy6","60","NaN","<div style=""width:500px;"">
                            <p style=""font-size:50px; font-weight:bold;""
                            >disgust</p>
                            <div style=""width:240px; margin: auto;"">
                                <img src=""images/map10_BrBG_scaleDef_orientMir_180.png"" style= ""width:200px""alt=""img"">
                            </div>
                        </div>","-82","","0","","","","images/map10_BrBG_scaleDef_orientMir_180.png","disgust","1","10","10","BrBG","orientMir","scaleDef","180","",""
"","","","","","html-slider-response","74","173958","0.0-70.0","p6j0wp7dy6","60","NaN","<div style=""width:500px;"">
                            <p style=""font-size:50px; font-weight:bold;""
                            >disgust</p>
                            <div style=""width:240px; margin: auto;"">
                                <img src=""images/map12_RdBu_scaleDef_orientMir_000.png"" style= ""width:200px""alt=""img"">
                            </div>
                        </div>","37","","0","","","","images/map12_RdBu_scaleDef_orientMir_000.png","disgust","1","12","12","RdBu","orientMir","scaleDef","000","",""
"","","","","","html-slider-response","75","175675","0.0-71.0","p6j0wp7dy6","60","NaN","<div style=""width:500px;"">
                            <p style=""font-size:50px; font-weight:bold;""
                            >disgust</p>
                            <div style=""width:240px; margin: auto;"">
                                <img src=""images/map23_plasma_scaleRev_orientMir_270.png"" style= ""width:200px""alt=""img"">
                            </div>
                        </div>","115","","0","","","","images/map23_plasma_scaleRev_orientMir_270.png","disgust","1","23","23","plasma","orientMir","scaleRev","270","",""
"","","","","","html-slider-response","76","177293","0.0-72.0","p6j0wp7dy6","60","NaN","<div style=""width:500px;"">
                            <p style=""font-size:50px; font-weight:bold;""
                            >disgust</p>
                            <div style=""width:240px; margin: auto;"">
                                <img src=""images/map12_RdGy_scaleRev_orientDef_270.png"" style= ""width:200px""alt=""img"">
                            </div>
                        </div>","68","","0","","","","images/map12_RdGy_scaleRev_orientDef_270.png","disgust","1","12","12","RdGy","orientDef","scaleRev","270","",""
"","","","","","html-slider-response","77","178755","0.0-73.0","p6j0wp7dy6","60","NaN","<div style=""width:500px;"">
                            <p style=""font-size:50px; font-weight:bold;""
                            >disgust</p>
                            <div style=""width:240px; margin: auto;"">
                                <img src=""images/map26_magma_scaleRev_orientDef_270.png"" style= ""width:200px""alt=""img"">
                            </div>
                        </div>","139","","0","","","","images/map26_magma_scaleRev_orientDef_270.png","disgust","1","26","26","magma","orientDef","scaleRev","270","",""
"","","","","","html-slider-response","78","180442","0.0-74.0","p6j0wp7dy6","60","NaN","<div style=""width:500px;"">
                            <p style=""font-size:50px; font-weight:bold;""
                            >disgust</p>
                            <div style=""width:240px; margin: auto;"">
                                <img src=""images/map07_PuBu_scaleDef_orientDef_000.png"" style= ""width:200px""alt=""img"">
                            </div>
                        </div>","-154","","0","","","","images/map07_PuBu_scaleDef_orientDef_000.png","disgust","1","07","07","PuBu","orientDef","scaleDef","000","",""
"","","","","","html-slider-response","79","182138","0.0-75.0","p6j0wp7dy6","60","NaN","<div style=""width:500px;"">
                            <p style=""font-size:50px; font-weight:bold;""
                            >disgust</p>
                            <div style=""width:240px; margin: auto;"">
                                <img src=""images/map05_RdPu_scaleRev_orientDef_270.png"" style= ""width:200px""alt=""img"">
                            </div>
                        </div>","-172","","0","","","","images/map05_RdPu_scaleRev_orientDef_270.png","disgust","1","05","05","RdPu","orientDef","scaleRev","270","",""
"","","","","","html-slider-response","80","183954","0.0-76.0","p6j0wp7dy6","60","NaN","<div style=""width:500px;"">
                            <p style=""font-size:50px; font-weight:bold;""
                            >disgust</p>
                            <div style=""width:240px; margin: auto;"">
                                <img src=""images/map12_RdGy_scaleDef_orientDef_180.png"" style= ""width:200px""alt=""img"">
                            </div>
                        </div>","166","","0","","","","images/map12_RdGy_scaleDef_orientDef_180.png","disgust","1","12","12","RdGy","orientDef","scaleDef","180","",""
"","","","","","html-slider-response","81","185774","0.0-77.0","p6j0wp7dy6","60","NaN","<div style=""width:500px;"">
                            <p style=""font-size:50px; font-weight:bold;""
                            >disgust</p>
                            <div style=""width:240px; margin: auto;"">
                                <img src=""images/map27_Oranges_scaleDef_orientMir_180.png"" style= ""width:200px""alt=""img"">
                            </div>
                        </div>","-84","","0","","","","images/map27_Oranges_scaleDef_orientMir_180.png","disgust","1","27","27","Oranges","orientMir","scaleDef","180","",""
"","","","","","html-slider-response","82","187692","0.0-78.0","p6j0wp7dy6","60","NaN","<div style=""width:500px;"">
                            <p style=""font-size:50px; font-weight:bold;""
                            >disgust</p>
                            <div style=""width:240px; margin: auto;"">
                                <img src=""images/map15_seismic_scaleDef_orientDef_000.png"" style= ""width:200px""alt=""img"">
                            </div>
                        </div>","-66","","0","","","","images/map15_seismic_scaleDef_orientDef_000.png","disgust","1","15","15","seismic","orientDef","scaleDef","000","",""
"","","","","","html-slider-response","83","189173","0.0-79.0","p6j0wp7dy6","60","NaN","<div style=""width:500px;"">
                            <p style=""font-size:50px; font-weight:bold;""
                            >disgust</p>
                            <div style=""width:240px; margin: auto;"">
                                <img src=""images/map05_BuPu_scaleDef_orientMir_000.png"" style= ""width:200px""alt=""img"">
                            </div>
                        </div>","-118","","0","","","","images/map05_BuPu_scaleDef_orientMir_000.png","disgust","1","05","05","BuPu","orientMir","scaleDef","000","",""
"","","","","","html-slider-response","84","190737","0.0-80.0","p6j0wp7dy6","60","NaN","<div style=""width:500px;"">
                            <p style=""font-size:50px; font-weight:bold;""
                            >disgust</p>
                            <div style=""width:240px; margin: auto;"">
                                <img src=""images/map07_YlGnBu_scaleRev_orientDef_270.png"" style= ""width:200px""alt=""img"">
                            </div>
                        </div>","-134","","0","","","","images/map07_YlGnBu_scaleRev_orientDef_270.png","disgust","1","07","07","YlGnBu","orientDef","scaleRev","270","",""
"","","","","","html-slider-response","85","192237","0.0-81.0","p6j0wp7dy6","60","NaN","<div style=""width:500px;"">
                            <p style=""font-size:50px; font-weight:bold;""
                            >disgust</p>
                            <div style=""width:240px; margin: auto;"">
                                <img src=""images/map27_Purples_scaleRev_orientDef_090.png"" style= ""width:200px""alt=""img"">
                            </div>
                        </div>","-134","","0","","","","images/map27_Purples_scaleRev_orientDef_090.png","disgust","1","27","27","Purples","orientDef","scaleRev","090","",""
"","","","","","html-slider-response","86","193524","0.0-82.0","p6j0wp7dy6","60","NaN","<div style=""width:500px;"">
                            <p style=""font-size:50px; font-weight:bold;""
                            >disgust</p>
                            <div style=""width:240px; margin: auto;"">
                                <img src=""images/map27_Greens_scaleDef_orientMir_000.png"" style= ""width:200px""alt=""img"">
                            </div>
                        </div>","-134","","0","","","","images/map27_Greens_scaleDef_orientMir_000.png","disgust","1","27","27","Greens","orientMir","scaleDef","000","",""
"","","","","","html-slider-response","87","194841","0.0-83.0","p6j0wp7dy6","60","NaN","<div style=""width:500px;"">
                            <p style=""font-size:50px; font-weight:bold;""
                            >disgust</p>
                            <div style=""width:240px; margin: auto;"">
                                <img src=""images/map02_OrRd_scaleDef_orientMir_180.png"" style= ""width:200px""alt=""img"">
                            </div>
                        </div>","-149","","0","","","","images/map02_OrRd_scaleDef_orientMir_180.png","disgust","1","02","02","OrRd","orientMir","scaleDef","180","",""
"","","","","","html-slider-response","88","196041","0.0-84.0","p6j0wp7dy6","60","NaN","<div style=""width:500px;"">
                            <p style=""font-size:50px; font-weight:bold;""
                            >disgust</p>
                            <div style=""width:240px; margin: auto;"">
                                <img src=""images/map02_Reds_scaleDef_orientDef_000.png"" style= ""width:200px""alt=""img"">
                            </div>
                        </div>","-98","","0","","","","images/map02_Reds_scaleDef_orientDef_000.png","disgust","1","02","02","Reds","orientDef","scaleDef","000","",""
"","","","","","html-slider-response","89","197738","0.0-85.0","p6j0wp7dy6","60","NaN","<div style=""width:500px;"">
                            <p style=""font-size:50px; font-weight:bold;""
                            >disgust</p>
                            <div style=""width:240px; margin: auto;"">
                                <img src=""images/map12_RdBu_scaleRev_orientMir_090.png"" style= ""width:200px""alt=""img"">
                            </div>
                        </div>","76","","0","","","","images/map12_RdBu_scaleRev_orientMir_090.png","disgust","1","12","12","RdBu","orientMir","scaleRev","090","",""
"","","","","","html-slider-response","90","199155","0.0-86.0","p6j0wp7dy6","60","NaN","<div style=""width:500px;"">
                            <p style=""font-size:50px; font-weight:bold;""
                            >disgust</p>
                            <div style=""width:240px; margin: auto;"">
                                <img src=""images/map26_magma_scaleDef_orientDef_180.png"" style= ""width:200px""alt=""img"">
                            </div>
                        </div>","103","","0","","","","images/map26_magma_scaleDef_orientDef_180.png","disgust","1","26","26","magma","orientDef","scaleDef","180","",""
"","","","","","html-slider-response","91","200508","0.0-87.0","p6j0wp7dy6","60","NaN","<div style=""width:500px;"">
                            <p style=""font-size:50px; font-weight:bold;""
                            >disgust</p>
                            <div style=""width:240px; margin: auto;"">
                                <img src=""images/map15_seismic_scaleRev_orientDef_090.png"" style= ""width:200px""alt=""img"">
                            </div>
                        </div>","121","","0","","","","images/map15_seismic_scaleRev_orientDef_090.png","disgust","1","15","15","seismic","orientDef","scaleRev","090","",""
"","","","","","html-slider-response","92","202274","0.0-88.0","p6j0wp7dy6","60","NaN","<div style=""width:500px;"">
                            <p style=""font-size:50px; font-weight:bold;""
                            >disgust</p>
                            <div style=""width:240px; margin: auto;"">
                                <img src=""images/map05_RdPu_scaleDef_orientDef_180.png"" style= ""width:200px""alt=""img"">
                            </div>
                        </div>","-102","","0","","","","images/map05_RdPu_scaleDef_orientDef_180.png","disgust","1","05","05","RdPu","orientDef","scaleDef","180","",""
"","","","","","html-slider-response","93","203742","0.0-89.0","p6j0wp7dy6","60","NaN","<div style=""width:500px;"">
                            <p style=""font-size:50px; font-weight:bold;""
                            >disgust</p>
                            <div style=""width:240px; margin: auto;"">
                                <img src=""images/map07_YlGnBu_scaleDef_orientDef_180.png"" style= ""width:200px""alt=""img"">
                            </div>
                        </div>","-122","","0","","","","images/map07_YlGnBu_scaleDef_orientDef_180.png","disgust","1","07","07","YlGnBu","orientDef","scaleDef","180","",""
"","","","","","html-slider-response","94","205307","0.0-90.0","p6j0wp7dy6","60","NaN","<div style=""width:500px;"">
                            <p style=""font-size:50px; font-weight:bold;""
                            >disgust</p>
                            <div style=""width:240px; margin: auto;"">
                                <img src=""images/map02_YlOrBr_scaleDef_orientDef_180.png"" style= ""width:200px""alt=""img"">
                            </div>
                        </div>","-134","","0","","","","images/map02_YlOrBr_scaleDef_orientDef_180.png","disgust","1","02","02","YlOrBr","orientDef","scaleDef","180","",""
"","","","","","html-slider-response","95","207009","0.0-91.0","p6j0wp7dy6","60","NaN","<div style=""width:500px;"">
                            <p style=""font-size:50px; font-weight:bold;""
                            >disgust</p>
                            <div style=""width:240px; margin: auto;"">
                                <img src=""images/map27_Oranges_scaleRev_orientMir_270.png"" style= ""width:200px""alt=""img"">
                            </div>
                        </div>","-116","","0","","","","images/map27_Oranges_scaleRev_orientMir_270.png","disgust","1","27","27","Oranges","orientMir","scaleRev","270","",""
"","","","","","html-slider-response","96","208222","0.0-92.0","p6j0wp7dy6","60","NaN","<div style=""width:500px;"">
                            <p style=""font-size:50px; font-weight:bold;""
                            >disgust</p>
                            <div style=""width:240px; margin: auto;"">
                                <img src=""images/map02_OrRd_scaleRev_orientMir_270.png"" style= ""width:200px""alt=""img"">
                            </div>
                        </div>","-116","","0","","","","images/map02_OrRd_scaleRev_orientMir_270.png","disgust","1","02","02","OrRd","orientMir","scaleRev","270","",""
"","","","","","html-slider-response","97","212355","0.0-93.0","p6j0wp7dy6","60","NaN","<div style=""width:500px;"">
                            <p style=""font-size:50px; font-weight:bold;""
                            >disgust</p>
                            <div style=""width:240px; margin: auto;"">
                                <img src=""images/map26_inferno_scaleRev_orientDef_090.png"" style= ""width:200px""alt=""img"">
                            </div>
                        </div>","-116","","0","","","","images/map26_inferno_scaleRev_orientDef_090.png","disgust","1","26","26","inferno","orientDef","scaleRev","090","",""
"","","","","","html-slider-response","98","213908","0.0-94.0","p6j0wp7dy6","60","NaN","<div style=""width:500px;"">
                            <p style=""font-size:50px; font-weight:bold;""
                            >disgust</p>
                            <div style=""width:240px; margin: auto;"">
                                <img src=""images/map10_PiYG_scaleDef_orientDef_180.png"" style= ""width:200px""alt=""img"">
                            </div>
                        </div>","-116","","0","","","","images/map10_PiYG_scaleDef_orientDef_180.png","disgust","1","10","10","PiYG","orientDef","scaleDef","180","",""
"","","","","","html-button-response","99","217264","0.0-95.0","p6j0wp7dy6","60","2854","<p>Great Job! You've finished block 1.<br></br> You have 4 block(s) left to go.<br></br></p>","0","","","","","","","","","","","","","","","",""
"","","","","","html-button-response","100","218682","0.0-96.0","p6j0wp7dy6","60","1417","<p>In this block of trials, you will be asked to rate how much you associate each map with:</p > <p style = 'font-size:150%; font-weight: bold'>happy</p><br></br>","0","","","","","","","","","","","","","","","",""
"","","","","","html-slider-response","101","220743","0.0-97.0","p6j0wp7dy6","60","NaN","<div style=""width:500px;"">
                            <p style=""font-size:50px; font-weight:bold;""
                            >happy</p>
                            <div style=""width:240px; margin: auto;"">
                                <img src=""images/map13_coolwarm_scaleRev_orientMir_090.png"" style= ""width:200px""alt=""img"">
                            </div>
                        </div>","-90","","0","","","","images/map13_coolwarm_scaleRev_orientMir_090.png","happy","1","13","13","coolwarm","orientMir","scaleRev","090","",""
"","","","","","html-slider-response","102","222455","0.0-98.0","p6j0wp7dy6","60","NaN","<div style=""width:500px;"">
                            <p style=""font-size:50px; font-weight:bold;""
                            >happy</p>
                            <div style=""width:240px; margin: auto;"">
                                <img src=""images/map02_OrRd_scaleDef_orientMir_180.png"" style= ""width:200px""alt=""img"">
                            </div>
                        </div>","-118","","0","","","","images/map02_OrRd_scaleDef_orientMir_180.png","happy","1","02","02","OrRd","orientMir","scaleDef","180","",""
"","","","","","html-slider-response","103","223788","0.0-99.0","p6j0wp7dy6","60","NaN","<div style=""width:500px;"">
                            <p style=""font-size:50px; font-weight:bold;""
                            >happy</p>
                            <div style=""width:240px; margin: auto;"">
                                <img src=""images/map12_RdYlBu_scaleRev_orientMir_270.png"" style= ""width:200px""alt=""img"">
                            </div>
                        </div>","-110","","0","","","","images/map12_RdYlBu_scaleRev_orientMir_270.png","happy","1","12","12","RdYlBu","orientMir","scaleRev","270","",""
"","","","","","html-slider-response","104","225060","0.0-100.0","p6j0wp7dy6","60","NaN","<div style=""width:500px;"">
                            <p style=""font-size:50px; font-weight:bold;""
                            >happy</p>
                            <div style=""width:240px; margin: auto;"">
                                <img src=""images/map02_Reds_scaleRev_orientDef_090.png"" style= ""width:200px""alt=""img"">
                            </div>
                        </div>","-110","","0","","","","images/map02_Reds_scaleRev_orientDef_090.png","happy","1","02","02","Reds","orientDef","scaleRev","090","",""
"","","","","","html-slider-response","105","226539","0.0-101.0","p6j0wp7dy6","60","NaN","<div style=""width:500px;"">
                            <p style=""font-size:50px; font-weight:bold;""
                            >happy</p>
                            <div style=""width:240px; margin: auto;"">
                                <img src=""images/map27_Blues_scaleRev_orientDef_270.png"" style= ""width:200px""alt=""img"">
                            </div>
                        </div>","-110","","0","","","","images/map27_Blues_scaleRev_orientDef_270.png","happy","1","27","27","Blues","orientDef","scaleRev","270","",""
"","","","","","html-slider-response","106","227972","0.0-102.0","p6j0wp7dy6","60","NaN","<div style=""width:500px;"">
                            <p style=""font-size:50px; font-weight:bold;""
                            >happy</p>
                            <div style=""width:240px; margin: auto;"">
                                <img src=""images/map15_seismic_scaleDef_orientDef_000.png"" style= ""width:200px""alt=""img"">
                            </div>
                        </div>","-126","","0","","","","images/map15_seismic_scaleDef_orientDef_000.png","happy","1","15","15","seismic","orientDef","scaleDef","000","",""
"","","","","","html-slider-response","107","230204","0.0-103.0","p6j0wp7dy6","60","NaN","<div style=""width:500px;"">
                            <p style=""font-size:50px; font-weight:bold;""
                            >happy</p>
                            <div style=""width:240px; margin: auto;"">
                                <img src=""images/map27_Greens_scaleDef_orientMir_000.png"" style= ""width:200px""alt=""img"">
                            </div>
                        </div>","58","","0","","","","images/map27_Greens_scaleDef_orientMir_000.png","happy","1","27","27","Greens","orientMir","scaleDef","000","",""
"","","","","","html-slider-response","108","231859","0.0-104.0","p6j0wp7dy6","60","NaN","<div style=""width:500px;"">
                            <p style=""font-size:50px; font-weight:bold;""
                            >happy</p>
                            <div style=""width:240px; margin: auto;"">
                                <img src=""images/map23_gist_earth_scaleRev_orientDef_090.png"" style= ""width:200px""alt=""img"">
                            </div>
                        </div>","-85","","0","","","","images/map23_gist_earth_scaleRev_orientDef_090.png","happy","1","23","23","gist","scaleRev","earth","orientDef","",""
"","","","","","html-slider-response","109","233242","0.0-105.0","p6j0wp7dy6","60","NaN","<div style=""width:500px;"">
                            <p style=""font-size:50px; font-weight:bold;""
                            >happy</p>
                            <div style=""width:240px; margin: auto;"">
                                <img src=""images/map13_coolwarm_scaleDef_orientMir_000.png"" style= ""width:200px""alt=""img"">
                            </div>
                        </div>","-53","","0","","","","images/map13_coolwarm_scaleDef_orientMir_000.png","happy","1","13","13","coolwarm","orientMir","scaleDef","000","",""
"","","","","","html-slider-response","110","234354","0.0-106.0","p6j0wp7dy6","60","NaN","<div style=""width:500px;"">
                            <p style=""font-size:50px; font-weight:bold;""
                            >happy</p>
                            <div style=""width:240px; margin: auto;"">
                                <img src=""images/map13_bwr_scaleRev_orientMir_270.png"" style= ""width:200px""alt=""img"">
                            </div>
                        </div>","-53","","0","","","","images/map13_bwr_scaleRev_orientMir_270.png","happy","1","13","13","bwr","orientMir","scaleRev","270","",""
"","","","","","html-slider-response","111","235688","0.0-107.0","p6j0wp7dy6","60","NaN","<div style=""width:500px;"">
                            <p style=""font-size:50px; font-weight:bold;""
                            >happy</p>
                            <div style=""width:240px; margin: auto;"">
                                <img src=""images/map13_RdYlGn_scaleRev_orientDef_090.png"" style= ""width:200px""alt=""img"">
                            </div>
                        </div>","-97","","0","","","","images/map13_RdYlGn_scaleRev_orientDef_090.png","happy","1","13","13","RdYlGn","orientDef","scaleRev","090","",""
"","","","","","html-slider-response","112","236841","0.0-108.0","p6j0wp7dy6","60","NaN","<div style=""width:500px;"">
                            <p style=""font-size:50px; font-weight:bold;""
                            >happy</p>
                            <div style=""width:240px; margin: auto;"">
                                <img src=""images/map13_bwr_scaleDef_orientMir_180.png"" style= ""width:200px""alt=""img"">
                            </div>
                        </div>","-97","","0","","","","images/map13_bwr_scaleDef_orientMir_180.png","happy","1","13","13","bwr","orientMir","scaleDef","180","",""
"","","","","","html-slider-response","113","237911","0.0-109.0","p6j0wp7dy6","60","NaN","<div style=""width:500px;"">
                            <p style=""font-size:50px; font-weight:bold;""
                            >happy</p>
                            <div style=""width:240px; margin: auto;"">
                                <img src=""images/map13_Spectral_scaleDef_orientDef_180.png"" style= ""width:200px""alt=""img"">
                            </div>
                        </div>","-97","","0","","","","images/map13_Spectral_scaleDef_orientDef_180.png","happy","1","13","13","Spectral","orientDef","scaleDef","180","",""
"","","","","","html-slider-response","114","238940","0.0-110.0","p6j0wp7dy6","60","NaN","<div style=""width:500px;"">
                            <p style=""font-size:50px; font-weight:bold;""
                            >happy</p>
                            <div style=""width:240px; margin: auto;"">
                                <img src=""images/map26_Greys_scaleDef_orientMir_180.png"" style= ""width:200px""alt=""img"">
                            </div>
                        </div>","-97","","0","","","","images/map26_Greys_scaleDef_orientMir_180.png","happy","1","26","26","Greys","orientMir","scaleDef","180","",""
"","","","","","html-slider-response","115","240525","0.0-111.0","p6j0wp7dy6","60","NaN","<div style=""width:500px;"">
                            <p style=""font-size:50px; font-weight:bold;""
                            >happy</p>
                            <div style=""width:240px; margin: auto;"">
                                <img src=""images/map26_cividis_scaleDef_orientMir_000.png"" style= ""width:200px""alt=""img"">
                            </div>
                        </div>","-170","","0","","","","images/map26_cividis_scaleDef_orientMir_000.png","happy","1","26","26","cividis","orientMir","scaleDef","000","",""
"","","","","","html-slider-response","116","242142","0.0-112.0","p6j0wp7dy6","60","NaN","<div style=""width:500px;"">
                            <p style=""font-size:50px; font-weight:bold;""
                            >happy</p>
                            <div style=""width:240px; margin: auto;"">
                                <img src=""images/map27_Greens_scaleRev_orientMir_090.png"" style= ""width:200px""alt=""img"">
                            </div>
                        </div>","-99","","0","","","","images/map27_Greens_scaleRev_orientMir_090.png","happy","1","27","27","Greens","orientMir","scaleRev","090","",""
"","","","","","html-slider-response","117","243492","0.0-113.0","p6j0wp7dy6","60","NaN","<div style=""width:500px;"">
                            <p style=""font-size:50px; font-weight:bold;""
                            >happy</p>
                            <div style=""width:240px; margin: auto;"">
                                <img src=""images/map26_cividis_scaleRev_orientMir_090.png"" style= ""width:200px""alt=""img"">
                            </div>
                        </div>","-128","","0","","","","images/map26_cividis_scaleRev_orientMir_090.png","happy","1","26","26","cividis","orientMir","scaleRev","090","",""
"","","","","","html-slider-response","118","244908","0.0-114.0","p6j0wp7dy6","60","NaN","<div style=""width:500px;"">
                            <p style=""font-size:50px; font-weight:bold;""
                            >happy</p>
                            <div style=""width:240px; margin: auto;"">
                                <img src=""images/map02_Reds_scaleDef_orientDef_000.png"" style= ""width:200px""alt=""img"">
                            </div>
                        </div>","-128","","0","","","","images/map02_Reds_scaleDef_orientDef_000.png","happy","1","02","02","Reds","orientDef","scaleDef","000","",""
"","","","","","html-slider-response","119","246888","0.0-115.0","p6j0wp7dy6","60","NaN","<div style=""width:500px;"">
                            <p style=""font-size:50px; font-weight:bold;""
                            >happy</p>
                            <div style=""width:240px; margin: auto;"">
                                <img src=""images/map07_YlGnBu_scaleRev_orientDef_270.png"" style= ""width:200px""alt=""img"">
                            </div>
                        </div>","123","","0","","","","images/map07_YlGnBu_scaleRev_orientDef_270.png","happy","1","07","07","YlGnBu","orientDef","scaleRev","270","",""
"","","","","","html-slider-response","120","248074","0.0-116.0","p6j0wp7dy6","60","NaN","<div style=""width:500px;"">
                            <p style=""font-size:50px; font-weight:bold;""
                            >happy</p>
                            <div style=""width:240px; margin: auto;"">
                                <img src=""images/map07_PuBu_scaleDef_orientDef_000.png"" style= ""width:200px""alt=""img"">
                            </div>
                        </div>","123","","0","","","","images/map07_PuBu_scaleDef_orientDef_000.png","happy","1","07","07","PuBu","orientDef","scaleDef","000","",""
"","","","","","html-slider-response","121","249121","0.0-117.0","p6j0wp7dy6","60","NaN","<div style=""width:500px;"">
                            <p style=""font-size:50px; font-weight:bold;""
                            >happy</p>
                            <div style=""width:240px; margin: auto;"">
                                <img src=""images/map07_PuBuGn_scaleDef_orientMir_000.png"" style= ""width:200px""alt=""img"">
                            </div>
                        </div>","123","","0","","","","images/map07_PuBuGn_scaleDef_orientMir_000.png","happy","1","07","07","PuBuGn","orientMir","scaleDef","000","",""
"","","","","","html-slider-response","122","250871","0.0-118.0","p6j0wp7dy6","60","NaN","<div style=""width:500px;"">
                            <p style=""font-size:50px; font-weight:bold;""
                            >happy</p>
                            <div style=""width:240px; margin: auto;"">
                                <img src=""images/map23_viridis_scaleDef_orientMir_000.png"" style= ""width:200px""alt=""img"">
                            </div>
                        </div>","69","","0","","","","images/map23_viridis_scaleDef_orientMir_000.png","happy","1","23","23","viridis","orientMir","scaleDef","000","",""
"","","","","","html-slider-response","123","252471","0.0-119.0","p6j0wp7dy6","60","NaN","<div style=""width:500px;"">
                            <p style=""font-size:50px; font-weight:bold;""
                            >happy</p>
                            <div style=""width:240px; margin: auto;"">
                                <img src=""images/map10_PRGn_scaleDef_orientMir_000.png"" style= ""width:200px""alt=""img"">
                            </div>
                        </div>","-31","","0","","","","images/map10_PRGn_scaleDef_orientMir_000.png","happy","1","10","10","PRGn","orientMir","scaleDef","000","",""
"","","","","","html-slider-response","124","253988","0.0-120.0","p6j0wp7dy6","60","NaN","<div style=""width:500px;"">
                            <p style=""font-size:50px; font-weight:bold;""
                            >happy</p>
                            <div style=""width:240px; margin: auto;"">
                                <img src=""images/map10_YlGn_scaleDef_orientDef_000.png"" style= ""width:200px""alt=""img"">
                            </div>
                        </div>","36","","0","","","","images/map10_YlGn_scaleDef_orientDef_000.png","happy","1","10","10","YlGn","orientDef","scaleDef","000","",""
"","","","","","html-slider-response","125","255571","0.0-121.0","p6j0wp7dy6","60","NaN","<div style=""width:500px;"">
                            <p style=""font-size:50px; font-weight:bold;""
                            >happy</p>
                            <div style=""width:240px; margin: auto;"">
                                <img src=""images/map15_seismic_scaleRev_orientDef_090.png"" style= ""width:200px""alt=""img"">
                            </div>
                        </div>","-52","","0","","","","images/map15_seismic_scaleRev_orientDef_090.png","happy","1","15","15","seismic","orientDef","scaleRev","090","",""
"","","","","","html-slider-response","126","257143","0.0-122.0","p6j0wp7dy6","60","NaN","<div style=""width:500px;"">
                            <p style=""font-size:50px; font-weight:bold;""
                            >happy</p>
                            <div style=""width:240px; margin: auto;"">
                                <img src=""images/map05_PuRd_scaleDef_orientDef_000.png"" style= ""width:200px""alt=""img"">
                            </div>
                        </div>","55","","0","","","","images/map05_PuRd_scaleDef_orientDef_000.png","happy","1","05","05","PuRd","orientDef","scaleDef","000","",""
"","","","","","html-slider-response","127","258641","0.0-123.0","p6j0wp7dy6","60","NaN","<div style=""width:500px;"">
                            <p style=""font-size:50px; font-weight:bold;""
                            >happy</p>
                            <div style=""width:240px; margin: auto;"">
                                <img src=""images/map26_inferno_scaleDef_orientDef_000.png"" style= ""width:200px""alt=""img"">
                            </div>
                        </div>","-84","","0","","","","images/map26_inferno_scaleDef_orientDef_000.png","happy","1","26","26","inferno","orientDef","scaleDef","000","",""
"","","","","","html-slider-response","128","260137","0.0-124.0","p6j0wp7dy6","60","NaN","<div style=""width:500px;"">
                            <p style=""font-size:50px; font-weight:bold;""
                            >happy</p>
                            <div style=""width:240px; margin: auto;"">
                                <img src=""images/map15_berlin_scaleDef_orientDef_180.png"" style= ""width:200px""alt=""img"">
                            </div>
                        </div>","-124","","0","","","","images/map15_berlin_scaleDef_orientDef_180.png","happy","1","15","15","berlin","orientDef","scaleDef","180","",""
"","","","","","html-slider-response","129","261705","0.0-125.0","p6j0wp7dy6","60","NaN","<div style=""width:500px;"">
                            <p style=""font-size:50px; font-weight:bold;""
                            >happy</p>
                            <div style=""width:240px; margin: auto;"">
                                <img src=""images/map15_vanimo_scaleRev_orientMir_270.png"" style= ""width:200px""alt=""img"">
                            </div>
                        </div>","-142","","0","","","","images/map15_vanimo_scaleRev_orientMir_270.png","happy","1","15","15","vanimo","orientMir","scaleRev","270","",""
"","","","","","html-slider-response","130","263324","0.0-126.0","p6j0wp7dy6","60","NaN","<div style=""width:500px;"">
                            <p style=""font-size:50px; font-weight:bold;""
                            >happy</p>
                            <div style=""width:240px; margin: auto;"">
                                <img src=""images/map10_PiYG_scaleRev_orientDef_270.png"" style= ""width:200px""alt=""img"">
                            </div>
                        </div>","31","","0","","","","images/map10_PiYG_scaleRev_orientDef_270.png","happy","1","10","10","PiYG","orientDef","scaleRev","270","",""
"","","","","","html-slider-response","131","264776","0.0-127.0","p6j0wp7dy6","60","NaN","<div style=""width:500px;"">
                            <p style=""font-size:50px; font-weight:bold;""
                            >happy</p>
                            <div style=""width:240px; margin: auto;"">
                                <img src=""images/map26_magma_scaleRev_orientDef_270.png"" style= ""width:200px""alt=""img"">
                            </div>
                        </div>","-90","","0","","","","images/map26_magma_scaleRev_orientDef_270.png","happy","1","26","26","magma","orientDef","scaleRev","270","",""
"","","","","","html-slider-response","132","266156","0.0-128.0","p6j0wp7dy6","60","NaN","<div style=""width:500px;"">
                            <p style=""font-size:50px; font-weight:bold;""
                            >happy</p>
                            <div style=""width:240px; margin: auto;"">
                                <img src=""images/map23_turbo_scaleDef_orientDef_180.png"" style= ""width:200px""alt=""img"">
                            </div>
                        </div>","-117","","0","","","","images/map23_turbo_scaleDef_orientDef_180.png","happy","1","23","23","turbo","orientDef","scaleDef","180","",""
"","","","","","html-slider-response","133","267756","0.0-129.0","p6j0wp7dy6","60","NaN","<div style=""width:500px;"">
                            <p style=""font-size:50px; font-weight:bold;""
                            >happy</p>
                            <div style=""width:240px; margin: auto;"">
                                <img src=""images/map07_BuGn_scaleDef_orientMir_180.png"" style= ""width:200px""alt=""img"">
                            </div>
                        </div>","144","","0","","","","images/map07_BuGn_scaleDef_orientMir_180.png","happy","1","07","07","BuGn","orientMir","scaleDef","180","",""
"","","","","","html-slider-response","134","269642","0.0-130.0","p6j0wp7dy6","60","NaN","<div style=""width:500px;"">
                            <p style=""font-size:50px; font-weight:bold;""
                            >happy</p>
                            <div style=""width:240px; margin: auto;"">
                                <img src=""images/map26_Greys_scaleRev_orientMir_270.png"" style= ""width:200px""alt=""img"">
                            </div>
                        </div>","-158","","0","","","","images/map26_Greys_scaleRev_orientMir_270.png","happy","1","26","26","Greys","orientMir","scaleRev","270","",""
"","","","","","html-slider-response","135","271975","0.0-131.0","p6j0wp7dy6","60","NaN","<div style=""width:500px;"">
                            <p style=""font-size:50px; font-weight:bold;""
                            >happy</p>
                            <div style=""width:240px; margin: auto;"">
                                <img src=""images/map27_Purples_scaleRev_orientDef_090.png"" style= ""width:200px""alt=""img"">
                            </div>
                        </div>","-38","","0","","","","images/map27_Purples_scaleRev_orientDef_090.png","happy","1","27","27","Purples","orientDef","scaleRev","090","",""
"","","","","","html-slider-response","136","273241","0.0-132.0","p6j0wp7dy6","60","NaN","<div style=""width:500px;"">
                            <p style=""font-size:50px; font-weight:bold;""
                            >happy</p>
                            <div style=""width:240px; margin: auto;"">
                                <img src=""images/map15_managua_scaleDef_orientMir_000.png"" style= ""width:200px""alt=""img"">
                            </div>
                        </div>","-102","","0","","","","images/map15_managua_scaleDef_orientMir_000.png","happy","1","15","15","managua","orientMir","scaleDef","000","",""
"","","","","","html-slider-response","137","274687","0.0-133.0","p6j0wp7dy6","60","NaN","<div style=""width:500px;"">
                            <p style=""font-size:50px; font-weight:bold;""
                            >happy</p>
                            <div style=""width:240px; margin: auto;"">
                                <img src=""images/map12_PuOr_scaleRev_orientDef_090.png"" style= ""width:200px""alt=""img"">
                            </div>
                        </div>","-109","","0","","","","images/map12_PuOr_scaleRev_orientDef_090.png","happy","1","12","12","PuOr","orientDef","scaleRev","090","",""
"","","","","","html-slider-response","138","276387","0.0-134.0","p6j0wp7dy6","60","NaN","<div style=""width:500px;"">
                            <p style=""font-size:50px; font-weight:bold;""
                            >happy</p>
                            <div style=""width:240px; margin: auto;"">
                                <img src=""images/map05_PuRd_scaleRev_orientDef_090.png"" style= ""width:200px""alt=""img"">
                            </div>
                        </div>","129","","0","","","","images/map05_PuRd_scaleRev_orientDef_090.png","happy","1","05","05","PuRd","orientDef","scaleRev","090","",""
"","","","","","html-slider-response","139","277823","0.0-135.0","p6j0wp7dy6","60","NaN","<div style=""width:500px;"">
                            <p style=""font-size:50px; font-weight:bold;""
                            >happy</p>
                            <div style=""width:240px; margin: auto;"">
                                <img src=""images/map05_GnBu_scaleDef_orientMir_180.png"" style= ""width:200px""alt=""img"">
                            </div>
                        </div>","99","","0","","","","images/map05_GnBu_scaleDef_orientMir_180.png","happy","1","05","05","GnBu","orientMir","scaleDef","180","",""
"","","","","","html-slider-response","140","279354","0.0-136.0","p6j0wp7dy6","60","NaN","<div style=""width:500px;"">
                            <p style=""font-size:50px; font-weight:bold;""
                            >happy</p>
                            <div style=""width:240px; margin: auto;"">
                                <img src=""images/map12_PuOr_scaleDef_orientDef_000.png"" style= ""width:200px""alt=""img"">
                            </div>
                        </div>","-48","","0","","","","images/map12_PuOr_scaleDef_orientDef_000.png","happy","1","12","12","PuOr","orientDef","scaleDef","000","",""
"","","","","","html-button-response","141","281199","0.0-137.0","p6j0wp7dy6","60","1342","<p>You are doing great!<br></br> You are halway done with the current block. When you are ready to continue, click the 'Continue' button.</p>","0","","","","","","","","","","","","","","","",""
"","","","","","html-slider-response","142","282454","0.0-138.0","p6j0wp7dy6","60","NaN","<div style=""width:500px;"">
                            <p style=""font-size:50px; font-weight:bold;""
                            >happy</p>
                            <div style=""width:240px; margin: auto;"">
                                <img src=""images/map27_Oranges_scaleRev_orientMir_270.png"" style= ""width:200px""alt=""img"">
                            </div>
                        </div>","-40","","0","","","","images/map27_Oranges_scaleRev_orientMir_270.png","happy","1","27","27","Oranges","orientMir","scaleRev","270","",""
"","","","","","html-slider-response","143","283690","0.0-139.0","p6j0wp7dy6","60","NaN","<div style=""width:500px;"">
                            <p style=""font-size:50px; font-weight:bold;""
                            >happy</p>
                            <div style=""width:240px; margin: auto;"">
                                <img src=""images/map13_Spectral_scaleRev_orientDef_270.png"" style= ""width:200px""alt=""img"">
                            </div>
                        </div>","-86","","0","","","","images/map13_Spectral_scaleRev_orientDef_270.png","happy","1","13","13","Spectral","orientDef","scaleRev","270","",""
"","","","","","html-slider-response","144","284938","0.0-140.0","p6j0wp7dy6","60","NaN","<div style=""width:500px;"">
                            <p style=""font-size:50px; font-weight:bold;""
                            >happy</p>
                            <div style=""width:240px; margin: auto;"">
                                <img src=""images/map23_plasma_scaleRev_orientMir_270.png"" style= ""width:200px""alt=""img"">
                            </div>
                        </div>","-105","","0","","","","images/map23_plasma_scaleRev_orientMir_270.png","happy","1","23","23","plasma","orientMir","scaleRev","270","",""
"","","","","","html-slider-response","145","286188","0.0-141.0","p6j0wp7dy6","60","NaN","<div style=""width:500px;"">
                            <p style=""font-size:50px; font-weight:bold;""
                            >happy</p>
                            <div style=""width:240px; margin: auto;"">
                                <img src=""images/map12_RdGy_scaleDef_orientDef_180.png"" style= ""width:200px""alt=""img"">
                            </div>
                        </div>","-130","","0","","","","images/map12_RdGy_scaleDef_orientDef_180.png","happy","1","12","12","RdGy","orientDef","scaleDef","180","",""
"","","","","","html-slider-response","146","287875","0.0-142.0","p6j0wp7dy6","60","NaN","<div style=""width:500px;"">
                            <p style=""font-size:50px; font-weight:bold;""
                            >happy</p>
                            <div style=""width:240px; margin: auto;"">
                                <img src=""images/map05_BuPu_scaleDef_orientMir_000.png"" style= ""width:200px""alt=""img"">
                            </div>
                        </div>","63","","0","","","","images/map05_BuPu_scaleDef_orientMir_000.png","happy","1","05","05","BuPu","orientMir","scaleDef","000","",""
"","","","","","html-slider-response","147","289505","0.0-143.0","p6j0wp7dy6","60","NaN","<div style=""width:500px;"">
                            <p style=""font-size:50px; font-weight:bold;""
                            >happy</p>
                            <div style=""width:240px; margin: auto;"">
                                <img src=""images/map23_turbo_scaleRev_orientDef_270.png"" style= ""width:200px""alt=""img"">
                            </div>
                        </div>","-139","","0","","","","images/map23_turbo_scaleRev_orientDef_270.png","happy","1","23","23","turbo","orientDef","scaleRev","270","",""
"","","","","","html-slider-response","148","290887","0.0-144.0","p6j0wp7dy6","60","NaN","<div style=""width:500px;"">
                            <p style=""font-size:50px; font-weight:bold;""
                            >happy</p>
                            <div style=""width:240px; margin: auto;"">
                                <img src=""images/map10_PiYG_scaleDef_orientDef_180.png"" style= ""width:200px""alt=""img"">
                            </div>
                        </div>","-118","","0","","","","images/map10_PiYG_scaleDef_orientDef_180.png","happy","1","10","10","PiYG","orientDef","scaleDef","180","",""
"","","","","","html-slider-response","149","292587","0.0-145.0","p6j0wp7dy6","60","NaN","<div style=""width:500px;"">
                            <p style=""font-size:50px; font-weight:bold;""
                            >happy</p>
                            <div style=""width:240px; margin: auto;"">
                                <img src=""images/map26_inferno_scaleRev_orientDef_090.png"" style= ""width:200px""alt=""img"">
                            </div>
                        </div>","-130","","0","","","","images/map26_inferno_scaleRev_orientDef_090.png","happy","1","26","26","inferno","orientDef","scaleRev","090","",""
"","","","","","html-slider-response","150","293704","0.0-146.0","p6j0wp7dy6","60","NaN","<div style=""width:500px;"">
                            <p style=""font-size:50px; font-weight:bold;""
                            >happy</p>
                            <div style=""width:240px; margin: auto;"">
                                <img src=""images/map26_magma_scaleDef_orientDef_180.png"" style= ""width:200px""alt=""img"">
                            </div>
                        </div>","-130","","0","","","","images/map26_magma_scaleDef_orientDef_180.png","happy","1","26","26","magma","orientDef","scaleDef","180","",""
"","","","","","html-slider-response","151","294837","0.0-147.0","p6j0wp7dy6","60","NaN","<div style=""width:500px;"">
                            <p style=""font-size:50px; font-weight:bold;""
                            >happy</p>
                            <div style=""width:240px; margin: auto;"">
                                <img src=""images/map15_vanimo_scaleDef_orientMir_180.png"" style= ""width:200px""alt=""img"">
                            </div>
                        </div>","-130","","0","","","","images/map15_vanimo_scaleDef_orientMir_180.png","happy","1","15","15","vanimo","orientMir","scaleDef","180","",""
"","","","","","html-slider-response","152","296075","0.0-148.0","p6j0wp7dy6","60","NaN","<div style=""width:500px;"">
                            <p style=""font-size:50px; font-weight:bold;""
                            >happy</p>
                            <div style=""width:240px; margin: auto;"">
                                <img src=""images/map12_RdGy_scaleRev_orientDef_270.png"" style= ""width:200px""alt=""img"">
                            </div>
                        </div>","-130","","0","","","","images/map12_RdGy_scaleRev_orientDef_270.png","happy","1","12","12","RdGy","orientDef","scaleRev","270","",""
"","","","","","html-slider-response","153","298103","0.0-149.0","p6j0wp7dy6","60","NaN","<div style=""width:500px;"">
                            <p style=""font-size:50px; font-weight:bold;""
                            >happy</p>
                            <div style=""width:240px; margin: auto;"">
                                <img src=""images/map07_BuGn_scaleRev_orientMir_270.png"" style= ""width:200px""alt=""img"">
                            </div>
                        </div>","74","","0","","","","images/map07_BuGn_scaleRev_orientMir_270.png","happy","1","07","07","BuGn","orientMir","scaleRev","270","",""
"","","","","","html-slider-response","154","300243","0.0-150.0","p6j0wp7dy6","60","NaN","<div style=""width:500px;"">
                            <p style=""font-size:50px; font-weight:bold;""
                            >happy</p>
                            <div style=""width:240px; margin: auto;"">
                                <img src=""images/map02_OrRd_scaleRev_orientMir_270.png"" style= ""width:200px""alt=""img"">
                            </div>
                        </div>","-100","","0","","","","images/map02_OrRd_scaleRev_orientMir_270.png","happy","1","02","02","OrRd","orientMir","scaleRev","270","",""
"","","","","","html-slider-response","155","302087","0.0-151.0","p6j0wp7dy6","60","NaN","<div style=""width:500px;"">
                            <p style=""font-size:50px; font-weight:bold;""
                            >happy</p>
                            <div style=""width:240px; margin: auto;"">
                                <img src=""images/map05_BuPu_scaleRev_orientMir_090.png"" style= ""width:200px""alt=""img"">
                            </div>
                        </div>","-52","","0","","","","images/map05_BuPu_scaleRev_orientMir_090.png","happy","1","05","05","BuPu","orientMir","scaleRev","090","",""
"","","","","","html-slider-response","156","304023","0.0-152.0","p6j0wp7dy6","60","NaN","<div style=""width:500px;"">
                            <p style=""font-size:50px; font-weight:bold;""
                            >happy</p>
                            <div style=""width:240px; margin: auto;"">
                                <img src=""images/map23_gist_earth_scaleDef_orientDef_000.png"" style= ""width:200px""alt=""img"">
                            </div>
                        </div>","36","","0","","","","images/map23_gist_earth_scaleDef_orientDef_000.png","happy","1","23","23","gist","scaleDef","earth","orientDef","",""
"","","","","","html-slider-response","157","305557","0.0-153.0","p6j0wp7dy6","60","NaN","<div style=""width:500px;"">
                            <p style=""font-size:50px; font-weight:bold;""
                            >happy</p>
                            <div style=""width:240px; margin: auto;"">
                                <img src=""images/map05_RdPu_scaleDef_orientDef_180.png"" style= ""width:200px""alt=""img"">
