"success","timeout","failed_images","failed_audio","failed_video","trial_type","trial_index","time_elapsed","internal_node_id","subject_id","condition_num","rt","stimulus","response","question_order","slider_start","practiceTrial","practiceTrialNum","correct","image_path","concept","repetition","map_id","map_num","scale_name","orientation_code","mapping_code","rotation_code","ishihara_plate","correct_response"
"true","false","[]","[]","[]","preload","0","391","0.0-0.0","p9t38n9y78","43","","","","","","","","","","","","","","","","","","",""
"","","","","","html-button-response","1","2380","0.0-1.0","p9t38n9y78","43","1986","Welcome to our experiment!<p>At the bottom of this screen, you will see a button that says ""Begin Experiment"".<br>Please only click that button when you are ready to complete the 30 minute experiment in one sitting.</p><p> Once you click that button, it will not be possible to restart the experiment.","0","","","","","","","","","","","","","","","",""
"true","","","","","fullscreen","2","5600","0.0-2.0","p9t38n9y78","43","2213","","","","","","","","","","","","","","","","","",""
"","","","","","survey-multi-select","3","10630","0.0-3.0","p9t38n9y78","43","5026","","{""Consent"":[""<strong>I consent</strong>""]}","[0]","","","","","","","","","","","","","","",""
"","","","","","html-button-response","4","12734","0.0-4.0","p9t38n9y78","43","2102","Welcome! <p> This experiment involves two parts: demographic information, followed by the experimental task.<p> It will take about 30 minutes to complete both parts.","0","","","","","","","","","","","","","","","",""
"","","","","","survey-text","5","25901","0.0-5.0","p9t38n9y78","43","13147","","{""Age"":""19"",""Gender"":""Female"",""Race/ethnicity"":""Caucasian"",""Languages"":""English""}","","","","","","","","","","","","","","","",""
"","","","","","html-slider-response","6","28508","0.0-6.0","p9t38n9y78","43","2601","<div style='text-align:left; font-size:20px; line-height:25px; width: 1000px;'>
                                During this experiment you will be asked to rate how much you associate maps with                    different concepts.<br> Below, you can see some examples of the maps you will be asked to rate. Above the maps
                    is the list of concepts.<br>You will be asked                    to rate how much you associate each map with each concept on a scale from 'not at all' to 'very much' like the
                    one below. <br><br>
                    Now, please look at the list of concepts and maps. For each concept, think about the map you associate 'very
                    much' with the concept.<br>                     When you see that map during the experiment, please rate it near the 'very much' endpoint of the
                    scale.<br>Now, please think about which map you associate 'not at all'                     with each concept. When you see that map during the experiment, please rate it near the 'not at all' endpoint
                    of the scale.<br>
                    Please use the full range of the scale. That is, if a map is somewhat associated with the concept, you would
                    click partway between the middle point and right side of the scale.                    You will be asked to rate each map for a given concept before moving on to the next concept.<br>Press the
                    'Continue' button for instructions on how to use the slider.                    <br>
                </div>

                <div style=""width: 500px; margin: 0 auto;"">
                    <!-- Centered text paragraphs -->
                    <div style=""text-align: center; width: 500px;"">
                        <p style=""font-size:25px; line-height:15px;"">
                            disgust&nbsp;&nbsp;&nbsp;&nbsp;
                            angry&nbsp;&nbsp;&nbsp;&nbsp;
                            fearful&nbsp;&nbsp;&nbsp;&nbsp;
                            happy&nbsp;&nbsp;&nbsp;&nbsp;
                            sad
                        </p>
                        <!-- <p style=""font-size:20px; line-height:15px;"">angry</p>
                        <p style=""font-size:20px;line-height:15px;"">fearful</p>
                        <p style=""font-size:20px;line-height:15px;"">happy</p>
                        <p style=""font-size:20px;line-height:15px;"">sad</p> -->
                    </div>
            

                    <!-- Grid section -->
                   <div style=""display: flex; justify-content: center; padding-top: 15px;"">
                    <div style=""display: grid; grid-template-columns: repeat(10, 55px); grid-gap: 5px; width: auto;"">
                        <img src=""images/map26_OrRd_scaleRev_orientMir_180.png"" alt=""map"" style=""width: 100%;""><img src=""images/map15_magma_scaleDef_orientDef_090.png"" alt=""map"" style=""width: 100%;""><img src=""images/map27_GnBu_scaleDef_orientMir_090.png"" alt=""map"" style=""width: 100%;""><img src=""images/map05_PiYG_scaleRev_orientDef_180.png"" alt=""map"" style=""width: 100%;""><img src=""images/map23_Purples_scaleRev_orientDef_000.png"" alt=""map"" style=""width: 100%;""><img src=""images/map13_plasma_scaleDef_orientMir_090.png"" alt=""map"" style=""width: 100%;""><img src=""images/map02_BuGn_scaleDef_orientMir_090.png"" alt=""map"" style=""width: 100%;""><img src=""images/map27_PuRd_scaleRev_orientDef_000.png"" alt=""map"" style=""width: 100%;""><img src=""images/map05_YlGn_scaleRev_orientDef_000.png"" alt=""map"" style=""width: 100%;""><img src=""images/map15_Greys_scaleDef_orientMir_090.png"" alt=""map"" style=""width: 100%;""><img src=""images/map27_RdPu_scaleDef_orientDef_090.png"" alt=""map"" style=""width: 100%;""><img src=""images/map12_berlin_scaleRev_orientDef_180.png"" alt=""map"" style=""width: 100%;""><img src=""images/map26_YlOrRd_scaleDef_orientDef_270.png"" alt=""map"" style=""width: 100%;""><img src=""images/map12_seismic_scaleRev_orientDef_000.png"" alt=""map"" style=""width: 100%;""><img src=""images/map05_BrBG_scaleDef_orientMir_090.png"" alt=""map"" style=""width: 100%;""><img src=""images/map02_YlGnBu_scaleRev_orientDef_180.png"" alt=""map"" style=""width: 100%;""><img src=""images/map10_coolwarm_scaleRev_orientMir_000.png"" alt=""map"" style=""width: 100%;""><img src=""images/map12_vanimo_scaleDef_orientMir_090.png"" alt=""map"" style=""width: 100%;""><img src=""images/map10_Spectral_scaleRev_orientDef_180.png"" alt=""map"" style=""width: 100%;""><img src=""images/map26_YlOrBr_scaleRev_orientDef_180.png"" alt=""map"" style=""width: 100%;""><img src=""images/map23_Reds_scaleDef_orientMir_270.png"" alt=""map"" style=""width: 100%;""><img src=""images/map07_RdYlGn_scaleDef_orientMir_270.png"" alt=""map"" style=""width: 100%;""><img src=""images/map23_Greens_scaleDef_orientDef_270.png"" alt=""map"" style=""width: 100%;""><img src=""images/map23_Blues_scaleRev_orientDef_180.png"" alt=""map"" style=""width: 100%;""><img src=""images/map12_managua_scaleRev_orientMir_000.png"" alt=""map"" style=""width: 100%;""><img src=""images/map10_bwr_scaleRev_orientMir_180.png"" alt=""map"" style=""width: 100%;""><img src=""images/map02_PuBu_scaleRev_orientDef_000.png"" alt=""map"" style=""width: 100%;""><img src=""images/map07_RdGy_scaleRev_orientDef_180.png"" alt=""map"" style=""width: 100%;""><img src=""images/map13_viridis_scaleRev_orientMir_000.png"" alt=""map"" style=""width: 100%;""><img src=""images/map15_inferno_scaleRev_orientDef_000.png"" alt=""map"" style=""width: 100%;""><img src=""images/map07_RdBu_scaleRev_orientMir_000.png"" alt=""map"" style=""width: 100%;""><img src=""images/map27_BuPu_scaleDef_orientDef_270.png"" alt=""map"" style=""width: 100%;""><img src=""images/map07_PuOr_scaleRev_orientDef_000.png"" alt=""map"" style=""width: 100%;""><img src=""images/map13_gist_earth_scaleRev_orientDef_000.png"" alt=""map"" style=""width: 100%;""><img src=""images/map02_PuBuGn_scaleRev_orientMir_000.png"" alt=""map"" style=""width: 100%;""><img src=""images/map15_cividis_scaleRev_orientMir_000.png"" alt=""map"" style=""width: 100%;""><img src=""images/map05_PRGn_scaleDef_orientDef_270.png"" alt=""map"" style=""width: 100%;""><img src=""images/map23_Oranges_scaleDef_orientMir_090.png"" alt=""map"" style=""width: 100%;""><img src=""images/map13_turbo_scaleRev_orientDef_180.png"" alt=""map"" style=""width: 100%;""><img src=""images/map07_RdYlBu_scaleRev_orientMir_180.png"" alt=""map"" style=""width: 100%;"">
                    </div>
                </div>

                    <!-- Clear floats -->
                    <div style=""clear: both;""></div>
                </div>
                            ","null","","0","true","","","","","","","","","","","","",""
"","","","","","html-button-response","7","30533","0.0-7.0","p9t38n9y78","43","2024","<div style=""width:800px;""><p style=""text-align:left"">To move the slider, click and drag your cursor to the location of the scale where you would like to make your rating and then let go. When you let go of the slider, your response will be recorded and the next trial will begin. <br>
                    We are interested in your initial impressions of each map for the given concept, so please go with your first intuition. <br>
                    Before you begin the experiment, there will be four training trials for you to practice using the scale. <br>
                     When you are ready to start the training trials, please click ""Continue"".</p><br></div>","0","","","","","","","","","","","","","","","",""
"","","","","","html-slider-response","8","33761","0.0-8.0-0.0","p9t38n9y78","43","NaN","<div style=""width:500px;"">
                                    <p style=""font-size:25px;"">Please move the slider all the way to the <br> right endpoint of the scale</p>

                                    </div>
                                </div>","200","","0","true","0","true","","","","","","","","","","",""
"","","","","","html-button-response","9","35515","0.0-8.0-1.0","p9t38n9y78","43","1242","<p align='center'><b>Good job!</b> Click on 'Continue' to proceed.</p>","0","","","","","","","","","","","","","","","",""
"","","","","","html-slider-response","10","36830","0.0-9.0-0.0","p9t38n9y78","43","NaN","<div style=""width:500px;"">
                                    <p style=""font-size:25px;"">Please move the slider all the way to the <br> left endpoint of the scale</p>

                                    </div>
                                </div>","-200","","0","true","1","true","","","","","","","","","","",""
"","","","","","html-button-response","11","38603","0.0-9.0-1.0","p9t38n9y78","43","1270","<p align='center'><b>Good job!</b> Click on 'Continue' to proceed.</p>","0","","","","","","","","","","","","","","","",""
"","","","","","html-slider-response","12","42194","0.0-10.0-0.0","p9t38n9y78","43","NaN","<div style=""width:500px;"">
                                    <p style=""font-size:25px;"">Please move the slider halfway between the center and right endpoint of the scale</p>

                                    </div>
                                </div>","-35","","0","true","2","false","","","","","","","","","","",""
"","","","","","html-button-response","13","44168","0.0-10.0-1.0","p9t38n9y78","43","1472","<p align='center'><b>Not quite!</b> The slider was not placed near the instructed located. Click on 'Continue' to try again. </p>","0","","","","","","","","","","","","","","","",""
"","","","","","html-slider-response","14","46391","0.0-10.1-0.1","p9t38n9y78","43","NaN","<div style=""width:500px;"">
                                    <p style=""font-size:25px;"">Please move the slider halfway between the center and right endpoint of the scale</p>

                                    </div>
                                </div>","102","","0","true","2","true","","","","","","","","","","",""
"","","","","","html-button-response","15","47900","0.0-10.1-1.1","p9t38n9y78","43","1007","<p align='center'><b>Good job!</b> Click on 'Continue' to proceed.</p>","0","","","","","","","","","","","","","","","",""
"","","","","","html-slider-response","16","49380","0.0-11.0-0.0","p9t38n9y78","43","NaN","<div style=""width:500px;"">
                                    <p style=""font-size:25px;"">Please move the slider halfway between the center and left endpoint of the scale</p>

                                    </div>
                                </div>","-86","","0","true","3","true","","","","","","","","","","",""
"","","","","","html-button-response","17","50721","0.0-11.0-1.0","p9t38n9y78","43","838","<p align='center'><b>Good job!</b> Click on 'Continue' to proceed.</p>","0","","","","","","","","","","","","","","","",""
"","","","","","html-button-response","18","51667","0.0-12.0","p9t38n9y78","43","945","<p>Great job! You've completed the practice trials. Now you will begin the main task.</p>","0","","","","","","","","","","","","","","","",""
"","","","","","html-button-response","19","53418","0.0-13.0","p9t38n9y78","43","1749","<p>In this block of trials, you will be asked to rate how much you associate each map with:</p > <p style = 'font-size:150%; font-weight: bold'>disgust</p><br></br>","0","","","","","","","","","","","","","","","",""
"","","","","","html-slider-response","20","56549","0.0-14.0","p9t38n9y78","43","NaN","<div style=""width:500px;"">
                            <p style=""font-size:50px; font-weight:bold;""
                            >disgust</p>
                            <div style=""width:240px; margin: auto;"">
                                <img src=""images/map23_Purples_scaleRev_orientDef_000.png"" style= ""width:200px""alt=""img"">
                            </div>
                        </div>","-56","","0","","","","images/map23_Purples_scaleRev_orientDef_000.png","disgust","1","23","23","Purples","orientDef","scaleRev","000","",""
"","","","","","html-slider-response","21","59226","0.0-15.0","p9t38n9y78","43","NaN","<div style=""width:500px;"">
                            <p style=""font-size:50px; font-weight:bold;""
                            >disgust</p>
                            <div style=""width:240px; margin: auto;"">
                                <img src=""images/map12_managua_scaleRev_orientMir_000.png"" style= ""width:200px""alt=""img"">
                            </div>
                        </div>","72","","0","","","","images/map12_managua_scaleRev_orientMir_000.png","disgust","1","12","12","managua","orientMir","scaleRev","000","",""
"","","","","","html-slider-response","22","61879","0.0-16.0","p9t38n9y78","43","NaN","<div style=""width:500px;"">
                            <p style=""font-size:50px; font-weight:bold;""
                            >disgust</p>
                            <div style=""width:240px; margin: auto;"">
                                <img src=""images/map23_Oranges_scaleRev_orientMir_180.png"" style= ""width:200px""alt=""img"">
                            </div>
                        </div>","131","","0","","","","images/map23_Oranges_scaleRev_orientMir_180.png","disgust","1","23","23","Oranges","orientMir","scaleRev","180","",""
"","","","","","html-slider-response","23","63631","0.0-17.0","p9t38n9y78","43","NaN","<div style=""width:500px;"">
                            <p style=""font-size:50px; font-weight:bold;""
                            >disgust</p>
                            <div style=""width:240px; margin: auto;"">
                                <img src=""images/map02_YlGnBu_scaleRev_orientDef_180.png"" style= ""width:200px""alt=""img"">
                            </div>
                        </div>","92","","0","","","","images/map02_YlGnBu_scaleRev_orientDef_180.png","disgust","1","02","02","YlGnBu","orientDef","scaleRev","180","",""
"","","","","","html-slider-response","24","66295","0.0-18.0","p9t38n9y78","43","NaN","<div style=""width:500px;"">
                            <p style=""font-size:50px; font-weight:bold;""
                            >disgust</p>
                            <div style=""width:240px; margin: auto;"">
                                <img src=""images/map13_gist_earth_scaleRev_orientDef_000.png"" style= ""width:200px""alt=""img"">
                            </div>
                        </div>","185","","0","","","","images/map13_gist_earth_scaleRev_orientDef_000.png","disgust","1","13","13","gist","scaleRev","earth","orientDef","",""
"","","","","","html-slider-response","25","69161","0.0-19.0","p9t38n9y78","43","NaN","<div style=""width:500px;"">
                            <p style=""font-size:50px; font-weight:bold;""
                            >disgust</p>
                            <div style=""width:240px; margin: auto;"">
                                <img src=""images/map12_berlin_scaleDef_orientDef_090.png"" style= ""width:200px""alt=""img"">
                            </div>
                        </div>","-93","","0","","","","images/map12_berlin_scaleDef_orientDef_090.png","disgust","1","12","12","berlin","orientDef","scaleDef","090","",""
"","","","","","html-slider-response","26","71043","0.0-20.0","p9t38n9y78","43","NaN","<div style=""width:500px;"">
                            <p style=""font-size:50px; font-weight:bold;""
                            >disgust</p>
                            <div style=""width:240px; margin: auto;"">
                                <img src=""images/map02_PuBuGn_scaleRev_orientMir_000.png"" style= ""width:200px""alt=""img"">
                            </div>
                        </div>","-19","","0","","","","images/map02_PuBuGn_scaleRev_orientMir_000.png","disgust","1","02","02","PuBuGn","orientMir","scaleRev","000","",""
"","","","","","html-slider-response","27","73245","0.0-21.0","p9t38n9y78","43","NaN","<div style=""width:500px;"">
                            <p style=""font-size:50px; font-weight:bold;""
                            >disgust</p>
                            <div style=""width:240px; margin: auto;"">
                                <img src=""images/map10_Spectral_scaleRev_orientDef_180.png"" style= ""width:200px""alt=""img"">
                            </div>
                        </div>","39","","0","","","","images/map10_Spectral_scaleRev_orientDef_180.png","disgust","1","10","10","Spectral","orientDef","scaleRev","180","",""
"","","","","","html-slider-response","28","75193","0.0-22.0","p9t38n9y78","43","NaN","<div style=""width:500px;"">
                            <p style=""font-size:50px; font-weight:bold;""
                            >disgust</p>
                            <div style=""width:240px; margin: auto;"">
                                <img src=""images/map27_BuPu_scaleRev_orientMir_000.png"" style= ""width:200px""alt=""img"">
                            </div>
                        </div>","-39","","0","","","","images/map27_BuPu_scaleRev_orientMir_000.png","disgust","1","27","27","BuPu","orientMir","scaleRev","000","",""
"","","","","","html-slider-response","29","77508","0.0-23.0","p9t38n9y78","43","NaN","<div style=""width:500px;"">
                            <p style=""font-size:50px; font-weight:bold;""
                            >disgust</p>
                            <div style=""width:240px; margin: auto;"">
                                <img src=""images/map13_inferno_scaleDef_orientMir_270.png"" style= ""width:200px""alt=""img"">
                            </div>
                        </div>","-97","","0","","","","images/map13_inferno_scaleDef_orientMir_270.png","disgust","1","13","13","inferno","orientMir","scaleDef","270","",""
"","","","","","html-slider-response","30","79593","0.0-24.0","p9t38n9y78","43","NaN","<div style=""width:500px;"">
                            <p style=""font-size:50px; font-weight:bold;""
                            >disgust</p>
                            <div style=""width:240px; margin: auto;"">
                                <img src=""images/map07_RdYlGn_scaleDef_orientMir_270.png"" style= ""width:200px""alt=""img"">
                            </div>
                        </div>","121","","0","","","","images/map07_RdYlGn_scaleDef_orientMir_270.png","disgust","1","07","07","RdYlGn","orientMir","scaleDef","270","",""
"","","","","","html-slider-response","31","82229","0.0-25.0","p9t38n9y78","43","NaN","<div style=""width:500px;"">
                            <p style=""font-size:50px; font-weight:bold;""
                            >disgust</p>
                            <div style=""width:240px; margin: auto;"">
                                <img src=""images/map23_Reds_scaleDef_orientMir_270.png"" style= ""width:200px""alt=""img"">
                            </div>
                        </div>","-38","","0","","","","images/map23_Reds_scaleDef_orientMir_270.png","disgust","1","23","23","Reds","orientMir","scaleDef","270","",""
"","","","","","html-slider-response","32","83975","0.0-26.0","p9t38n9y78","43","NaN","<div style=""width:500px;"">
                            <p style=""font-size:50px; font-weight:bold;""
                            >disgust</p>
                            <div style=""width:240px; margin: auto;"">
                                <img src=""images/map26_YlOrBr_scaleRev_orientDef_180.png"" style= ""width:200px""alt=""img"">
                            </div>
                        </div>","-107","","0","","","","images/map26_YlOrBr_scaleRev_orientDef_180.png","disgust","1","26","26","YlOrBr","orientDef","scaleRev","180","",""
"","","","","","html-slider-response","33","86210","0.0-27.0","p9t38n9y78","43","NaN","<div style=""width:500px;"">
                            <p style=""font-size:50px; font-weight:bold;""
                            >disgust</p>
                            <div style=""width:240px; margin: auto;"">
                                <img src=""images/map10_Spectral_scaleDef_orientDef_090.png"" style= ""width:200px""alt=""img"">
                            </div>
                        </div>","26","","0","","","","images/map10_Spectral_scaleDef_orientDef_090.png","disgust","1","10","10","Spectral","orientDef","scaleDef","090","",""
"","","","","","html-slider-response","34","88547","0.0-28.0","p9t38n9y78","43","NaN","<div style=""width:500px;"">
                            <p style=""font-size:50px; font-weight:bold;""
                            >disgust</p>
                            <div style=""width:240px; margin: auto;"">
                                <img src=""images/map12_managua_scaleDef_orientDef_270.png"" style= ""width:200px""alt=""img"">
                            </div>
                        </div>","-63","","0","","","","images/map12_managua_scaleDef_orientDef_270.png","disgust","1","12","12","managua","orientDef","scaleDef","270","",""
"","","","","","html-slider-response","35","91263","0.0-29.0","p9t38n9y78","43","NaN","<div style=""width:500px;"">
                            <p style=""font-size:50px; font-weight:bold;""
                            >disgust</p>
                            <div style=""width:240px; margin: auto;"">
                                <img src=""images/map27_PuRd_scaleRev_orientDef_000.png"" style= ""width:200px""alt=""img"">
                            </div>
                        </div>","-192","","0","","","","images/map27_PuRd_scaleRev_orientDef_000.png","disgust","1","27","27","PuRd","orientDef","scaleRev","000","",""
"","","","","","html-slider-response","36","130987","0.0-30.0","p9t38n9y78","43","NaN","<div style=""width:500px;"">
                            <p style=""font-size:50px; font-weight:bold;""
                            >disgust</p>
                            <div style=""width:240px; margin: auto;"">
                                <img src=""images/map26_OrRd_scaleRev_orientMir_180.png"" style= ""width:200px""alt=""img"">
                            </div>
                        </div>","-160","","0","","","","images/map26_OrRd_scaleRev_orientMir_180.png","disgust","1","26","26","OrRd","orientMir","scaleRev","180","",""
"","","","","","html-slider-response","37","133475","0.0-31.0","p9t38n9y78","43","NaN","<div style=""width:500px;"">
                            <p style=""font-size:50px; font-weight:bold;""
                            >disgust</p>
                            <div style=""width:240px; margin: auto;"">
                                <img src=""images/map07_RdYlBu_scaleDef_orientMir_090.png"" style= ""width:200px""alt=""img"">
                            </div>
                        </div>","39","","0","","","","images/map07_RdYlBu_scaleDef_orientMir_090.png","disgust","1","07","07","RdYlBu","orientMir","scaleDef","090","",""
"","","","","","html-slider-response","38","135593","0.0-32.0","p9t38n9y78","43","NaN","<div style=""width:500px;"">
                            <p style=""font-size:50px; font-weight:bold;""
                            >disgust</p>
                            <div style=""width:240px; margin: auto;"">
                                <img src=""images/map05_BrBG_scaleRev_orientMir_180.png"" style= ""width:200px""alt=""img"">
                            </div>
                        </div>","86","","0","","","","images/map05_BrBG_scaleRev_orientMir_180.png","disgust","1","05","05","BrBG","orientMir","scaleRev","180","",""
"","","","","","html-slider-response","39","137945","0.0-33.0","p9t38n9y78","43","NaN","<div style=""width:500px;"">
                            <p style=""font-size:50px; font-weight:bold;""
                            >disgust</p>
                            <div style=""width:240px; margin: auto;"">
                                <img src=""images/map23_Greens_scaleRev_orientMir_000.png"" style= ""width:200px""alt=""img"">
                            </div>
                        </div>","166","","0","","","","images/map23_Greens_scaleRev_orientMir_000.png","disgust","1","23","23","Greens","orientMir","scaleRev","000","",""
"","","","","","html-slider-response","40","139897","0.0-34.0","p9t38n9y78","43","NaN","<div style=""width:500px;"">
                            <p style=""font-size:50px; font-weight:bold;""
                            >disgust</p>
                            <div style=""width:240px; margin: auto;"">
                                <img src=""images/map05_PiYG_scaleDef_orientDef_090.png"" style= ""width:200px""alt=""img"">
                            </div>
                        </div>","153","","0","","","","images/map05_PiYG_scaleDef_orientDef_090.png","disgust","1","05","05","PiYG","orientDef","scaleDef","090","",""
"","","","","","html-slider-response","41","141611","0.0-35.0","p9t38n9y78","43","NaN","<div style=""width:500px;"">
                            <p style=""font-size:50px; font-weight:bold;""
                            >disgust</p>
                            <div style=""width:240px; margin: auto;"">
                                <img src=""images/map05_PRGn_scaleRev_orientMir_000.png"" style= ""width:200px""alt=""img"">
                            </div>
                        </div>","170","","0","","","","images/map05_PRGn_scaleRev_orientMir_000.png","disgust","1","05","05","PRGn","orientMir","scaleRev","000","",""
"","","","","","html-slider-response","42","143547","0.0-36.0","p9t38n9y78","43","NaN","<div style=""width:500px;"">
                            <p style=""font-size:50px; font-weight:bold;""
                            >disgust</p>
                            <div style=""width:240px; margin: auto;"">
                                <img src=""images/map10_seismic_scaleDef_orientMir_270.png"" style= ""width:200px""alt=""img"">
                            </div>
                        </div>","33","","0","","","","images/map10_seismic_scaleDef_orientMir_270.png","disgust","1","10","10","seismic","orientMir","scaleDef","270","",""
"","","","","","html-slider-response","43","145861","0.0-37.0","p9t38n9y78","43","NaN","<div style=""width:500px;"">
                            <p style=""font-size:50px; font-weight:bold;""
                            >disgust</p>
                            <div style=""width:240px; margin: auto;"">
                                <img src=""images/map05_BrBG_scaleDef_orientMir_090.png"" style= ""width:200px""alt=""img"">
                            </div>
                        </div>","61","","0","","","","images/map05_BrBG_scaleDef_orientMir_090.png","disgust","1","05","05","BrBG","orientMir","scaleDef","090","",""
"","","","","","html-slider-response","44","147630","0.0-38.0","p9t38n9y78","43","NaN","<div style=""width:500px;"">
                            <p style=""font-size:50px; font-weight:bold;""
                            >disgust</p>
                            <div style=""width:240px; margin: auto;"">
                                <img src=""images/map26_OrRd_scaleDef_orientMir_090.png"" style= ""width:200px""alt=""img"">
                            </div>
                        </div>","-110","","0","","","","images/map26_OrRd_scaleDef_orientMir_090.png","disgust","1","26","26","OrRd","orientMir","scaleDef","090","",""
"","","","","","html-slider-response","45","149877","0.0-39.0","p9t38n9y78","43","NaN","<div style=""width:500px;"">
                            <p style=""font-size:50px; font-weight:bold;""
                            >disgust</p>
                            <div style=""width:240px; margin: auto;"">
                                <img src=""images/map27_PuBu_scaleDef_orientMir_270.png"" style= ""width:200px""alt=""img"">
                            </div>
                        </div>","-183","","0","","","","images/map27_PuBu_scaleDef_orientMir_270.png","disgust","1","27","27","PuBu","orientMir","scaleDef","270","",""
"","","","","","html-slider-response","46","152781","0.0-40.0","p9t38n9y78","43","NaN","<div style=""width:500px;"">
                            <p style=""font-size:50px; font-weight:bold;""
                            >disgust</p>
                            <div style=""width:240px; margin: auto;"">
                                <img src=""images/map15_cividis_scaleDef_orientDef_270.png"" style= ""width:200px""alt=""img"">
                            </div>
                        </div>","64","","0","","","","images/map15_cividis_scaleDef_orientDef_270.png","disgust","1","15","15","cividis","orientDef","scaleDef","270","",""
"","","","","","html-slider-response","47","155193","0.0-41.0","p9t38n9y78","43","NaN","<div style=""width:500px;"">
                            <p style=""font-size:50px; font-weight:bold;""
                            >disgust</p>
                            <div style=""width:240px; margin: auto;"">
                                <img src=""images/map26_YlOrBr_scaleDef_orientDef_090.png"" style= ""width:200px""alt=""img"">
                            </div>
                        </div>","-90","","0","","","","images/map26_YlOrBr_scaleDef_orientDef_090.png","disgust","1","26","26","YlOrBr","orientDef","scaleDef","090","",""
"","","","","","html-slider-response","48","157248","0.0-42.0","p9t38n9y78","43","NaN","<div style=""width:500px;"">
                            <p style=""font-size:50px; font-weight:bold;""
                            >disgust</p>
                            <div style=""width:240px; margin: auto;"">
                                <img src=""images/map12_gist_earth_scaleDef_orientMir_270.png"" style= ""width:200px""alt=""img"">
                            </div>
                        </div>","167","","0","","","","images/map12_gist_earth_scaleDef_orientMir_270.png","disgust","1","12","12","gist","scaleDef","earth","orientMir","",""
"","","","","","html-slider-response","49","159314","0.0-43.0","p9t38n9y78","43","NaN","<div style=""width:500px;"">
                            <p style=""font-size:50px; font-weight:bold;""
                            >disgust</p>
                            <div style=""width:240px; margin: auto;"">
                                <img src=""images/map27_RdPu_scaleDef_orientDef_090.png"" style= ""width:200px""alt=""img"">
                            </div>
                        </div>","-97","","0","","","","images/map27_RdPu_scaleDef_orientDef_090.png","disgust","1","27","27","RdPu","orientDef","scaleDef","090","",""
"","","","","","html-slider-response","50","161577","0.0-44.0","p9t38n9y78","43","NaN","<div style=""width:500px;"">
                            <p style=""font-size:50px; font-weight:bold;""
                            >disgust</p>
                            <div style=""width:240px; margin: auto;"">
                                <img src=""images/map10_coolwarm_scaleDef_orientDef_270.png"" style= ""width:200px""alt=""img"">
                            </div>
                        </div>","58","","0","","","","images/map10_coolwarm_scaleDef_orientDef_270.png","disgust","1","10","10","coolwarm","orientDef","scaleDef","270","",""
"","","","","","html-slider-response","51","163360","0.0-45.0","p9t38n9y78","43","NaN","<div style=""width:500px;"">
                            <p style=""font-size:50px; font-weight:bold;""
                            >disgust</p>
                            <div style=""width:240px; margin: auto;"">
                                <img src=""images/map02_YlGnBu_scaleDef_orientDef_090.png"" style= ""width:200px""alt=""img"">
                            </div>
                        </div>","77","","0","","","","images/map02_YlGnBu_scaleDef_orientDef_090.png","disgust","1","02","02","YlGnBu","orientDef","scaleDef","090","",""
"","","","","","html-slider-response","52","165462","0.0-46.0","p9t38n9y78","43","NaN","<div style=""width:500px;"">
                            <p style=""font-size:50px; font-weight:bold;""
                            >disgust</p>
                            <div style=""width:240px; margin: auto;"">
                                <img src=""images/map13_viridis_scaleDef_orientDef_270.png"" style= ""width:200px""alt=""img"">
                            </div>
                        </div>","145","","0","","","","images/map13_viridis_scaleDef_orientDef_270.png","disgust","1","13","13","viridis","orientDef","scaleDef","270","",""
"","","","","","html-slider-response","53","167428","0.0-47.0","p9t38n9y78","43","NaN","<div style=""width:500px;"">
                            <p style=""font-size:50px; font-weight:bold;""
                            >disgust</p>
                            <div style=""width:240px; margin: auto;"">
                                <img src=""images/map02_BuGn_scaleDef_orientMir_090.png"" style= ""width:200px""alt=""img"">
                            </div>
                        </div>","114","","0","","","","images/map02_BuGn_scaleDef_orientMir_090.png","disgust","1","02","02","BuGn","orientMir","scaleDef","090","",""
"","","","","","html-slider-response","54","169078","0.0-48.0","p9t38n9y78","43","NaN","<div style=""width:500px;"">
                            <p style=""font-size:50px; font-weight:bold;""
                            >disgust</p>
                            <div style=""width:240px; margin: auto;"">
                                <img src=""images/map26_YlOrRd_scaleRev_orientMir_000.png"" style= ""width:200px""alt=""img"">
                            </div>
                        </div>","-108","","0","","","","images/map26_YlOrRd_scaleRev_orientMir_000.png","disgust","1","26","26","YlOrRd","orientMir","scaleRev","000","",""
"","","","","","html-slider-response","55","170695","0.0-49.0","p9t38n9y78","43","NaN","<div style=""width:500px;"">
                            <p style=""font-size:50px; font-weight:bold;""
                            >disgust</p>
                            <div style=""width:240px; margin: auto;"">
                                <img src=""images/map15_magma_scaleRev_orientDef_180.png"" style= ""width:200px""alt=""img"">
                            </div>
                        </div>","-91","","0","","","","images/map15_magma_scaleRev_orientDef_180.png","disgust","1","15","15","magma","orientDef","scaleRev","180","",""
"","","","","","html-slider-response","56","172828","0.0-50.0","p9t38n9y78","43","NaN","<div style=""width:500px;"">
                            <p style=""font-size:50px; font-weight:bold;""
                            >disgust</p>
                            <div style=""width:240px; margin: auto;"">
                                <img src=""images/map27_RdPu_scaleRev_orientDef_180.png"" style= ""width:200px""alt=""img"">
                            </div>
                        </div>","-163","","0","","","","images/map27_RdPu_scaleRev_orientDef_180.png","disgust","1","27","27","RdPu","orientDef","scaleRev","180","",""
"","","","","","html-slider-response","57","174513","0.0-51.0","p9t38n9y78","43","NaN","<div style=""width:500px;"">
                            <p style=""font-size:50px; font-weight:bold;""
                            >disgust</p>
                            <div style=""width:240px; margin: auto;"">
                                <img src=""images/map15_Greys_scaleRev_orientMir_180.png"" style= ""width:200px""alt=""img"">
                            </div>
                        </div>","-165","","0","","","","images/map15_Greys_scaleRev_orientMir_180.png","disgust","1","15","15","Greys","orientMir","scaleRev","180","",""
"","","","","","html-slider-response","58","176334","0.0-52.0","p9t38n9y78","43","NaN","<div style=""width:500px;"">
                            <p style=""font-size:50px; font-weight:bold;""
                            >disgust</p>
                            <div style=""width:240px; margin: auto;"">
                                <img src=""images/map02_PuBuGn_scaleDef_orientDef_270.png"" style= ""width:200px""alt=""img"">
                            </div>
                        </div>","-128","","0","","","","images/map02_PuBuGn_scaleDef_orientDef_270.png","disgust","1","02","02","PuBuGn","orientDef","scaleDef","270","",""
"","","","","","html-slider-response","59","178127","0.0-53.0","p9t38n9y78","43","NaN","<div style=""width:500px;"">
                            <p style=""font-size:50px; font-weight:bold;""
                            >disgust</p>
                            <div style=""width:240px; margin: auto;"">
                                <img src=""images/map10_bwr_scaleDef_orientMir_090.png"" style= ""width:200px""alt=""img"">
                            </div>
                        </div>","-98","","0","","","","images/map10_bwr_scaleDef_orientMir_090.png","disgust","1","10","10","bwr","orientMir","scaleDef","090","",""
"","","","","","html-button-response","60","181135","0.0-54.0","p9t38n9y78","43","2505","<p>You are doing great!<br></br> You are halway done with the current block. When you are ready to continue, click the 'Continue' button.</p>","0","","","","","","","","","","","","","","","",""
"","","","","","html-slider-response","61","182878","0.0-55.0","p9t38n9y78","43","NaN","<div style=""width:500px;"">
                            <p style=""font-size:50px; font-weight:bold;""
                            >disgust</p>
                            <div style=""width:240px; margin: auto;"">
                                <img src=""images/map05_PuOr_scaleDef_orientMir_270.png"" style= ""width:200px""alt=""img"">
                            </div>
                        </div>","57","","0","","","","images/map05_PuOr_scaleDef_orientMir_270.png","disgust","1","05","05","PuOr","orientMir","scaleDef","270","",""
"","","","","","html-slider-response","62","185197","0.0-56.0","p9t38n9y78","43","NaN","<div style=""width:500px;"">
                            <p style=""font-size:50px; font-weight:bold;""
                            >disgust</p>
                            <div style=""width:240px; margin: auto;"">
                                <img src=""images/map13_plasma_scaleRev_orientMir_180.png"" style= ""width:200px""alt=""img"">
                            </div>
                        </div>","73","","0","","","","images/map13_plasma_scaleRev_orientMir_180.png","disgust","1","13","13","plasma","orientMir","scaleRev","180","",""
"","","","","","html-slider-response","63","187335","0.0-57.0","p9t38n9y78","43","NaN","<div style=""width:500px;"">
                            <p style=""font-size:50px; font-weight:bold;""
                            >disgust</p>
                            <div style=""width:240px; margin: auto;"">
                                <img src=""images/map15_magma_scaleDef_orientDef_090.png"" style= ""width:200px""alt=""img"">
                            </div>
                        </div>","30","","0","","","","images/map15_magma_scaleDef_orientDef_090.png","disgust","1","15","15","magma","orientDef","scaleDef","090","",""
"","","","","","html-slider-response","64","188894","0.0-58.0","p9t38n9y78","43","NaN","<div style=""width:500px;"">
                            <p style=""font-size:50px; font-weight:bold;""
                            >disgust</p>
                            <div style=""width:240px; margin: auto;"">
                                <img src=""images/map13_plasma_scaleDef_orientMir_090.png"" style= ""width:200px""alt=""img"">
                            </div>
                        </div>","-6","","0","","","","images/map13_plasma_scaleDef_orientMir_090.png","disgust","1","13","13","plasma","orientMir","scaleDef","090","",""
"","","","","","html-slider-response","65","191310","0.0-59.0","p9t38n9y78","43","NaN","<div style=""width:500px;"">
                            <p style=""font-size:50px; font-weight:bold;""
                            >disgust</p>
                            <div style=""width:240px; margin: auto;"">
                                <img src=""images/map07_RdGy_scaleDef_orientDef_090.png"" style= ""width:200px""alt=""img"">
                            </div>
                        </div>","38","","0","","","","images/map07_RdGy_scaleDef_orientDef_090.png","disgust","1","07","07","RdGy","orientDef","scaleDef","090","",""
"","","","","","html-slider-response","66","193334","0.0-60.0","p9t38n9y78","43","NaN","<div style=""width:500px;"">
                            <p style=""font-size:50px; font-weight:bold;""
                            >disgust</p>
                            <div style=""width:240px; margin: auto;"">
                                <img src=""images/map27_GnBu_scaleRev_orientMir_180.png"" style= ""width:200px""alt=""img"">
                            </div>
                        </div>","-54","","0","","","","images/map27_GnBu_scaleRev_orientMir_180.png","disgust","1","27","27","GnBu","orientMir","scaleRev","180","",""
"","","","","","html-slider-response","67","195431","0.0-61.0","p9t38n9y78","43","NaN","<div style=""width:500px;"">
                            <p style=""font-size:50px; font-weight:bold;""
                            >disgust</p>
                            <div style=""width:240px; margin: auto;"">
                                <img src=""images/map07_RdGy_scaleRev_orientDef_180.png"" style= ""width:200px""alt=""img"">
                            </div>
                        </div>","19","","0","","","","images/map07_RdGy_scaleRev_orientDef_180.png","disgust","1","07","07","RdGy","orientDef","scaleRev","180","",""
"","","","","","html-slider-response","68","196081","0.0-62.0","p9t38n9y78","43","NaN","<div style=""width:500px;"">
                            <p style=""font-size:50px; font-weight:bold;""
                            >disgust</p>
                            <div style=""width:240px; margin: auto;"">
                                <img src=""images/map05_PRGn_scaleDef_orientDef_270.png"" style= ""width:200px""alt=""img"">
                            </div>
                        </div>","19","","0","","","","images/map05_PRGn_scaleDef_orientDef_270.png","disgust","1","05","05","PRGn","orientDef","scaleDef","270","",""
"","","","","","html-slider-response","69","197970","0.0-63.0","p9t38n9y78","43","NaN","<div style=""width:500px;"">
                            <p style=""font-size:50px; font-weight:bold;""
                            >disgust</p>
                            <div style=""width:240px; margin: auto;"">
                                <img src=""images/map07_RdYlBu_scaleRev_orientMir_180.png"" style= ""width:200px""alt=""img"">
                            </div>
                        </div>","12","","0","","","","images/map07_RdYlBu_scaleRev_orientMir_180.png","disgust","1","07","07","RdYlBu","orientMir","scaleRev","180","",""
"","","","","","html-slider-response","70","200315","0.0-64.0","p9t38n9y78","43","NaN","<div style=""width:500px;"">
                            <p style=""font-size:50px; font-weight:bold;""
                            >disgust</p>
                            <div style=""width:240px; margin: auto;"">
                                <img src=""images/map27_BuPu_scaleDef_orientDef_270.png"" style= ""width:200px""alt=""img"">
                            </div>
                        </div>","-84","","0","","","","images/map27_BuPu_scaleDef_orientDef_270.png","disgust","1","27","27","BuPu","orientDef","scaleDef","270","",""
"","","","","","html-slider-response","71","202561","0.0-65.0","p9t38n9y78","43","NaN","<div style=""width:500px;"">
                            <p style=""font-size:50px; font-weight:bold;""
                            >disgust</p>
                            <div style=""width:240px; margin: auto;"">
                                <img src=""images/map12_vanimo_scaleRev_orientMir_180.png"" style= ""width:200px""alt=""img"">
                            </div>
                        </div>","102","","0","","","","images/map12_vanimo_scaleRev_orientMir_180.png","disgust","1","12","12","vanimo","orientMir","scaleRev","180","",""
"","","","","","html-slider-response","72","204600","0.0-66.0","p9t38n9y78","43","NaN","<div style=""width:500px;"">
                            <p style=""font-size:50px; font-weight:bold;""
                            >disgust</p>
                            <div style=""width:240px; margin: auto;"">
                                <img src=""images/map10_RdYlGn_scaleRev_orientDef_000.png"" style= ""width:200px""alt=""img"">
                            </div>
                        </div>","17","","0","","","","images/map10_RdYlGn_scaleRev_orientDef_000.png","disgust","1","10","10","RdYlGn","orientDef","scaleRev","000","",""
"","","","","","html-slider-response","73","206609","0.0-67.0","p9t38n9y78","43","NaN","<div style=""width:500px;"">
                            <p style=""font-size:50px; font-weight:bold;""
                            >disgust</p>
                            <div style=""width:240px; margin: auto;"">
                                <img src=""images/map15_Greys_scaleDef_orientMir_090.png"" style= ""width:200px""alt=""img"">
                            </div>
                        </div>","-170","","0","","","","images/map15_Greys_scaleDef_orientMir_090.png","disgust","1","15","15","Greys","orientMir","scaleDef","090","",""
"","","","","","html-slider-response","74","208351","0.0-68.0","p9t38n9y78","43","NaN","<div style=""width:500px;"">
                            <p style=""font-size:50px; font-weight:bold;""
                            >disgust</p>
                            <div style=""width:240px; margin: auto;"">
                                <img src=""images/map23_Oranges_scaleDef_orientMir_090.png"" style= ""width:200px""alt=""img"">
                            </div>
                        </div>","-154","","0","","","","images/map23_Oranges_scaleDef_orientMir_090.png","disgust","1","23","23","Oranges","orientMir","scaleDef","090","",""
"","","","","","html-slider-response","75","210494","0.0-69.0","p9t38n9y78","43","NaN","<div style=""width:500px;"">
                            <p style=""font-size:50px; font-weight:bold;""
                            >disgust</p>
                            <div style=""width:240px; margin: auto;"">
                                <img src=""images/map13_turbo_scaleDef_orientDef_090.png"" style= ""width:200px""alt=""img"">
                            </div>
                        </div>","-100","","0","","","","images/map13_turbo_scaleDef_orientDef_090.png","disgust","1","13","13","turbo","orientDef","scaleDef","090","",""
"","","","","","html-slider-response","76","211944","0.0-70.0","p9t38n9y78","43","NaN","<div style=""width:500px;"">
                            <p style=""font-size:50px; font-weight:bold;""
                            >disgust</p>
                            <div style=""width:240px; margin: auto;"">
                                <img src=""images/map12_berlin_scaleRev_orientDef_180.png"" style= ""width:200px""alt=""img"">
                            </div>
                        </div>","-100","","0","","","","images/map12_berlin_scaleRev_orientDef_180.png","disgust","1","12","12","berlin","orientDef","scaleRev","180","",""
"","","","","","html-slider-response","77","215557","0.0-71.0","p9t38n9y78","43","NaN","<div style=""width:500px;"">
                            <p style=""font-size:50px; font-weight:bold;""
                            >disgust</p>
                            <div style=""width:240px; margin: auto;"">
                                <img src=""images/map15_cividis_scaleRev_orientMir_000.png"" style= ""width:200px""alt=""img"">
                            </div>
                        </div>","-18","","0","","","","images/map15_cividis_scaleRev_orientMir_000.png","disgust","1","15","15","cividis","orientMir","scaleRev","000","",""
"","","","","","html-slider-response","78","217340","0.0-72.0","p9t38n9y78","43","NaN","<div style=""width:500px;"">
                            <p style=""font-size:50px; font-weight:bold;""
                            >disgust</p>
                            <div style=""width:240px; margin: auto;"">
                                <img src=""images/map07_RdBu_scaleDef_orientDef_270.png"" style= ""width:200px""alt=""img"">
                            </div>
                        </div>","-58","","0","","","","images/map07_RdBu_scaleDef_orientDef_270.png","disgust","1","07","07","RdBu","orientDef","scaleDef","270","",""
"","","","","","html-slider-response","79","219180","0.0-73.0","p9t38n9y78","43","NaN","<div style=""width:500px;"">
                            <p style=""font-size:50px; font-weight:bold;""
                            >disgust</p>
                            <div style=""width:240px; margin: auto;"">
                                <img src=""images/map02_PuBu_scaleRev_orientDef_000.png"" style= ""width:200px""alt=""img"">
                            </div>
                        </div>","-138","","0","","","","images/map02_PuBu_scaleRev_orientDef_000.png","disgust","1","02","02","PuBu","orientDef","scaleRev","000","",""
"","","","","","html-slider-response","80","220695","0.0-74.0","p9t38n9y78","43","NaN","<div style=""width:500px;"">
                            <p style=""font-size:50px; font-weight:bold;""
                            >disgust</p>
                            <div style=""width:240px; margin: auto;"">
                                <img src=""images/map23_Blues_scaleDef_orientDef_090.png"" style= ""width:200px""alt=""img"">
                            </div>
                        </div>","-138","","0","","","","images/map23_Blues_scaleDef_orientDef_090.png","disgust","1","23","23","Blues","orientDef","scaleDef","090","",""
"","","","","","html-slider-response","81","222414","0.0-75.0","p9t38n9y78","43","NaN","<div style=""width:500px;"">
                            <p style=""font-size:50px; font-weight:bold;""
                            >disgust</p>
                            <div style=""width:240px; margin: auto;"">
                                <img src=""images/map15_Purples_scaleDef_orientMir_270.png"" style= ""width:200px""alt=""img"">
                            </div>
                        </div>","-107","","0","","","","images/map15_Purples_scaleDef_orientMir_270.png","disgust","1","15","15","Purples","orientMir","scaleDef","270","",""
"","","","","","html-slider-response","82","224229","0.0-76.0","p9t38n9y78","43","NaN","<div style=""width:500px;"">
                            <p style=""font-size:50px; font-weight:bold;""
                            >disgust</p>
                            <div style=""width:240px; margin: auto;"">
                                <img src=""images/map15_inferno_scaleRev_orientDef_000.png"" style= ""width:200px""alt=""img"">
                            </div>
                        </div>","-94","","0","","","","images/map15_inferno_scaleRev_orientDef_000.png","disgust","1","15","15","inferno","orientDef","scaleRev","000","",""
"","","","","","html-slider-response","83","226515","0.0-77.0","p9t38n9y78","43","NaN","<div style=""width:500px;"">
                            <p style=""font-size:50px; font-weight:bold;""
                            >disgust</p>
                            <div style=""width:240px; margin: auto;"">
                                <img src=""images/map05_YlGn_scaleRev_orientDef_000.png"" style= ""width:200px""alt=""img"">
                            </div>
                        </div>","155","","0","","","","images/map05_YlGn_scaleRev_orientDef_000.png","disgust","1","05","05","YlGn","orientDef","scaleRev","000","",""
"","","","","","html-slider-response","84","236661","0.0-78.0","p9t38n9y78","43","NaN","<div style=""width:500px;"">
                            <p style=""font-size:50px; font-weight:bold;""
                            >disgust</p>
                            <div style=""width:240px; margin: auto;"">
                                <img src=""images/map13_turbo_scaleRev_orientDef_180.png"" style= ""width:200px""alt=""img"">
                            </div>
                        </div>","19","","0","","","","images/map13_turbo_scaleRev_orientDef_180.png","disgust","1","13","13","turbo","orientDef","scaleRev","180","",""
"","","","","","html-slider-response","85","239426","0.0-79.0","p9t38n9y78","43","NaN","<div style=""width:500px;"">
                            <p style=""font-size:50px; font-weight:bold;""
                            >disgust</p>
                            <div style=""width:240px; margin: auto;"">
                                <img src=""images/map10_bwr_scaleRev_orientMir_180.png"" style= ""width:200px""alt=""img"">
                            </div>
                        </div>","-95","","0","","","","images/map10_bwr_scaleRev_orientMir_180.png","disgust","1","10","10","bwr","orientMir","scaleRev","180","",""
"","","","","","html-slider-response","86","243729","0.0-80.0","p9t38n9y78","43","NaN","<div style=""width:500px;"">
                            <p style=""font-size:50px; font-weight:bold;""
                            >disgust</p>
                            <div style=""width:240px; margin: auto;"">
                                <img src=""images/map10_coolwarm_scaleRev_orientMir_000.png"" style= ""width:200px""alt=""img"">
                            </div>
                        </div>","-90","","0","","","","images/map10_coolwarm_scaleRev_orientMir_000.png","disgust","1","10","10","coolwarm","orientMir","scaleRev","000","",""
"","","","","","html-slider-response","87","245825","0.0-81.0","p9t38n9y78","43","NaN","<div style=""width:500px;"">
                            <p style=""font-size:50px; font-weight:bold;""
                            >disgust</p>
                            <div style=""width:240px; margin: auto;"">
                                <img src=""images/map13_viridis_scaleRev_orientMir_000.png"" style= ""width:200px""alt=""img"">
                            </div>
                        </div>","102","","0","","","","images/map13_viridis_scaleRev_orientMir_000.png","disgust","1","13","13","viridis","orientMir","scaleRev","000","",""
"","","","","","html-slider-response","88","248079","0.0-82.0","p9t38n9y78","43","NaN","<div style=""width:500px;"">
                            <p style=""font-size:50px; font-weight:bold;""
                            >disgust</p>
                            <div style=""width:240px; margin: auto;"">
                                <img src=""images/map12_seismic_scaleRev_orientDef_000.png"" style= ""width:200px""alt=""img"">
                            </div>
                        </div>","22","","0","","","","images/map12_seismic_scaleRev_orientDef_000.png","disgust","1","12","12","seismic","orientDef","scaleRev","000","",""
"","","","","","html-slider-response","89","250408","0.0-83.0","p9t38n9y78","43","NaN","<div style=""width:500px;"">
                            <p style=""font-size:50px; font-weight:bold;""
                            >disgust</p>
                            <div style=""width:240px; margin: auto;"">
                                <img src=""images/map27_GnBu_scaleDef_orientMir_090.png"" style= ""width:200px""alt=""img"">
                            </div>
                        </div>","-88","","0","","","","images/map27_GnBu_scaleDef_orientMir_090.png","disgust","1","27","27","GnBu","orientMir","scaleDef","090","",""
"","","","","","html-slider-response","90","252566","0.0-84.0","p9t38n9y78","43","NaN","<div style=""width:500px;"">
                            <p style=""font-size:50px; font-weight:bold;""
                            >disgust</p>
                            <div style=""width:240px; margin: auto;"">
                                <img src=""images/map02_YlGn_scaleDef_orientMir_270.png"" style= ""width:200px""alt=""img"">
                            </div>
                        </div>","153","","0","","","","images/map02_YlGn_scaleDef_orientMir_270.png","disgust","1","02","02","YlGn","orientMir","scaleDef","270","",""
"","","","","","html-slider-response","91","254266","0.0-85.0","p9t38n9y78","43","NaN","<div style=""width:500px;"">
                            <p style=""font-size:50px; font-weight:bold;""
                            >disgust</p>
                            <div style=""width:240px; margin: auto;"">
                                <img src=""images/map12_vanimo_scaleDef_orientMir_090.png"" style= ""width:200px""alt=""img"">
                            </div>
                        </div>","98","","0","","","","images/map12_vanimo_scaleDef_orientMir_090.png","disgust","1","12","12","vanimo","orientMir","scaleDef","090","",""
"","","","","","html-slider-response","92","255910","0.0-86.0","p9t38n9y78","43","NaN","<div style=""width:500px;"">
                            <p style=""font-size:50px; font-weight:bold;""
                            >disgust</p>
                            <div style=""width:240px; margin: auto;"">
                                <img src=""images/map02_BuGn_scaleRev_orientMir_180.png"" style= ""width:200px""alt=""img"">
                            </div>
                        </div>","124","","0","","","","images/map02_BuGn_scaleRev_orientMir_180.png","disgust","1","02","02","BuGn","orientMir","scaleRev","180","",""
"","","","","","html-slider-response","93","257866","0.0-87.0","p9t38n9y78","43","NaN","<div style=""width:500px;"">
                            <p style=""font-size:50px; font-weight:bold;""
                            >disgust</p>
                            <div style=""width:240px; margin: auto;"">
                                <img src=""images/map26_PuRd_scaleDef_orientMir_270.png"" style= ""width:200px""alt=""img"">
                            </div>
                        </div>","-112","","0","","","","images/map26_PuRd_scaleDef_orientMir_270.png","disgust","1","26","26","PuRd","orientMir","scaleDef","270","",""
"","","","","","html-slider-response","94","260593","0.0-88.0","p9t38n9y78","43","NaN","<div style=""width:500px;"">
                            <p style=""font-size:50px; font-weight:bold;""
                            >disgust</p>
                            <div style=""width:240px; margin: auto;"">
                                <img src=""images/map26_Reds_scaleRev_orientDef_000.png"" style= ""width:200px""alt=""img"">
                            </div>
                        </div>","-115","","0","","","","images/map26_Reds_scaleRev_orientDef_000.png","disgust","1","26","26","Reds","orientDef","scaleRev","000","",""
"","","","","","html-slider-response","95","307854","0.0-89.0","p9t38n9y78","43","NaN","<div style=""width:500px;"">
                            <p style=""font-size:50px; font-weight:bold;""
                            >disgust</p>
                            <div style=""width:240px; margin: auto;"">
                                <img src=""images/map07_PuOr_scaleRev_orientDef_000.png"" style= ""width:200px""alt=""img"">
                            </div>
                        </div>","42","","0","","","","images/map07_PuOr_scaleRev_orientDef_000.png","disgust","1","07","07","PuOr","orientDef","scaleRev","000","",""
"","","","","","html-slider-response","96","309812","0.0-90.0","p9t38n9y78","43","NaN","<div style=""width:500px;"">
                            <p style=""font-size:50px; font-weight:bold;""
                            >disgust</p>
                            <div style=""width:240px; margin: auto;"">
                                <img src=""images/map05_PiYG_scaleRev_orientDef_180.png"" style= ""width:200px""alt=""img"">
                            </div>
                        </div>","91","","0","","","","images/map05_PiYG_scaleRev_orientDef_180.png","disgust","1","05","05","PiYG","orientDef","scaleRev","180","",""
"","","","","","html-slider-response","97","312185","0.0-91.0","p9t38n9y78","43","NaN","<div style=""width:500px;"">
                            <p style=""font-size:50px; font-weight:bold;""
                            >disgust</p>
                            <div style=""width:240px; margin: auto;"">
                                <img src=""images/map23_Blues_scaleRev_orientDef_180.png"" style= ""width:200px""alt=""img"">
                            </div>
                        </div>","-47","","0","","","","images/map23_Blues_scaleRev_orientDef_180.png","disgust","1","23","23","Blues","orientDef","scaleRev","180","",""
"","","","","","html-slider-response","98","314379","0.0-92.0","p9t38n9y78","43","NaN","<div style=""width:500px;"">
                            <p style=""font-size:50px; font-weight:bold;""
                            >disgust</p>
                            <div style=""width:240px; margin: auto;"">
                                <img src=""images/map07_RdBu_scaleRev_orientMir_000.png"" style= ""width:200px""alt=""img"">
                            </div>
                        </div>","19","","0","","","","images/map07_RdBu_scaleRev_orientMir_000.png","disgust","1","07","07","RdBu","orientMir","scaleRev","000","",""
"","","","","","html-slider-response","99","322093","0.0-93.0","p9t38n9y78","43","NaN","<div style=""width:500px;"">
                            <p style=""font-size:50px; font-weight:bold;""
                            >disgust</p>
                            <div style=""width:240px; margin: auto;"">
                                <img src=""images/map26_YlOrRd_scaleDef_orientDef_270.png"" style= ""width:200px""alt=""img"">
                            </div>
                        </div>","64","","0","","","","images/map26_YlOrRd_scaleDef_orientDef_270.png","disgust","1","26","26","YlOrRd","orientDef","scaleDef","270","",""
"","","","","","html-slider-response","100","324317","0.0-94.0","p9t38n9y78","43","NaN","<div style=""width:500px;"">
                            <p style=""font-size:50px; font-weight:bold;""
                            >disgust</p>
                            <div style=""width:240px; margin: auto;"">
                                <img src=""images/map23_Greens_scaleDef_orientDef_270.png"" style= ""width:200px""alt=""img"">
                            </div>
                        </div>","106","","0","","","","images/map23_Greens_scaleDef_orientDef_270.png","disgust","1","23","23","Greens","orientDef","scaleDef","270","",""
"","","","","","html-button-response","101","400550","0.0-95.0","p9t38n9y78","43","75720","<p>Great Job! You've finished block 1.<br></br> You have 4 block(s) left to go.<br></br></p>","0","","","","","","","","","","","","","","","",""
"","","","","","html-button-response","102","401732","0.0-96.0","p9t38n9y78","43","1181","<p>In this block of trials, you will be asked to rate how much you associate each map with:</p > <p style = 'font-size:150%; font-weight: bold'>angry</p><br></br>","0","","","","","","","","","","","","","","","",""
"","","","","","html-slider-response","103","403677","0.0-97.0","p9t38n9y78","43","NaN","<div style=""width:500px;"">
                            <p style=""font-size:50px; font-weight:bold;""
                            >angry</p>
                            <div style=""width:240px; margin: auto;"">
                                <img src=""images/map10_RdYlGn_scaleRev_orientDef_000.png"" style= ""width:200px""alt=""img"">
                            </div>
                        </div>","64","","0","","","","images/map10_RdYlGn_scaleRev_orientDef_000.png","angry","1","10","10","RdYlGn","orientDef","scaleRev","000","",""
"","","","","","html-slider-response","104","406493","0.0-98.0","p9t38n9y78","43","NaN","<div style=""width:500px;"">
                            <p style=""font-size:50px; font-weight:bold;""
                            >angry</p>
                            <div style=""width:240px; margin: auto;"">
                                <img src=""images/map13_plasma_scaleDef_orientMir_090.png"" style= ""width:200px""alt=""img"">
                            </div>
                        </div>","-32","","0","","","","images/map13_plasma_scaleDef_orientMir_090.png","angry","1","13","13","plasma","orientMir","scaleDef","090","",""
"","","","","","html-slider-response","105","408127","0.0-99.0","p9t38n9y78","43","NaN","<div style=""width:500px;"">
                            <p style=""font-size:50px; font-weight:bold;""
                            >angry</p>
                            <div style=""width:240px; margin: auto;"">
                                <img src=""images/map10_Spectral_scaleRev_orientDef_180.png"" style= ""width:200px""alt=""img"">
                            </div>
                        </div>","42","","0","","","","images/map10_Spectral_scaleRev_orientDef_180.png","angry","1","10","10","Spectral","orientDef","scaleRev","180","",""
"","","","","","html-slider-response","106","410078","0.0-100.0","p9t38n9y78","43","NaN","<div style=""width:500px;"">
                            <p style=""font-size:50px; font-weight:bold;""
                            >angry</p>
                            <div style=""width:240px; margin: auto;"">
                                <img src=""images/map13_gist_earth_scaleRev_orientDef_000.png"" style= ""width:200px""alt=""img"">
                            </div>
                        </div>","-141","","0","","","","images/map13_gist_earth_scaleRev_orientDef_000.png","angry","1","13","13","gist","scaleRev","earth","orientDef","",""
"","","","","","html-slider-response","107","411448","0.0-101.0","p9t38n9y78","43","NaN","<div style=""width:500px;"">
                            <p style=""font-size:50px; font-weight:bold;""
                            >angry</p>
                            <div style=""width:240px; margin: auto;"">
                                <img src=""images/map15_Greys_scaleDef_orientMir_090.png"" style= ""width:200px""alt=""img"">
                            </div>
                        </div>","-141","","0","","","","images/map15_Greys_scaleDef_orientMir_090.png","angry","1","15","15","Greys","orientMir","scaleDef","090","",""
"","","","","","html-slider-response","108","413328","0.0-102.0","p9t38n9y78","43","NaN","<div style=""width:500px;"">
                            <p style=""font-size:50px; font-weight:bold;""
                            >angry</p>
                            <div style=""width:240px; margin: auto;"">
                                <img src=""images/map02_BuGn_scaleRev_orientMir_180.png"" style= ""width:200px""alt=""img"">
                            </div>
                        </div>","-175","","0","","","","images/map02_BuGn_scaleRev_orientMir_180.png","angry","1","02","02","BuGn","orientMir","scaleRev","180","",""
"","","","","","html-slider-response","109","414796","0.0-103.0","p9t38n9y78","43","NaN","<div style=""width:500px;"">
                            <p style=""font-size:50px; font-weight:bold;""
                            >angry</p>
                            <div style=""width:240px; margin: auto;"">
                                <img src=""images/map02_BuGn_scaleDef_orientMir_090.png"" style= ""width:200px""alt=""img"">
                            </div>
                        </div>","-175","","0","","","","images/map02_BuGn_scaleDef_orientMir_090.png","angry","1","02","02","BuGn","orientMir","scaleDef","090","",""
"","","","","","html-slider-response","110","417477","0.0-104.0","p9t38n9y78","43","NaN","<div style=""width:500px;"">
                            <p style=""font-size:50px; font-weight:bold;""
                            >angry</p>
                            <div style=""width:240px; margin: auto;"">
                                <img src=""images/map26_PuRd_scaleDef_orientMir_270.png"" style= ""width:200px""alt=""img"">
                            </div>
                        </div>","-31","","0","","","","images/map26_PuRd_scaleDef_orientMir_270.png","angry","1","26","26","PuRd","orientMir","scaleDef","270","",""
"","","","","","html-slider-response","111","419589","0.0-105.0","p9t38n9y78","43","NaN","<div style=""width:500px;"">
                            <p style=""font-size:50px; font-weight:bold;""
                            >angry</p>
                            <div style=""width:240px; margin: auto;"">
                                <img src=""images/map12_vanimo_scaleDef_orientMir_090.png"" style= ""width:200px""alt=""img"">
                            </div>
                        </div>","-26","","0","","","","images/map12_vanimo_scaleDef_orientMir_090.png","angry","1","12","12","vanimo","orientMir","scaleDef","090","",""
"","","","","","html-slider-response","112","421651","0.0-106.0","p9t38n9y78","43","NaN","<div style=""width:500px;"">
                            <p style=""font-size:50px; font-weight:bold;""
                            >angry</p>
                            <div style=""width:240px; margin: auto;"">
                                <img src=""images/map15_magma_scaleRev_orientDef_180.png"" style= ""width:200px""alt=""img"">
                            </div>
                        </div>","61","","0","","","","images/map15_magma_scaleRev_orientDef_180.png","angry","1","15","15","magma","orientDef","scaleRev","180","",""
"","","","","","html-slider-response","113","423561","0.0-107.0","p9t38n9y78","43","NaN","<div style=""width:500px;"">
                            <p style=""font-size:50px; font-weight:bold;""
                            >angry</p>
                            <div style=""width:240px; margin: auto;"">
                                <img src=""images/map10_bwr_scaleRev_orientMir_180.png"" style= ""width:200px""alt=""img"">
                            </div>
                        </div>","53","","0","","","","images/map10_bwr_scaleRev_orientMir_180.png","angry","1","10","10","bwr","orientMir","scaleRev","180","",""
"","","","","","html-slider-response","114","426045","0.0-108.0","p9t38n9y78","43","NaN","<div style=""width:500px;"">
                            <p style=""font-size:50px; font-weight:bold;""
                            >angry</p>
                            <div style=""width:240px; margin: auto;"">
                                <img src=""images/map27_RdPu_scaleDef_orientDef_090.png"" style= ""width:200px""alt=""img"">
                            </div>
                        </div>","-78","","0","","","","images/map27_RdPu_scaleDef_orientDef_090.png","angry","1","27","27","RdPu","orientDef","scaleDef","090","",""
"","","","","","html-slider-response","115","428143","0.0-109.0","p9t38n9y78","43","NaN","<div style=""width:500px;"">
                            <p style=""font-size:50px; font-weight:bold;""
                            >angry</p>
                            <div style=""width:240px; margin: auto;"">
                                <img src=""images/map10_coolwarm_scaleDef_orientDef_270.png"" style= ""width:200px""alt=""img"">
                            </div>
                        </div>","26","","0","","","","images/map10_coolwarm_scaleDef_orientDef_270.png","angry","1","10","10","coolwarm","orientDef","scaleDef","270","",""
"","","","","","html-slider-response","116","430444","0.0-110.0","p9t38n9y78","43","NaN","<div style=""width:500px;"">
                            <p style=""font-size:50px; font-weight:bold;""
                            >angry</p>
                            <div style=""width:240px; margin: auto;"">
                                <img src=""images/map12_managua_scaleRev_orientMir_000.png"" style= ""width:200px""alt=""img"">
                            </div>
                        </div>","-97","","0","","","","images/map12_managua_scaleRev_orientMir_000.png","angry","1","12","12","managua","orientMir","scaleRev","000","",""
"","","","","","html-slider-response","117","432615","0.0-111.0","p9t38n9y78","43","NaN","<div style=""width:500px;"">
                            <p style=""font-size:50px; font-weight:bold;""
                            >angry</p>
                            <div style=""width:240px; margin: auto;"">
                                <img src=""images/map23_Purples_scaleRev_orientDef_000.png"" style= ""width:200px""alt=""img"">
                            </div>
                        </div>","-141","","0","","","","images/map23_Purples_scaleRev_orientDef_000.png","angry","1","23","23","Purples","orientDef","scaleRev","000","",""
"","","","","","html-slider-response","118","434943","0.0-112.0","p9t38n9y78","43","NaN","<div style=""width:500px;"">
                            <p style=""font-size:50px; font-weight:bold;""
                            >angry</p>
                            <div style=""width:240px; margin: auto;"">
                                <img src=""images/map13_inferno_scaleDef_orientMir_270.png"" style= ""width:200px""alt=""img"">
                            </div>
                        </div>","130","","0","","","","images/map13_inferno_scaleDef_orientMir_270.png","angry","1","13","13","inferno","orientMir","scaleDef","270","",""
"","","","","","html-slider-response","119","437231","0.0-113.0","p9t38n9y78","43","NaN","<div style=""width:500px;"">
                            <p style=""font-size:50px; font-weight:bold;""
                            >angry</p>
                            <div style=""width:240px; margin: auto;"">
                                <img src=""images/map12_managua_scaleDef_orientDef_270.png"" style= ""width:200px""alt=""img"">
                            </div>
                        </div>","-19","","0","","","","images/map12_managua_scaleDef_orientDef_270.png","angry","1","12","12","managua","orientDef","scaleDef","270","",""
"","","","","","html-slider-response","120","439979","0.0-114.0","p9t38n9y78","43","NaN","<div style=""width:500px;"">
                            <p style=""font-size:50px; font-weight:bold;""
                            >angry</p>
                            <div style=""width:240px; margin: auto;"">
                                <img src=""images/map13_viridis_scaleDef_orientDef_270.png"" style= ""width:200px""alt=""img"">
                            </div>
                        </div>","-166","","0","","","","images/map13_viridis_scaleDef_orientDef_270.png","angry","1","13","13","viridis","orientDef","scaleDef","270","",""
"","","","","","html-slider-response","121","442343","0.0-115.0","p9t38n9y78","43","NaN","<div style=""width:500px;"">
                            <p style=""font-size:50px; font-weight:bold;""
                            >angry</p>
                            <div style=""width:240px; margin: auto;"">
                                <img src=""images/map13_turbo_scaleDef_orientDef_090.png"" style= ""width:200px""alt=""img"">
                            </div>
                        </div>","51","","0","","","","images/map13_turbo_scaleDef_orientDef_090.png","angry","1","13","13","turbo","orientDef","scaleDef","090","",""
"","","","","","html-slider-response","122","445277","0.0-116.0","p9t38n9y78","43","NaN","<div style=""width:500px;"">
                            <p style=""font-size:50px; font-weight:bold;""
                            >angry</p>
                            <div style=""width:240px; margin: auto;"">
                                <img src=""images/map27_PuRd_scaleRev_orientDef_000.png"" style= ""width:200px""alt=""img"">
                            </div>
                        </div>","-80","","0","","","","images/map27_PuRd_scaleRev_orientDef_000.png","angry","1","27","27","PuRd","orientDef","scaleRev","000","",""
"","","","","","html-slider-response","123","447095","0.0-117.0","p9t38n9y78","43","NaN","<div style=""width:500px;"">
                            <p style=""font-size:50px; font-weight:bold;""
                            >angry</p>
                            <div style=""width:240px; margin: auto;"">
                                <img src=""images/map10_bwr_scaleDef_orientMir_090.png"" style= ""width:200px""alt=""img"">
                            </div>
                        </div>","59","","0","","","","images/map10_bwr_scaleDef_orientMir_090.png","angry","1","10","10","bwr","orientMir","scaleDef","090","",""
"","","","","","html-slider-response","124","448860","0.0-118.0","p9t38n9y78","43","NaN","<div style=""width:500px;"">
                            <p style=""font-size:50px; font-weight:bold;""
                            >angry</p>
                            <div style=""width:240px; margin: auto;"">
                                <img src=""images/map27_GnBu_scaleRev_orientMir_180.png"" style= ""width:200px""alt=""img"">
                            </div>
                        </div>","-157","","0","","","","images/map27_GnBu_scaleRev_orientMir_180.png","angry","1","27","27","GnBu","orientMir","scaleRev","180","",""
"","","","","","html-slider-response","125","451162","0.0-119.0","p9t38n9y78","43","NaN","<div style=""width:500px;"">
                            <p style=""font-size:50px; font-weight:bold;""
                            >angry</p>
                            <div style=""width:240px; margin: auto;"">
                                <img src=""images/map15_magma_scaleDef_orientDef_090.png"" style= ""width:200px""alt=""img"">
                            </div>
                        </div>","78","","0","","","","images/map15_magma_scaleDef_orientDef_090.png","angry","1","15","15","magma","orientDef","scaleDef","090","",""
"","","","","","html-slider-response","126","452862","0.0-120.0","p9t38n9y78","43","NaN","<div style=""width:500px;"">
                            <p style=""font-size:50px; font-weight:bold;""
                            >angry</p>
                            <div style=""width:240px; margin: auto;"">
                                <img src=""images/map26_OrRd_scaleDef_orientMir_090.png"" style= ""width:200px""alt=""img"">
                            </div>
                        </div>","118","","0","","","","images/map26_OrRd_scaleDef_orientMir_090.png","angry","1","26","26","OrRd","orientMir","scaleDef","090","",""
"","","","","","html-slider-response","127","454861","0.0-121.0","p9t38n9y78","43","NaN","<div style=""width:500px;"">
                            <p style=""font-size:50px; font-weight:bold;""
                            >angry</p>
                            <div style=""width:240px; margin: auto;"">
                                <img src=""images/map10_seismic_scaleDef_orientMir_270.png"" style= ""width:200px""alt=""img"">
                            </div>
                        </div>","111","","0","","","","images/map10_seismic_scaleDef_orientMir_270.png","angry","1","10","10","seismic","orientMir","scaleDef","270","",""
"","","","","","html-slider-response","128","456750","0.0-122.0","p9t38n9y78","43","NaN","<div style=""width:500px;"">
                            <p style=""font-size:50px; font-weight:bold;""
                            >angry</p>
                            <div style=""width:240px; margin: auto;"">
                                <img src=""images/map05_PuOr_scaleDef_orientMir_270.png"" style= ""width:200px""alt=""img"">
                            </div>
                        </div>","-64","","0","","","","images/map05_PuOr_scaleDef_orientMir_270.png","angry","1","05","05","PuOr","orientMir","scaleDef","270","",""
"","","","","","html-slider-response","129","458844","0.0-123.0","p9t38n9y78","43","NaN","<div style=""width:500px;"">
                            <p style=""font-size:50px; font-weight:bold;""
                            >angry</p>
                            <div style=""width:240px; margin: auto;"">
                                <img src=""images/map23_Greens_scaleDef_orientDef_270.png"" style= ""width:200px""alt=""img"">
                            </div>
                        </div>","-154","","0","","","","images/map23_Greens_scaleDef_orientDef_270.png","angry","1","23","23","Greens","orientDef","scaleDef","270","",""
"","","","","","html-slider-response","130","460561","0.0-124.0","p9t38n9y78","43","NaN","<div style=""width:500px;"">
                            <p style=""font-size:50px; font-weight:bold;""
                            >angry</p>
                            <div style=""width:240px; margin: auto;"">
                                <img src=""images/map27_PuBu_scaleDef_orientMir_270.png"" style= ""width:200px""alt=""img"">
                            </div>
                        </div>","-145","","0","","","","images/map27_PuBu_scaleDef_orientMir_270.png","angry","1","27","27","PuBu","orientMir","scaleDef","270","",""
"","","","","","html-slider-response","131","462413","0.0-125.0","p9t38n9y78","43","NaN","<div style=""width:500px;"">
                            <p style=""font-size:50px; font-weight:bold;""
                            >angry</p>
                            <div style=""width:240px; margin: auto;"">
                                <img src=""images/map23_Oranges_scaleDef_orientMir_090.png"" style= ""width:200px""alt=""img"">
                            </div>
                        </div>","30","","0","","","","images/map23_Oranges_scaleDef_orientMir_090.png","angry","1","23","23","Oranges","orientMir","scaleDef","090","",""
"","","","","","html-slider-response","132","464531","0.0-126.0","p9t38n9y78","43","NaN","<div style=""width:500px;"">
                            <p style=""font-size:50px; font-weight:bold;""
                            >angry</p>
                            <div style=""width:240px; margin: auto;"">
                                <img src=""images/map02_PuBu_scaleRev_orientDef_000.png"" style= ""width:200px""alt=""img"">
                            </div>
                        </div>","-115","","0","","","","images/map02_PuBu_scaleRev_orientDef_000.png","angry","1","02","02","PuBu","orientDef","scaleRev","000","",""
"","","","","","html-slider-response","133","466077","0.0-127.0","p9t38n9y78","43","NaN","<div style=""width:500px;"">
                            <p style=""font-size:50px; font-weight:bold;""
                            >angry</p>
                            <div style=""width:240px; margin: auto;"">
                                <img src=""images/map05_BrBG_scaleRev_orientMir_180.png"" style= ""width:200px""alt=""img"">
                            </div>
                        </div>","-80","","0","","","","images/map05_BrBG_scaleRev_orientMir_180.png","angry","1","05","05","BrBG","orientMir","scaleRev","180","",""
"","","","","","html-slider-response","134","467314","0.0-128.0","p9t38n9y78","43","NaN","<div style=""width:500px;"">
                            <p style=""font-size:50px; font-weight:bold;""
                            >angry</p>
                            <div style=""width:240px; margin: auto;"">
                                <img src=""images/map12_berlin_scaleRev_orientDef_180.png"" style= ""width:200px""alt=""img"">
                            </div>
                        </div>","-70","","0","","","","images/map12_berlin_scaleRev_orientDef_180.png","angry","1","12","12","berlin","orientDef","scaleRev","180","",""
"","","","","","html-slider-response","135","469195","0.0-129.0","p9t38n9y78","43","NaN","<div style=""width:500px;"">
                            <p style=""font-size:50px; font-weight:bold;""
                            >angry</p>
                            <div style=""width:240px; margin: auto;"">
                                <img src=""images/map12_seismic_scaleRev_orientDef_000.png"" style= ""width:200px""alt=""img"">
                            </div>
                        </div>","28","","0","","","","images/map12_seismic_scaleRev_orientDef_000.png","angry","1","12","12","seismic","orientDef","scaleRev","000","",""
"","","","","","html-slider-response","136","471311","0.0-130.0","p9t38n9y78","43","NaN","<div style=""width:500px;"">
                            <p style=""font-size:50px; font-weight:bold;""
                            >angry</p>
                            <div style=""width:240px; margin: auto;"">
                                <img src=""images/map05_PRGn_scaleRev_orientMir_000.png"" style= ""width:200px""alt=""img"">
                            </div>
                        </div>","-112","","0","","","","images/map05_PRGn_scaleRev_orientMir_000.png","angry","1","05","05","PRGn","orientMir","scaleRev","000","",""
"","","","","","html-slider-response","137","473163","0.0-131.0","p9t38n9y78","43","NaN","<div style=""width:500px;"">
                            <p style=""font-size:50px; font-weight:bold;""
                            >angry</p>
                            <div style=""width:240px; margin: auto;"">
                                <img src=""images/map07_RdBu_scaleRev_orientMir_000.png"" style= ""width:200px""alt=""img"">
                            </div>
                        </div>","29","","0","","","","images/map07_RdBu_scaleRev_orientMir_000.png","angry","1","07","07","RdBu","orientMir","scaleRev","000","",""
"","","","","","html-slider-response","138","475110","0.0-132.0","p9t38n9y78","43","NaN","<div style=""width:500px;"">
                            <p style=""font-size:50px; font-weight:bold;""
                            >angry</p>
                            <div style=""width:240px; margin: auto;"">
                                <img src=""images/map05_PiYG_scaleRev_orientDef_180.png"" style= ""width:200px""alt=""img"">
                            </div>
                        </div>","-58","","0","","","","images/map05_PiYG_scaleRev_orientDef_180.png","angry","1","05","05","PiYG","orientDef","scaleRev","180","",""
"","","","","","html-slider-response","139","477128","0.0-133.0","p9t38n9y78","43","NaN","<div style=""width:500px;"">
                            <p style=""font-size:50px; font-weight:bold;""
                            >angry</p>
                            <div style=""width:240px; margin: auto;"">
                                <img src=""images/map26_OrRd_scaleRev_orientMir_180.png"" style= ""width:200px""alt=""img"">
                            </div>
                        </div>","166","","0","","","","images/map26_OrRd_scaleRev_orientMir_180.png","angry","1","26","26","OrRd","orientMir","scaleRev","180","",""
"","","","","","html-slider-response","140","479165","0.0-134.0","p9t38n9y78","43","NaN","<div style=""width:500px;"">
                            <p style=""font-size:50px; font-weight:bold;""
                            >angry</p>
                            <div style=""width:240px; margin: auto;"">
                                <img src=""images/map15_inferno_scaleRev_orientDef_000.png"" style= ""width:200px""alt=""img"">
                            </div>
                        </div>","169","","0","","","","images/map15_inferno_scaleRev_orientDef_000.png","angry","1","15","15","inferno","orientDef","scaleRev","000","",""
"","","","","","html-slider-response","141","481410","0.0-135.0","p9t38n9y78","43","NaN","<div style=""width:500px;"">
                            <p style=""font-size:50px; font-weight:bold;""
                            >angry</p>
                            <div style=""width:240px; margin: auto;"">
                                <img src=""images/map12_vanimo_scaleRev_orientMir_180.png"" style= ""width:200px""alt=""img"">
                            </div>
                        </div>","-113","","0","","","","images/map12_vanimo_scaleRev_orientMir_180.png","angry","1","12","12","vanimo","orientMir","scaleRev","180","",""
"","","","","","html-slider-response","142","512799","0.0-136.0","p9t38n9y78","43","NaN","<div style=""width:500px;"">
                            <p style=""font-size:50px; font-weight:bold;""
                            >angry</p>
                            <div style=""width:240px; margin: auto;"">
                                <img src=""images/map02_YlGn_scaleDef_orientMir_270.png"" style= ""width:200px""alt=""img"">
                            </div>
                        </div>","-101","","0","","","","images/map02_YlGn_scaleDef_orientMir_270.png","angry","1","02","02","YlGn","orientMir","scaleDef","270","",""
"","","","","","html-button-response","143","516070","0.0-137.0","p9t38n9y78","43","2753","<p>You are doing great!<br></br> You are halway done with the current block. When you are ready to continue, click the 'Continue' button.</p>","0","","","","","","","","","","","","","","","",""
"","","","","","html-slider-response","144","517471","0.0-138.0","p9t38n9y78","43","NaN","<div style=""width:500px;"">
                            <p style=""font-size:50px; font-weight:bold;""
                            >angry</p>
                            <div style=""width:240px; margin: auto;"">
                                <img src=""images/map07_RdGy_scaleRev_orientDef_180.png"" style= ""width:200px""alt=""img"">
                            </div>
                        </div>","68","","0","","","","images/map07_RdGy_scaleRev_orientDef_180.png","angry","1","07","07","RdGy","orientDef","scaleRev","180","",""
"","","","","","html-slider-response","145","519464","0.0-139.0","p9t38n9y78","43","NaN","<div style=""width:500px;"">
                            <p style=""font-size:50px; font-weight:bold;""
                            >angry</p>
                            <div style=""width:240px; margin: auto;"">
                                <img src=""images/map02_YlGnBu_scaleRev_orientDef_180.png"" style= ""width:200px""alt=""img"">
                            </div>
                        </div>","-99","","0","","","","images/map02_YlGnBu_scaleRev_orientDef_180.png","angry","1","02","02","YlGnBu","orientDef","scaleRev","180","",""
"","","","","","html-slider-response","146","521111","0.0-140.0","p9t38n9y78","43","NaN","<div style=""width:500px;"">
                            <p style=""font-size:50px; font-weight:bold;""
                            >angry</p>
                            <div style=""width:240px; margin: auto;"">
                                <img src=""images/map27_RdPu_scaleRev_orientDef_180.png"" style= ""width:200px""alt=""img"">
                            </div>
                        </div>","-42","","0","","","","images/map27_RdPu_scaleRev_orientDef_180.png","angry","1","27","27","RdPu","orientDef","scaleRev","180","",""
"","","","","","html-slider-response","147","522809","0.0-141.0","p9t38n9y78","43","NaN","<div style=""width:500px;"">
                            <p style=""font-size:50px; font-weight:bold;""
                            >angry</p>
                            <div style=""width:240px; margin: auto;"">
                                <img src=""images/map13_turbo_scaleRev_orientDef_180.png"" style= ""width:200px""alt=""img"">
                            </div>
                        </div>","35","","0","","","","images/map13_turbo_scaleRev_orientDef_180.png","angry","1","13","13","turbo","orientDef","scaleRev","180","",""
"","","","","","html-slider-response","148","524476","0.0-142.0","p9t38n9y78","43","NaN","<div style=""width:500px;"">
                            <p style=""font-size:50px; font-weight:bold;""
                            >angry</p>
                            <div style=""width:240px; margin: auto;"">
                                <img src=""images/map27_BuPu_scaleDef_orientDef_270.png"" style= ""width:200px""alt=""img"">
                            </div>
                        </div>","-131","","0","","","","images/map27_BuPu_scaleDef_orientDef_270.png","angry","1","27","27","BuPu","orientDef","scaleDef","270","",""
"","","","","","html-slider-response","149","526177","0.0-143.0","p9t38n9y78","43","NaN","<div style=""width:500px;"">
                            <p style=""font-size:50px; font-weight:bold;""
                            >angry</p>
                            <div style=""width:240px; margin: auto;"">
                                <img src=""images/map26_YlOrRd_scaleDef_orientDef_270.png"" style= ""width:200px""alt=""img"">
                            </div>
                        </div>","154","","0","","","","images/map26_YlOrRd_scaleDef_orientDef_270.png","angry","1","26","26","YlOrRd","orientDef","scaleDef","270","",""
"","","","","","html-slider-response","150","527426","0.0-144.0","p9t38n9y78","43","NaN","<div style=""width:500px;"">
                            <p style=""font-size:50px; font-weight:bold;""
                            >angry</p>
                            <div style=""width:240px; margin: auto;"">
                                <img src=""images/map26_YlOrBr_scaleRev_orientDef_180.png"" style= ""width:200px""alt=""img"">
                            </div>
                        </div>","155","","0","","","","images/map26_YlOrBr_scaleRev_orientDef_180.png","angry","1","26","26","YlOrBr","orientDef","scaleRev","180","",""
"","","","","","html-slider-response","151","529477","0.0-145.0","p9t38n9y78","43","NaN","<div style=""width:500px;"">
                            <p style=""font-size:50px; font-weight:bold;""
                            >angry</p>
                            <div style=""width:240px; margin: auto;"">
                                <img src=""images/map10_coolwarm_scaleRev_orientMir_000.png"" style= ""width:200px""alt=""img"">
                            </div>
                        </div>","16","","0","","","","images/map10_coolwarm_scaleRev_orientMir_000.png","angry","1","10","10","coolwarm","orientMir","scaleRev","000","",""
"","","","","","html-slider-response","152","531127","0.0-146.0","p9t38n9y78","43","NaN","<div style=""width:500px;"">
                            <p style=""font-size:50px; font-weight:bold;""
                            >angry</p>
                            <div style=""width:240px; margin: auto;"">
                                <img src=""images/map07_RdBu_scaleDef_orientDef_270.png"" style= ""width:200px""alt=""img"">
                            </div>
                        </div>","42","","0","","","","images/map07_RdBu_scaleDef_orientDef_270.png","angry","1","07","07","RdBu","orientDef","scaleDef","270","",""
"","","","","","html-slider-response","153","532912","0.0-147.0","p9t38n9y78","43","NaN","<div style=""width:500px;"">
                            <p style=""font-size:50px; font-weight:bold;""
                            >angry</p>
                            <div style=""width:240px; margin: auto;"">
                                <img src=""images/map23_Blues_scaleRev_orientDef_180.png"" style= ""width:200px""alt=""img"">
                            </div>
                        </div>","-160","","0","","","","images/map23_Blues_scaleRev_orientDef_180.png","angry","1","23","23","Blues","orientDef","scaleRev","180","",""
"","","","","","html-slider-response","154","534977","0.0-148.0","p9t38n9y78","43","NaN","<div style=""width:500px;"">
                            <p style=""font-size:50px; font-weight:bold;""
                            >angry</p>
                            <div style=""width:240px; margin: auto;"">
                                <img src=""images/map12_berlin_scaleDef_orientDef_090.png"" style= ""width:200px""alt=""img"">
                            </div>
                        </div>","63","","0","","","","images/map12_berlin_scaleDef_orientDef_090.png","angry","1","12","12","berlin","orientDef","scaleDef","090","",""
"","","","","","html-slider-response","155","536549","0.0-149.0","p9t38n9y78","43","NaN","<div style=""width:500px;"">
                            <p style=""font-size:50px; font-weight:bold;""
                            >angry</p>
                            <div style=""width:240px; margin: auto;"">
                                <img src=""images/map13_viridis_scaleRev_orientMir_000.png"" style= ""width:200px""alt=""img"">
                            </div>
                        </div>","-161","","0","","","","images/map13_viridis_scaleRev_orientMir_000.png","angry","1","13","13","viridis","orientMir","scaleRev","000","",""
"","","","","","html-slider-response","156","538309","0.0-150.0","p9t38n9y78","43","NaN","<div style=""width:500px;"">
                            <p style=""font-size:50px; font-weight:bold;""
                            >angry</p>
                            <div style=""width:240px; margin: auto;"">
                                <img src=""images/map05_BrBG_scaleDef_orientMir_090.png"" style= ""width:200px""alt=""img"">
                            </div>
                        </div>","-118","","0","","","","images/map05_BrBG_scaleDef_orientMir_090.png","angry","1","05","05","BrBG","orientMir","scaleDef","090","",""
"","","","","","html-slider-response","157","540010","0.0-151.0","p9t38n9y78","43","NaN","<div style=""width:500px;"">
                            <p style=""font-size:50px; font-weight:bold;""
                            >angry</p>
                            <div style=""width:240px; margin: auto;"">
                                <img src=""images/map15_Purples_scaleDef_orientMir_270.png"" style= ""width:200px""alt=""img"">
                            </div>
                        </div>","-152","","0","","","","images/map15_Purples_scaleDef_orientMir_270.png","angry","1","15","15","Purples","orientMir","scaleDef","270","",""
"","","","","","html-slider-response","158","541910","0.0-152.0","p9t38n9y78","43","NaN","<div style=""width:500px;"">
                            <p style=""font-size:50px; font-weight:bold;""
                            >angry</p>
                            <div style=""width:240px; margin: auto;"">
