"success","timeout","failed_images","failed_audio","failed_video","trial_type","trial_index","time_elapsed","internal_node_id","subject_id","condition_num","rt","stimulus","response","question_order","slider_start","practiceTrial","practiceTrialNum","correct","image_path","concept","repetition","map_id","map_num","scale_name","orientation_code","mapping_code","rotation_code","ishihara_plate","correct_response"
"true","false","[]","[]","[]","preload","0","279","0.0-0.0","ph21td8fw3","26","","","","","","","","","","","","","","","","","","",""
"","","","","","html-button-response","1","7835","0.0-1.0","ph21td8fw3","26","7554","Welcome to our experiment!<p>At the bottom of this screen, you will see a button that says ""Begin Experiment"".<br>Please only click that button when you are ready to complete the 30 minute experiment in one sitting.</p><p> Once you click that button, it will not be possible to restart the experiment.","0","","","","","","","","","","","","","","","",""
"true","","","","","fullscreen","2","9684","0.0-2.0","ph21td8fw3","26","847","","","","","","","","","","","","","","","","","",""
"","","","","","survey-multi-select","3","13035","0.0-3.0","ph21td8fw3","26","3347","","{""Consent"":[""<strong>I consent</strong>""]}","[0]","","","","","","","","","","","","","","",""
"","","","","","html-button-response","4","15433","0.0-4.0","ph21td8fw3","26","2396","Welcome! <p> This experiment involves two parts: demographic information, followed by the experimental task.<p> It will take about 30 minutes to complete both parts.","0","","","","","","","","","","","","","","","",""
"","","","","","survey-text","5","22501","0.0-5.0","ph21td8fw3","26","7060","","{""Age"":""18"",""Gender"":""Female"",""Race/ethnicity"":""White"",""Languages"":""English""}","","","","","","","","","","","","","","","",""
"","","","","","html-slider-response","6","73132","0.0-6.0","ph21td8fw3","26","50628","<div style='text-align:left; font-size:20px; line-height:25px; width: 1000px;'>
                                During this experiment you will be asked to rate how much you associate maps with                    different concepts.<br> Below, you can see some examples of the maps you will be asked to rate. Above the maps
                    is the list of concepts.<br>You will be asked                    to rate how much you associate each map with each concept on a scale from 'not at all' to 'very much' like the
                    one below. <br><br>
                    Now, please look at the list of concepts and maps. For each concept, think about the map you associate 'very
                    much' with the concept.<br>                     When you see that map during the experiment, please rate it near the 'very much' endpoint of the
                    scale.<br>Now, please think about which map you associate 'not at all'                     with each concept. When you see that map during the experiment, please rate it near the 'not at all' endpoint
                    of the scale.<br>
                    Please use the full range of the scale. That is, if a map is somewhat associated with the concept, you would
                    click partway between the middle point and right side of the scale.                    You will be asked to rate each map for a given concept before moving on to the next concept.<br>Press the
                    'Continue' button for instructions on how to use the slider.                    <br>
                </div>

                <div style=""width: 500px; margin: 0 auto;"">
                    <!-- Centered text paragraphs -->
                    <div style=""text-align: center; width: 500px;"">
                        <p style=""font-size:25px; line-height:15px;"">
                            angry&nbsp;&nbsp;&nbsp;&nbsp;
                            happy&nbsp;&nbsp;&nbsp;&nbsp;
                            sad&nbsp;&nbsp;&nbsp;&nbsp;
                            disgust&nbsp;&nbsp;&nbsp;&nbsp;
                            fearful
                        </p>
                        <!-- <p style=""font-size:20px; line-height:15px;"">happy</p>
                        <p style=""font-size:20px;line-height:15px;"">sad</p>
                        <p style=""font-size:20px;line-height:15px;"">disgust</p>
                        <p style=""font-size:20px;line-height:15px;"">fearful</p> -->
                    </div>
            

                    <!-- Grid section -->
                   <div style=""display: flex; justify-content: center; padding-top: 15px;"">
                    <div style=""display: grid; grid-template-columns: repeat(10, 55px); grid-gap: 5px; width: auto;"">
                        <img src=""images/map07_gist_earth_scaleDef_orientMir_180.png"" alt=""map"" style=""width: 100%;""><img src=""images/map12_cividis_scaleRev_orientDef_270.png"" alt=""map"" style=""width: 100%;""><img src=""images/map07_vanimo_scaleRev_orientMir_090.png"" alt=""map"" style=""width: 100%;""><img src=""images/map05_Spectral_scaleDef_orientDef_000.png"" alt=""map"" style=""width: 100%;""><img src=""images/map15_YlOrBr_scaleRev_orientDef_090.png"" alt=""map"" style=""width: 100%;""><img src=""images/map10_plasma_scaleDef_orientMir_000.png"" alt=""map"" style=""width: 100%;""><img src=""images/map10_viridis_scaleDef_orientDef_180.png"" alt=""map"" style=""width: 100%;""><img src=""images/map27_BrBG_scaleRev_orientMir_090.png"" alt=""map"" style=""width: 100%;""><img src=""images/map02_RdYlBu_scaleDef_orientMir_000.png"" alt=""map"" style=""width: 100%;""><img src=""images/map27_PRGn_scaleRev_orientDef_270.png"" alt=""map"" style=""width: 100%;""><img src=""images/map13_Oranges_scaleRev_orientMir_090.png"" alt=""map"" style=""width: 100%;""><img src=""images/map23_RdPu_scaleRev_orientDef_090.png"" alt=""map"" style=""width: 100%;""><img src=""images/map10_inferno_scaleRev_orientMir_270.png"" alt=""map"" style=""width: 100%;""><img src=""images/map05_bwr_scaleDef_orientMir_000.png"" alt=""map"" style=""width: 100%;""><img src=""images/map27_PiYG_scaleDef_orientDef_000.png"" alt=""map"" style=""width: 100%;""><img src=""images/map02_RdYlGn_scaleDef_orientMir_180.png"" alt=""map"" style=""width: 100%;""><img src=""images/map15_PuRd_scaleRev_orientMir_270.png"" alt=""map"" style=""width: 100%;""><img src=""images/map23_PuBu_scaleRev_orientMir_270.png"" alt=""map"" style=""width: 100%;""><img src=""images/map26_YlGn_scaleDef_orientMir_180.png"" alt=""map"" style=""width: 100%;""><img src=""images/map02_RdGy_scaleDef_orientDef_000.png"" alt=""map"" style=""width: 100%;""><img src=""images/map07_managua_scaleDef_orientDef_180.png"" alt=""map"" style=""width: 100%;""><img src=""images/map23_BuPu_scaleRev_orientDef_270.png"" alt=""map"" style=""width: 100%;""><img src=""images/map26_BuGn_scaleDef_orientMir_000.png"" alt=""map"" style=""width: 100%;""><img src=""images/map27_PuOr_scaleDef_orientMir_180.png"" alt=""map"" style=""width: 100%;""><img src=""images/map15_YlOrRd_scaleDef_orientDef_180.png"" alt=""map"" style=""width: 100%;""><img src=""images/map26_YlGnBu_scaleDef_orientDef_000.png"" alt=""map"" style=""width: 100%;""><img src=""images/map13_Blues_scaleRev_orientDef_090.png"" alt=""map"" style=""width: 100%;""><img src=""images/map07_berlin_scaleRev_orientDef_090.png"" alt=""map"" style=""width: 100%;""><img src=""images/map23_GnBu_scaleRev_orientMir_090.png"" alt=""map"" style=""width: 100%;""><img src=""images/map13_Reds_scaleDef_orientMir_180.png"" alt=""map"" style=""width: 100%;""><img src=""images/map10_turbo_scaleDef_orientDef_000.png"" alt=""map"" style=""width: 100%;""><img src=""images/map05_seismic_scaleRev_orientMir_270.png"" alt=""map"" style=""width: 100%;""><img src=""images/map12_magma_scaleDef_orientDef_000.png"" alt=""map"" style=""width: 100%;""><img src=""images/map02_RdBu_scaleDef_orientDef_180.png"" alt=""map"" style=""width: 100%;""><img src=""images/map12_Greys_scaleRev_orientMir_090.png"" alt=""map"" style=""width: 100%;""><img src=""images/map26_PuBuGn_scaleDef_orientDef_180.png"" alt=""map"" style=""width: 100%;""><img src=""images/map13_Greens_scaleDef_orientDef_180.png"" alt=""map"" style=""width: 100%;""><img src=""images/map12_Purples_scaleRev_orientMir_270.png"" alt=""map"" style=""width: 100%;""><img src=""images/map05_coolwarm_scaleDef_orientDef_180.png"" alt=""map"" style=""width: 100%;""><img src=""images/map15_OrRd_scaleDef_orientMir_000.png"" alt=""map"" style=""width: 100%;"">
                    </div>
                </div>

                    <!-- Clear floats -->
                    <div style=""clear: both;""></div>
                </div>
                            ","-80","","0","true","","","","","","","","","","","","",""
"","","","","","html-button-response","7","74432","0.0-7.0","ph21td8fw3","26","1299","<div style=""width:800px;""><p style=""text-align:left"">To move the slider, click and drag your cursor to the location of the scale where you would like to make your rating and then let go. When you let go of the slider, your response will be recorded and the next trial will begin. <br>
                    We are interested in your initial impressions of each map for the given concept, so please go with your first intuition. <br>
                    Before you begin the experiment, there will be four training trials for you to practice using the scale. <br>
                     When you are ready to start the training trials, please click ""Continue"".</p><br></div>","0","","","","","","","","","","","","","","","",""
"","","","","","html-slider-response","8","77992","0.0-8.0-0.0","ph21td8fw3","26","NaN","<div style=""width:500px;"">
                                    <p style=""font-size:25px;"">Please move the slider all the way to the <br> right endpoint of the scale</p>

                                    </div>
                                </div>","200","","0","true","0","true","","","","","","","","","","",""
"","","","","","html-button-response","9","79532","0.0-8.0-1.0","ph21td8fw3","26","1036","<p align='center'><b>Good job!</b> Click on 'Continue' to proceed.</p>","0","","","","","","","","","","","","","","","",""
"","","","","","html-slider-response","10","80809","0.0-9.0-0.0","ph21td8fw3","26","NaN","<div style=""width:500px;"">
                                    <p style=""font-size:25px;"">Please move the slider all the way to the <br> left endpoint of the scale</p>

                                    </div>
                                </div>","-200","","0","true","1","true","","","","","","","","","","",""
"","","","","","html-button-response","11","81982","0.0-9.0-1.0","ph21td8fw3","26","670","<p align='center'><b>Good job!</b> Click on 'Continue' to proceed.</p>","0","","","","","","","","","","","","","","","",""
"","","","","","html-slider-response","12","87343","0.0-10.0-0.0","ph21td8fw3","26","NaN","<div style=""width:500px;"">
                                    <p style=""font-size:25px;"">Please move the slider halfway between the center and right endpoint of the scale</p>

                                    </div>
                                </div>","108","","0","true","2","true","","","","","","","","","","",""
"","","","","","html-button-response","13","88548","0.0-10.0-1.0","ph21td8fw3","26","702","<p align='center'><b>Good job!</b> Click on 'Continue' to proceed.</p>","0","","","","","","","","","","","","","","","",""
"","","","","","html-slider-response","14","90342","0.0-11.0-0.0","ph21td8fw3","26","NaN","<div style=""width:500px;"">
                                    <p style=""font-size:25px;"">Please move the slider halfway between the center and left endpoint of the scale</p>

                                    </div>
                                </div>","-108","","0","true","3","true","","","","","","","","","","",""
"","","","","","html-button-response","15","91882","0.0-11.0-1.0","ph21td8fw3","26","1038","<p align='center'><b>Good job!</b> Click on 'Continue' to proceed.</p>","0","","","","","","","","","","","","","","","",""
"","","","","","html-button-response","16","92865","0.0-12.0","ph21td8fw3","26","982","<p>Great job! You've completed the practice trials. Now you will begin the main task.</p>","0","","","","","","","","","","","","","","","",""
"","","","","","html-button-response","17","94865","0.0-13.0","ph21td8fw3","26","1999","<p>In this block of trials, you will be asked to rate how much you associate each map with:</p > <p style = 'font-size:150%; font-weight: bold'>angry</p><br></br>","0","","","","","","","","","","","","","","","",""
"","","","","","html-slider-response","18","100343","0.0-14.0","ph21td8fw3","26","NaN","<div style=""width:500px;"">
                            <p style=""font-size:50px; font-weight:bold;""
                            >angry</p>
                            <div style=""width:240px; margin: auto;"">
                                <img src=""images/map12_Purples_scaleRev_orientMir_270.png"" style= ""width:200px""alt=""img"">
                            </div>
                        </div>","87","","0","","","","images/map12_Purples_scaleRev_orientMir_270.png","angry","1","12","12","Purples","orientMir","scaleRev","270","",""
"","","","","","html-slider-response","19","102961","0.0-15.0","ph21td8fw3","26","NaN","<div style=""width:500px;"">
                            <p style=""font-size:50px; font-weight:bold;""
                            >angry</p>
                            <div style=""width:240px; margin: auto;"">
                                <img src=""images/map27_PRGn_scaleRev_orientDef_270.png"" style= ""width:200px""alt=""img"">
                            </div>
                        </div>","145","","0","","","","images/map27_PRGn_scaleRev_orientDef_270.png","angry","1","27","27","PRGn","orientDef","scaleRev","270","",""
"","","","","","html-slider-response","20","104877","0.0-16.0","ph21td8fw3","26","NaN","<div style=""width:500px;"">
                            <p style=""font-size:50px; font-weight:bold;""
                            >angry</p>
                            <div style=""width:240px; margin: auto;"">
                                <img src=""images/map13_Greens_scaleDef_orientDef_180.png"" style= ""width:200px""alt=""img"">
                            </div>
                        </div>","13","","0","","","","images/map13_Greens_scaleDef_orientDef_180.png","angry","1","13","13","Greens","orientDef","scaleDef","180","",""
"","","","","","html-slider-response","21","109559","0.0-17.0","ph21td8fw3","26","NaN","<div style=""width:500px;"">
                            <p style=""font-size:50px; font-weight:bold;""
                            >angry</p>
                            <div style=""width:240px; margin: auto;"">
                                <img src=""images/map23_GnBu_scaleRev_orientMir_090.png"" style= ""width:200px""alt=""img"">
                            </div>
                        </div>","-92","","0","","","","images/map23_GnBu_scaleRev_orientMir_090.png","angry","1","23","23","GnBu","orientMir","scaleRev","090","",""
"","","","","","html-slider-response","22","111576","0.0-18.0","ph21td8fw3","26","NaN","<div style=""width:500px;"">
                            <p style=""font-size:50px; font-weight:bold;""
                            >angry</p>
                            <div style=""width:240px; margin: auto;"">
                                <img src=""images/map15_YlOrBr_scaleDef_orientDef_000.png"" style= ""width:200px""alt=""img"">
                            </div>
                        </div>","200","","0","","","","images/map15_YlOrBr_scaleDef_orientDef_000.png","angry","1","15","15","YlOrBr","orientDef","scaleDef","000","",""
"","","","","","html-slider-response","23","113908","0.0-19.0","ph21td8fw3","26","NaN","<div style=""width:500px;"">
                            <p style=""font-size:50px; font-weight:bold;""
                            >angry</p>
                            <div style=""width:240px; margin: auto;"">
                                <img src=""images/map12_Purples_scaleDef_orientMir_180.png"" style= ""width:200px""alt=""img"">
                            </div>
                        </div>","53","","0","","","","images/map12_Purples_scaleDef_orientMir_180.png","angry","1","12","12","Purples","orientMir","scaleDef","180","",""
"","","","","","html-slider-response","24","116109","0.0-20.0","ph21td8fw3","26","NaN","<div style=""width:500px;"">
                            <p style=""font-size:50px; font-weight:bold;""
                            >angry</p>
                            <div style=""width:240px; margin: auto;"">
                                <img src=""images/map26_YlGnBu_scaleRev_orientDef_090.png"" style= ""width:200px""alt=""img"">
                            </div>
                        </div>","-102","","0","","","","images/map26_YlGnBu_scaleRev_orientDef_090.png","angry","1","26","26","YlGnBu","orientDef","scaleRev","090","",""
"","","","","","html-slider-response","25","118159","0.0-21.0","ph21td8fw3","26","NaN","<div style=""width:500px;"">
                            <p style=""font-size:50px; font-weight:bold;""
                            >angry</p>
                            <div style=""width:240px; margin: auto;"">
                                <img src=""images/map12_cividis_scaleRev_orientDef_270.png"" style= ""width:200px""alt=""img"">
                            </div>
                        </div>","-73","","0","","","","images/map12_cividis_scaleRev_orientDef_270.png","angry","1","12","12","cividis","orientDef","scaleRev","270","",""
"","","","","","html-slider-response","26","120059","0.0-22.0","ph21td8fw3","26","NaN","<div style=""width:500px;"">
                            <p style=""font-size:50px; font-weight:bold;""
                            >angry</p>
                            <div style=""width:240px; margin: auto;"">
                                <img src=""images/map12_Greys_scaleRev_orientMir_090.png"" style= ""width:200px""alt=""img"">
                            </div>
                        </div>","56","","0","","","","images/map12_Greys_scaleRev_orientMir_090.png","angry","1","12","12","Greys","orientMir","scaleRev","090","",""
"","","","","","html-slider-response","27","122210","0.0-23.0","ph21td8fw3","26","NaN","<div style=""width:500px;"">
                            <p style=""font-size:50px; font-weight:bold;""
                            >angry</p>
                            <div style=""width:240px; margin: auto;"">
                                <img src=""images/map27_BrBG_scaleDef_orientMir_000.png"" style= ""width:200px""alt=""img"">
                            </div>
                        </div>","2","","0","","","","images/map27_BrBG_scaleDef_orientMir_000.png","angry","1","27","27","BrBG","orientMir","scaleDef","000","",""
"","","","","","html-slider-response","28","124759","0.0-24.0","ph21td8fw3","26","NaN","<div style=""width:500px;"">
                            <p style=""font-size:50px; font-weight:bold;""
                            >angry</p>
                            <div style=""width:240px; margin: auto;"">
                                <img src=""images/map02_RdBu_scaleRev_orientDef_270.png"" style= ""width:200px""alt=""img"">
                            </div>
                        </div>","22","","0","","","","images/map02_RdBu_scaleRev_orientDef_270.png","angry","1","02","02","RdBu","orientDef","scaleRev","270","",""
"","","","","","html-slider-response","29","126459","0.0-25.0","ph21td8fw3","26","NaN","<div style=""width:500px;"">
                            <p style=""font-size:50px; font-weight:bold;""
                            >angry</p>
                            <div style=""width:240px; margin: auto;"">
                                <img src=""images/map13_Blues_scaleDef_orientDef_000.png"" style= ""width:200px""alt=""img"">
                            </div>
                        </div>","-36","","0","","","","images/map13_Blues_scaleDef_orientDef_000.png","angry","1","13","13","Blues","orientDef","scaleDef","000","",""
"","","","","","html-slider-response","30","128476","0.0-26.0","ph21td8fw3","26","NaN","<div style=""width:500px;"">
                            <p style=""font-size:50px; font-weight:bold;""
                            >angry</p>
                            <div style=""width:240px; margin: auto;"">
                                <img src=""images/map26_BuGn_scaleRev_orientMir_090.png"" style= ""width:200px""alt=""img"">
                            </div>
                        </div>","40","","0","","","","images/map26_BuGn_scaleRev_orientMir_090.png","angry","1","26","26","BuGn","orientMir","scaleRev","090","",""
"","","","","","html-slider-response","31","130660","0.0-27.0","ph21td8fw3","26","NaN","<div style=""width:500px;"">
                            <p style=""font-size:50px; font-weight:bold;""
                            >angry</p>
                            <div style=""width:240px; margin: auto;"">
                                <img src=""images/map12_cividis_scaleDef_orientDef_180.png"" style= ""width:200px""alt=""img"">
                            </div>
                        </div>","45","","0","","","","images/map12_cividis_scaleDef_orientDef_180.png","angry","1","12","12","cividis","orientDef","scaleDef","180","",""
"","","","","","html-slider-response","32","132192","0.0-28.0","ph21td8fw3","26","NaN","<div style=""width:500px;"">
                            <p style=""font-size:50px; font-weight:bold;""
                            >angry</p>
                            <div style=""width:240px; margin: auto;"">
                                <img src=""images/map26_YlGnBu_scaleDef_orientDef_000.png"" style= ""width:200px""alt=""img"">
                            </div>
                        </div>","-48","","0","","","","images/map26_YlGnBu_scaleDef_orientDef_000.png","angry","1","26","26","YlGnBu","orientDef","scaleDef","000","",""
"","","","","","html-slider-response","33","133726","0.0-29.0","ph21td8fw3","26","NaN","<div style=""width:500px;"">
                            <p style=""font-size:50px; font-weight:bold;""
                            >angry</p>
                            <div style=""width:240px; margin: auto;"">
                                <img src=""images/map23_GnBu_scaleDef_orientMir_000.png"" style= ""width:200px""alt=""img"">
                            </div>
                        </div>","-58","","0","","","","images/map23_GnBu_scaleDef_orientMir_000.png","angry","1","23","23","GnBu","orientMir","scaleDef","000","",""
"","","","","","html-slider-response","34","135793","0.0-30.0","ph21td8fw3","26","NaN","<div style=""width:500px;"">
                            <p style=""font-size:50px; font-weight:bold;""
                            >angry</p>
                            <div style=""width:240px; margin: auto;"">
                                <img src=""images/map13_Oranges_scaleRev_orientMir_090.png"" style= ""width:200px""alt=""img"">
                            </div>
                        </div>","197","","0","","","","images/map13_Oranges_scaleRev_orientMir_090.png","angry","1","13","13","Oranges","orientMir","scaleRev","090","",""
"","","","","","html-slider-response","35","137675","0.0-31.0","ph21td8fw3","26","NaN","<div style=""width:500px;"">
                            <p style=""font-size:50px; font-weight:bold;""
                            >angry</p>
                            <div style=""width:240px; margin: auto;"">
                                <img src=""images/map15_YlOrRd_scaleDef_orientDef_180.png"" style= ""width:200px""alt=""img"">
                            </div>
                        </div>","198","","0","","","","images/map15_YlOrRd_scaleDef_orientDef_180.png","angry","1","15","15","YlOrRd","orientDef","scaleDef","180","",""
"","","","","","html-slider-response","36","139876","0.0-32.0","ph21td8fw3","26","NaN","<div style=""width:500px;"">
                            <p style=""font-size:50px; font-weight:bold;""
                            >angry</p>
                            <div style=""width:240px; margin: auto;"">
                                <img src=""images/map23_BuPu_scaleDef_orientDef_180.png"" style= ""width:200px""alt=""img"">
                            </div>
                        </div>","22","","0","","","","images/map23_BuPu_scaleDef_orientDef_180.png","angry","1","23","23","BuPu","orientDef","scaleDef","180","",""
"","","","","","html-slider-response","37","141392","0.0-33.0","ph21td8fw3","26","NaN","<div style=""width:500px;"">
                            <p style=""font-size:50px; font-weight:bold;""
                            >angry</p>
                            <div style=""width:240px; margin: auto;"">
                                <img src=""images/map13_Blues_scaleRev_orientDef_090.png"" style= ""width:200px""alt=""img"">
                            </div>
                        </div>","-30","","0","","","","images/map13_Blues_scaleRev_orientDef_090.png","angry","1","13","13","Blues","orientDef","scaleRev","090","",""
"","","","","","html-slider-response","38","143343","0.0-34.0","ph21td8fw3","26","NaN","<div style=""width:500px;"">
                            <p style=""font-size:50px; font-weight:bold;""
                            >angry</p>
                            <div style=""width:240px; margin: auto;"">
                                <img src=""images/map10_inferno_scaleRev_orientMir_270.png"" style= ""width:200px""alt=""img"">
                            </div>
                        </div>","198","","0","","","","images/map10_inferno_scaleRev_orientMir_270.png","angry","1","10","10","inferno","orientMir","scaleRev","270","",""
"","","","","","html-slider-response","39","144742","0.0-35.0","ph21td8fw3","26","NaN","<div style=""width:500px;"">
                            <p style=""font-size:50px; font-weight:bold;""
                            >angry</p>
                            <div style=""width:240px; margin: auto;"">
                                <img src=""images/map26_YlGn_scaleRev_orientMir_270.png"" style= ""width:200px""alt=""img"">
                            </div>
                        </div>","-45","","0","","","","images/map26_YlGn_scaleRev_orientMir_270.png","angry","1","26","26","YlGn","orientMir","scaleRev","270","",""
"","","","","","html-slider-response","40","147308","0.0-36.0","ph21td8fw3","26","NaN","<div style=""width:500px;"">
                            <p style=""font-size:50px; font-weight:bold;""
                            >angry</p>
                            <div style=""width:240px; margin: auto;"">
                                <img src=""images/map05_coolwarm_scaleRev_orientDef_270.png"" style= ""width:200px""alt=""img"">
                            </div>
                        </div>","86","","0","","","","images/map05_coolwarm_scaleRev_orientDef_270.png","angry","1","05","05","coolwarm","orientDef","scaleRev","270","",""
"","","","","","html-slider-response","41","149026","0.0-37.0","ph21td8fw3","26","NaN","<div style=""width:500px;"">
                            <p style=""font-size:50px; font-weight:bold;""
                            >angry</p>
                            <div style=""width:240px; margin: auto;"">
                                <img src=""images/map12_magma_scaleDef_orientDef_000.png"" style= ""width:200px""alt=""img"">
                            </div>
                        </div>","194","","0","","","","images/map12_magma_scaleDef_orientDef_000.png","angry","1","12","12","magma","orientDef","scaleDef","000","",""
"","","","","","html-slider-response","42","151509","0.0-38.0","ph21td8fw3","26","NaN","<div style=""width:500px;"">
                            <p style=""font-size:50px; font-weight:bold;""
                            >angry</p>
                            <div style=""width:240px; margin: auto;"">
                                <img src=""images/map27_PiYG_scaleDef_orientDef_000.png"" style= ""width:200px""alt=""img"">
                            </div>
                        </div>","2","","0","","","","images/map27_PiYG_scaleDef_orientDef_000.png","angry","1","27","27","PiYG","orientDef","scaleDef","000","",""
"","","","","","html-slider-response","43","153442","0.0-39.0","ph21td8fw3","26","NaN","<div style=""width:500px;"">
                            <p style=""font-size:50px; font-weight:bold;""
                            >angry</p>
                            <div style=""width:240px; margin: auto;"">
                                <img src=""images/map07_vanimo_scaleRev_orientMir_090.png"" style= ""width:200px""alt=""img"">
                            </div>
                        </div>","117","","0","","","","images/map07_vanimo_scaleRev_orientMir_090.png","angry","1","07","07","vanimo","orientMir","scaleRev","090","",""
"","","","","","html-slider-response","44","156192","0.0-40.0","ph21td8fw3","26","NaN","<div style=""width:500px;"">
                            <p style=""font-size:50px; font-weight:bold;""
                            >angry</p>
                            <div style=""width:240px; margin: auto;"">
                                <img src=""images/map10_turbo_scaleDef_orientDef_000.png"" style= ""width:200px""alt=""img"">
                            </div>
                        </div>","197","","0","","","","images/map10_turbo_scaleDef_orientDef_000.png","angry","1","10","10","turbo","orientDef","scaleDef","000","",""
"","","","","","html-slider-response","45","158292","0.0-41.0","ph21td8fw3","26","NaN","<div style=""width:500px;"">
                            <p style=""font-size:50px; font-weight:bold;""
                            >angry</p>
                            <div style=""width:240px; margin: auto;"">
                                <img src=""images/map02_RdBu_scaleDef_orientDef_180.png"" style= ""width:200px""alt=""img"">
                            </div>
                        </div>","8","","0","","","","images/map02_RdBu_scaleDef_orientDef_180.png","angry","1","02","02","RdBu","orientDef","scaleDef","180","",""
"","","","","","html-slider-response","46","160392","0.0-42.0","ph21td8fw3","26","NaN","<div style=""width:500px;"">
                            <p style=""font-size:50px; font-weight:bold;""
                            >angry</p>
                            <div style=""width:240px; margin: auto;"">
                                <img src=""images/map15_YlOrRd_scaleRev_orientDef_270.png"" style= ""width:200px""alt=""img"">
                            </div>
                        </div>","198","","0","","","","images/map15_YlOrRd_scaleRev_orientDef_270.png","angry","1","15","15","YlOrRd","orientDef","scaleRev","270","",""
"","","","","","html-slider-response","47","161891","0.0-43.0","ph21td8fw3","26","NaN","<div style=""width:500px;"">
                            <p style=""font-size:50px; font-weight:bold;""
                            >angry</p>
                            <div style=""width:240px; margin: auto;"">
                                <img src=""images/map05_bwr_scaleRev_orientMir_090.png"" style= ""width:200px""alt=""img"">
                            </div>
                        </div>","21","","0","","","","images/map05_bwr_scaleRev_orientMir_090.png","angry","1","05","05","bwr","orientMir","scaleRev","090","",""
"","","","","","html-slider-response","48","163576","0.0-44.0","ph21td8fw3","26","NaN","<div style=""width:500px;"">
                            <p style=""font-size:50px; font-weight:bold;""
                            >angry</p>
                            <div style=""width:240px; margin: auto;"">
                                <img src=""images/map15_YlOrBr_scaleRev_orientDef_090.png"" style= ""width:200px""alt=""img"">
                            </div>
                        </div>","194","","0","","","","images/map15_YlOrBr_scaleRev_orientDef_090.png","angry","1","15","15","YlOrBr","orientDef","scaleRev","090","",""
"","","","","","html-slider-response","49","165309","0.0-45.0","ph21td8fw3","26","NaN","<div style=""width:500px;"">
                            <p style=""font-size:50px; font-weight:bold;""
                            >angry</p>
                            <div style=""width:240px; margin: auto;"">
                                <img src=""images/map02_RdGy_scaleDef_orientDef_000.png"" style= ""width:200px""alt=""img"">
                            </div>
                        </div>","30","","0","","","","images/map02_RdGy_scaleDef_orientDef_000.png","angry","1","02","02","RdGy","orientDef","scaleDef","000","",""
"","","","","","html-slider-response","50","166759","0.0-46.0","ph21td8fw3","26","NaN","<div style=""width:500px;"">
                            <p style=""font-size:50px; font-weight:bold;""
                            >angry</p>
                            <div style=""width:240px; margin: auto;"">
                                <img src=""images/map23_PuBu_scaleRev_orientMir_270.png"" style= ""width:200px""alt=""img"">
                            </div>
                        </div>","16","","0","","","","images/map23_PuBu_scaleRev_orientMir_270.png","angry","1","23","23","PuBu","orientMir","scaleRev","270","",""
"","","","","","html-slider-response","51","168975","0.0-47.0","ph21td8fw3","26","NaN","<div style=""width:500px;"">
                            <p style=""font-size:50px; font-weight:bold;""
                            >angry</p>
                            <div style=""width:240px; margin: auto;"">
                                <img src=""images/map10_plasma_scaleRev_orientMir_090.png"" style= ""width:200px""alt=""img"">
                            </div>
                        </div>","194","","0","","","","images/map10_plasma_scaleRev_orientMir_090.png","angry","1","10","10","plasma","orientMir","scaleRev","090","",""
"","","","","","html-slider-response","52","170675","0.0-48.0","ph21td8fw3","26","NaN","<div style=""width:500px;"">
                            <p style=""font-size:50px; font-weight:bold;""
                            >angry</p>
                            <div style=""width:240px; margin: auto;"">
                                <img src=""images/map13_Greens_scaleRev_orientDef_270.png"" style= ""width:200px""alt=""img"">
                            </div>
                        </div>","14","","0","","","","images/map13_Greens_scaleRev_orientDef_270.png","angry","1","13","13","Greens","orientDef","scaleRev","270","",""
"","","","","","html-slider-response","53","172209","0.0-49.0","ph21td8fw3","26","NaN","<div style=""width:500px;"">
                            <p style=""font-size:50px; font-weight:bold;""
                            >angry</p>
                            <div style=""width:240px; margin: auto;"">
                                <img src=""images/map26_YlGn_scaleDef_orientMir_180.png"" style= ""width:200px""alt=""img"">
                            </div>
                        </div>","14","","0","","","","images/map26_YlGn_scaleDef_orientMir_180.png","angry","1","26","26","YlGn","orientMir","scaleDef","180","",""
"","","","","","html-slider-response","54","174009","0.0-50.0","ph21td8fw3","26","NaN","<div style=""width:500px;"">
                            <p style=""font-size:50px; font-weight:bold;""
                            >angry</p>
                            <div style=""width:240px; margin: auto;"">
                                <img src=""images/map12_magma_scaleRev_orientDef_090.png"" style= ""width:200px""alt=""img"">
                            </div>
                        </div>","193","","0","","","","images/map12_magma_scaleRev_orientDef_090.png","angry","1","12","12","magma","orientDef","scaleRev","090","",""
"","","","","","html-slider-response","55","175325","0.0-51.0","ph21td8fw3","26","NaN","<div style=""width:500px;"">
                            <p style=""font-size:50px; font-weight:bold;""
                            >angry</p>
                            <div style=""width:240px; margin: auto;"">
                                <img src=""images/map10_inferno_scaleDef_orientMir_180.png"" style= ""width:200px""alt=""img"">
                            </div>
                        </div>","193","","0","","","","images/map10_inferno_scaleDef_orientMir_180.png","angry","1","10","10","inferno","orientMir","scaleDef","180","",""
"","","","","","html-slider-response","56","177241","0.0-52.0","ph21td8fw3","26","NaN","<div style=""width:500px;"">
                            <p style=""font-size:50px; font-weight:bold;""
                            >angry</p>
                            <div style=""width:240px; margin: auto;"">
                                <img src=""images/map27_PuOr_scaleRev_orientMir_270.png"" style= ""width:200px""alt=""img"">
                            </div>
                        </div>","24","","0","","","","images/map27_PuOr_scaleRev_orientMir_270.png","angry","1","27","27","PuOr","orientMir","scaleRev","270","",""
"","","","","","html-slider-response","57","179442","0.0-53.0","ph21td8fw3","26","NaN","<div style=""width:500px;"">
                            <p style=""font-size:50px; font-weight:bold;""
                            >angry</p>
                            <div style=""width:240px; margin: auto;"">
                                <img src=""images/map07_berlin_scaleRev_orientDef_090.png"" style= ""width:200px""alt=""img"">
                            </div>
                        </div>","61","","0","","","","images/map07_berlin_scaleRev_orientDef_090.png","angry","1","07","07","berlin","orientDef","scaleRev","090","",""
"","","","","","html-button-response","58","181081","0.0-54.0","ph21td8fw3","26","1137","<p>You are doing great!<br></br> You are halway done with the current block. When you are ready to continue, click the 'Continue' button.</p>","0","","","","","","","","","","","","","","","",""
"","","","","","html-slider-response","59","182375","0.0-55.0","ph21td8fw3","26","NaN","<div style=""width:500px;"">
                            <p style=""font-size:50px; font-weight:bold;""
                            >angry</p>
                            <div style=""width:240px; margin: auto;"">
                                <img src=""images/map13_Reds_scaleRev_orientMir_270.png"" style= ""width:200px""alt=""img"">
                            </div>
                        </div>","200","","0","","","","images/map13_Reds_scaleRev_orientMir_270.png","angry","1","13","13","Reds","orientMir","scaleRev","270","",""
"","","","","","html-slider-response","60","183876","0.0-56.0","ph21td8fw3","26","NaN","<div style=""width:500px;"">
                            <p style=""font-size:50px; font-weight:bold;""
                            >angry</p>
                            <div style=""width:240px; margin: auto;"">
                                <img src=""images/map07_managua_scaleDef_orientDef_180.png"" style= ""width:200px""alt=""img"">
                            </div>
                        </div>","23","","0","","","","images/map07_managua_scaleDef_orientDef_180.png","angry","1","07","07","managua","orientDef","scaleDef","180","",""
"","","","","","html-slider-response","61","185558","0.0-57.0","ph21td8fw3","26","NaN","<div style=""width:500px;"">
                            <p style=""font-size:50px; font-weight:bold;""
                            >angry</p>
                            <div style=""width:240px; margin: auto;"">
                                <img src=""images/map05_Spectral_scaleDef_orientDef_000.png"" style= ""width:200px""alt=""img"">
                            </div>
                        </div>","12","","0","","","","images/map05_Spectral_scaleDef_orientDef_000.png","angry","1","05","05","Spectral","orientDef","scaleDef","000","",""
"","","","","","html-slider-response","62","186608","0.0-58.0","ph21td8fw3","26","NaN","<div style=""width:500px;"">
                            <p style=""font-size:50px; font-weight:bold;""
                            >angry</p>
                            <div style=""width:240px; margin: auto;"">
                                <img src=""images/map27_BrBG_scaleRev_orientMir_090.png"" style= ""width:200px""alt=""img"">
                            </div>
                        </div>","6","","0","","","","images/map27_BrBG_scaleRev_orientMir_090.png","angry","1","27","27","BrBG","orientMir","scaleRev","090","",""
"","","","","","html-slider-response","63","189141","0.0-59.0","ph21td8fw3","26","NaN","<div style=""width:500px;"">
                            <p style=""font-size:50px; font-weight:bold;""
                            >angry</p>
                            <div style=""width:240px; margin: auto;"">
                                <img src=""images/map02_RdGy_scaleRev_orientDef_090.png"" style= ""width:200px""alt=""img"">
                            </div>
                        </div>","-148","","0","","","","images/map02_RdGy_scaleRev_orientDef_090.png","angry","1","02","02","RdGy","orientDef","scaleRev","090","",""
"","","","","","html-slider-response","64","190392","0.0-60.0","ph21td8fw3","26","NaN","<div style=""width:500px;"">
                            <p style=""font-size:50px; font-weight:bold;""
                            >angry</p>
                            <div style=""width:240px; margin: auto;"">
                                <img src=""images/map23_PuBu_scaleDef_orientMir_180.png"" style= ""width:200px""alt=""img"">
                            </div>
                        </div>","-142","","0","","","","images/map23_PuBu_scaleDef_orientMir_180.png","angry","1","23","23","PuBu","orientMir","scaleDef","180","",""
"","","","","","html-slider-response","65","192008","0.0-61.0","ph21td8fw3","26","NaN","<div style=""width:500px;"">
                            <p style=""font-size:50px; font-weight:bold;""
                            >angry</p>
                            <div style=""width:240px; margin: auto;"">
                                <img src=""images/map15_OrRd_scaleDef_orientMir_000.png"" style= ""width:200px""alt=""img"">
                            </div>
                        </div>","190","","0","","","","images/map15_OrRd_scaleDef_orientMir_000.png","angry","1","15","15","OrRd","orientMir","scaleDef","000","",""
"","","","","","html-slider-response","66","193841","0.0-62.0","ph21td8fw3","26","NaN","<div style=""width:500px;"">
                            <p style=""font-size:50px; font-weight:bold;""
                            >angry</p>
                            <div style=""width:240px; margin: auto;"">
                                <img src=""images/map15_PuRd_scaleDef_orientMir_180.png"" style= ""width:200px""alt=""img"">
                            </div>
                        </div>","82","","0","","","","images/map15_PuRd_scaleDef_orientMir_180.png","angry","1","15","15","PuRd","orientMir","scaleDef","180","",""
"","","","","","html-slider-response","67","195358","0.0-63.0","ph21td8fw3","26","NaN","<div style=""width:500px;"">
                            <p style=""font-size:50px; font-weight:bold;""
                            >angry</p>
                            <div style=""width:240px; margin: auto;"">
                                <img src=""images/map26_BuGn_scaleDef_orientMir_000.png"" style= ""width:200px""alt=""img"">
                            </div>
                        </div>","-131","","0","","","","images/map26_BuGn_scaleDef_orientMir_000.png","angry","1","26","26","BuGn","orientMir","scaleDef","000","",""
"","","","","","html-slider-response","68","196324","0.0-64.0","ph21td8fw3","26","NaN","<div style=""width:500px;"">
                            <p style=""font-size:50px; font-weight:bold;""
                            >angry</p>
                            <div style=""width:240px; margin: auto;"">
                                <img src=""images/map26_PuBuGn_scaleDef_orientDef_180.png"" style= ""width:200px""alt=""img"">
                            </div>
                        </div>","-127","","0","","","","images/map26_PuBuGn_scaleDef_orientDef_180.png","angry","1","26","26","PuBuGn","orientDef","scaleDef","180","",""
"","","","","","html-slider-response","69","197392","0.0-65.0","ph21td8fw3","26","NaN","<div style=""width:500px;"">
                            <p style=""font-size:50px; font-weight:bold;""
                            >angry</p>
                            <div style=""width:240px; margin: auto;"">
                                <img src=""images/map02_RdYlBu_scaleRev_orientMir_090.png"" style= ""width:200px""alt=""img"">
                            </div>
                        </div>","-127","","0","","","","images/map02_RdYlBu_scaleRev_orientMir_090.png","angry","1","02","02","RdYlBu","orientMir","scaleRev","090","",""
"","","","","","html-slider-response","70","198375","0.0-66.0","ph21td8fw3","26","NaN","<div style=""width:500px;"">
                            <p style=""font-size:50px; font-weight:bold;""
                            >angry</p>
                            <div style=""width:240px; margin: auto;"">
                                <img src=""images/map23_RdPu_scaleRev_orientDef_090.png"" style= ""width:200px""alt=""img"">
                            </div>
                        </div>","-127","","0","","","","images/map23_RdPu_scaleRev_orientDef_090.png","angry","1","23","23","RdPu","orientDef","scaleRev","090","",""
"","","","","","html-slider-response","71","200158","0.0-67.0","ph21td8fw3","26","NaN","<div style=""width:500px;"">
                            <p style=""font-size:50px; font-weight:bold;""
                            >angry</p>
                            <div style=""width:240px; margin: auto;"">
                                <img src=""images/map05_seismic_scaleDef_orientMir_180.png"" style= ""width:200px""alt=""img"">
                            </div>
                        </div>","28","","0","","","","images/map05_seismic_scaleDef_orientMir_180.png","angry","1","05","05","seismic","orientMir","scaleDef","180","",""
"","","","","","html-slider-response","72","201492","0.0-68.0","ph21td8fw3","26","NaN","<div style=""width:500px;"">
                            <p style=""font-size:50px; font-weight:bold;""
                            >angry</p>
                            <div style=""width:240px; margin: auto;"">
                                <img src=""images/map05_Spectral_scaleRev_orientDef_090.png"" style= ""width:200px""alt=""img"">
                            </div>
                        </div>","-147","","0","","","","images/map05_Spectral_scaleRev_orientDef_090.png","angry","1","05","05","Spectral","orientDef","scaleRev","090","",""
"","","","","","html-slider-response","73","203408","0.0-69.0","ph21td8fw3","26","NaN","<div style=""width:500px;"">
                            <p style=""font-size:50px; font-weight:bold;""
                            >angry</p>
                            <div style=""width:240px; margin: auto;"">
                                <img src=""images/map07_vanimo_scaleDef_orientMir_000.png"" style= ""width:200px""alt=""img"">
                            </div>
                        </div>","94","","0","","","","images/map07_vanimo_scaleDef_orientMir_000.png","angry","1","07","07","vanimo","orientMir","scaleDef","000","",""
"","","","","","html-slider-response","74","205024","0.0-70.0","ph21td8fw3","26","NaN","<div style=""width:500px;"">
                            <p style=""font-size:50px; font-weight:bold;""
                            >angry</p>
                            <div style=""width:240px; margin: auto;"">
                                <img src=""images/map27_PRGn_scaleDef_orientDef_180.png"" style= ""width:200px""alt=""img"">
                            </div>
                        </div>","-105","","0","","","","images/map27_PRGn_scaleDef_orientDef_180.png","angry","1","27","27","PRGn","orientDef","scaleDef","180","",""
"","","","","","html-slider-response","75","206675","0.0-71.0","ph21td8fw3","26","NaN","<div style=""width:500px;"">
                            <p style=""font-size:50px; font-weight:bold;""
                            >angry</p>
                            <div style=""width:240px; margin: auto;"">
                                <img src=""images/map13_Reds_scaleDef_orientMir_180.png"" style= ""width:200px""alt=""img"">
                            </div>
                        </div>","123","","0","","","","images/map13_Reds_scaleDef_orientMir_180.png","angry","1","13","13","Reds","orientMir","scaleDef","180","",""
"","","","","","html-slider-response","76","208141","0.0-72.0","ph21td8fw3","26","NaN","<div style=""width:500px;"">
                            <p style=""font-size:50px; font-weight:bold;""
                            >angry</p>
                            <div style=""width:240px; margin: auto;"">
                                <img src=""images/map02_RdYlGn_scaleDef_orientMir_180.png"" style= ""width:200px""alt=""img"">
                            </div>
                        </div>","-141","","0","","","","images/map02_RdYlGn_scaleDef_orientMir_180.png","angry","1","02","02","RdYlGn","orientMir","scaleDef","180","",""
"","","","","","html-slider-response","77","209425","0.0-73.0","ph21td8fw3","26","NaN","<div style=""width:500px;"">
                            <p style=""font-size:50px; font-weight:bold;""
                            >angry</p>
                            <div style=""width:240px; margin: auto;"">
                                <img src=""images/map02_RdYlBu_scaleDef_orientMir_000.png"" style= ""width:200px""alt=""img"">
                            </div>
                        </div>","-142","","0","","","","images/map02_RdYlBu_scaleDef_orientMir_000.png","angry","1","02","02","RdYlBu","orientMir","scaleDef","000","",""
"","","","","","html-slider-response","78","210741","0.0-74.0","ph21td8fw3","26","NaN","<div style=""width:500px;"">
                            <p style=""font-size:50px; font-weight:bold;""
                            >angry</p>
                            <div style=""width:240px; margin: auto;"">
                                <img src=""images/map27_PiYG_scaleRev_orientDef_090.png"" style= ""width:200px""alt=""img"">
                            </div>
                        </div>","-129","","0","","","","images/map27_PiYG_scaleRev_orientDef_090.png","angry","1","27","27","PiYG","orientDef","scaleRev","090","",""
"","","","","","html-slider-response","79","212642","0.0-75.0","ph21td8fw3","26","NaN","<div style=""width:500px;"">
                            <p style=""font-size:50px; font-weight:bold;""
                            >angry</p>
                            <div style=""width:240px; margin: auto;"">
                                <img src=""images/map07_berlin_scaleDef_orientDef_000.png"" style= ""width:200px""alt=""img"">
                            </div>
                        </div>","22","","0","","","","images/map07_berlin_scaleDef_orientDef_000.png","angry","1","07","07","berlin","orientDef","scaleDef","000","",""
"","","","","","html-slider-response","80","214342","0.0-76.0","ph21td8fw3","26","NaN","<div style=""width:500px;"">
                            <p style=""font-size:50px; font-weight:bold;""
                            >angry</p>
                            <div style=""width:240px; margin: auto;"">
                                <img src=""images/map07_gist_earth_scaleDef_orientMir_180.png"" style= ""width:200px""alt=""img"">
                            </div>
                        </div>","-6","","0","","","","images/map07_gist_earth_scaleDef_orientMir_180.png","angry","1","07","07","gist","scaleDef","earth","orientMir","",""
"","","","","","html-slider-response","81","215492","0.0-77.0","ph21td8fw3","26","NaN","<div style=""width:500px;"">
                            <p style=""font-size:50px; font-weight:bold;""
                            >angry</p>
                            <div style=""width:240px; margin: auto;"">
                                <img src=""images/map27_PuOr_scaleDef_orientMir_180.png"" style= ""width:200px""alt=""img"">
                            </div>
                        </div>","-39","","0","","","","images/map27_PuOr_scaleDef_orientMir_180.png","angry","1","27","27","PuOr","orientMir","scaleDef","180","",""
"","","","","","html-slider-response","82","216758","0.0-78.0","ph21td8fw3","26","NaN","<div style=""width:500px;"">
                            <p style=""font-size:50px; font-weight:bold;""
                            >angry</p>
                            <div style=""width:240px; margin: auto;"">
                                <img src=""images/map10_viridis_scaleRev_orientDef_270.png"" style= ""width:200px""alt=""img"">
                            </div>
                        </div>","-39","","0","","","","images/map10_viridis_scaleRev_orientDef_270.png","angry","1","10","10","viridis","orientDef","scaleRev","270","",""
"","","","","","html-slider-response","83","217825","0.0-79.0","ph21td8fw3","26","NaN","<div style=""width:500px;"">
                            <p style=""font-size:50px; font-weight:bold;""
                            >angry</p>
                            <div style=""width:240px; margin: auto;"">
                                <img src=""images/map12_Greys_scaleDef_orientMir_000.png"" style= ""width:200px""alt=""img"">
                            </div>
                        </div>","-39","","0","","","","images/map12_Greys_scaleDef_orientMir_000.png","angry","1","12","12","Greys","orientMir","scaleDef","000","",""
"","","","","","html-slider-response","84","218841","0.0-80.0","ph21td8fw3","26","NaN","<div style=""width:500px;"">
                            <p style=""font-size:50px; font-weight:bold;""
                            >angry</p>
                            <div style=""width:240px; margin: auto;"">
                                <img src=""images/map26_PuBuGn_scaleRev_orientDef_270.png"" style= ""width:200px""alt=""img"">
                            </div>
                        </div>","-39","","0","","","","images/map26_PuBuGn_scaleRev_orientDef_270.png","angry","1","26","26","PuBuGn","orientDef","scaleRev","270","",""
"","","","","","html-slider-response","85","219974","0.0-81.0","ph21td8fw3","26","NaN","<div style=""width:500px;"">
                            <p style=""font-size:50px; font-weight:bold;""
                            >angry</p>
                            <div style=""width:240px; margin: auto;"">
                                <img src=""images/map13_Oranges_scaleDef_orientMir_000.png"" style= ""width:200px""alt=""img"">
                            </div>
                        </div>","-24","","0","","","","images/map13_Oranges_scaleDef_orientMir_000.png","angry","1","13","13","Oranges","orientMir","scaleDef","000","",""
"","","","","","html-slider-response","86","221491","0.0-82.0","ph21td8fw3","26","NaN","<div style=""width:500px;"">
                            <p style=""font-size:50px; font-weight:bold;""
                            >angry</p>
                            <div style=""width:240px; margin: auto;"">
                                <img src=""images/map10_plasma_scaleDef_orientMir_000.png"" style= ""width:200px""alt=""img"">
                            </div>
                        </div>","186","","0","","","","images/map10_plasma_scaleDef_orientMir_000.png","angry","1","10","10","plasma","orientMir","scaleDef","000","",""
"","","","","","html-slider-response","87","223191","0.0-83.0","ph21td8fw3","26","NaN","<div style=""width:500px;"">
                            <p style=""font-size:50px; font-weight:bold;""
                            >angry</p>
                            <div style=""width:240px; margin: auto;"">
                                <img src=""images/map23_RdPu_scaleDef_orientDef_000.png"" style= ""width:200px""alt=""img"">
                            </div>
                        </div>","50","","0","","","","images/map23_RdPu_scaleDef_orientDef_000.png","angry","1","23","23","RdPu","orientDef","scaleDef","000","",""
"","","","","","html-slider-response","88","224491","0.0-84.0","ph21td8fw3","26","NaN","<div style=""width:500px;"">
                            <p style=""font-size:50px; font-weight:bold;""
                            >angry</p>
                            <div style=""width:240px; margin: auto;"">
                                <img src=""images/map02_RdYlGn_scaleRev_orientMir_270.png"" style= ""width:200px""alt=""img"">
                            </div>
                        </div>","68","","0","","","","images/map02_RdYlGn_scaleRev_orientMir_270.png","angry","1","02","02","RdYlGn","orientMir","scaleRev","270","",""
"","","","","","html-slider-response","89","226291","0.0-85.0","ph21td8fw3","26","NaN","<div style=""width:500px;"">
                            <p style=""font-size:50px; font-weight:bold;""
                            >angry</p>
                            <div style=""width:240px; margin: auto;"">
                                <img src=""images/map05_coolwarm_scaleDef_orientDef_180.png"" style= ""width:200px""alt=""img"">
                            </div>
                        </div>","-32","","0","","","","images/map05_coolwarm_scaleDef_orientDef_180.png","angry","1","05","05","coolwarm","orientDef","scaleDef","180","",""
"","","","","","html-slider-response","90","227841","0.0-86.0","ph21td8fw3","26","NaN","<div style=""width:500px;"">
                            <p style=""font-size:50px; font-weight:bold;""
                            >angry</p>
                            <div style=""width:240px; margin: auto;"">
                                <img src=""images/map15_PuRd_scaleRev_orientMir_270.png"" style= ""width:200px""alt=""img"">
                            </div>
                        </div>","49","","0","","","","images/map15_PuRd_scaleRev_orientMir_270.png","angry","1","15","15","PuRd","orientMir","scaleRev","270","",""
"","","","","","html-slider-response","91","229040","0.0-87.0","ph21td8fw3","26","NaN","<div style=""width:500px;"">
                            <p style=""font-size:50px; font-weight:bold;""
                            >angry</p>
                            <div style=""width:240px; margin: auto;"">
                                <img src=""images/map05_bwr_scaleDef_orientMir_000.png"" style= ""width:200px""alt=""img"">
                            </div>
                        </div>","-44","","0","","","","images/map05_bwr_scaleDef_orientMir_000.png","angry","1","05","05","bwr","orientMir","scaleDef","000","",""
"","","","","","html-slider-response","92","230140","0.0-88.0","ph21td8fw3","26","NaN","<div style=""width:500px;"">
                            <p style=""font-size:50px; font-weight:bold;""
                            >angry</p>
                            <div style=""width:240px; margin: auto;"">
                                <img src=""images/map07_gist_earth_scaleRev_orientMir_270.png"" style= ""width:200px""alt=""img"">
                            </div>
                        </div>","-39","","0","","","","images/map07_gist_earth_scaleRev_orientMir_270.png","angry","1","07","07","gist","scaleRev","earth","orientMir","",""
"","","","","","html-slider-response","93","231741","0.0-89.0","ph21td8fw3","26","NaN","<div style=""width:500px;"">
                            <p style=""font-size:50px; font-weight:bold;""
                            >angry</p>
                            <div style=""width:240px; margin: auto;"">
                                <img src=""images/map15_OrRd_scaleRev_orientMir_090.png"" style= ""width:200px""alt=""img"">
                            </div>
                        </div>","190","","0","","","","images/map15_OrRd_scaleRev_orientMir_090.png","angry","1","15","15","OrRd","orientMir","scaleRev","090","",""
"","","","","","html-slider-response","94","233108","0.0-90.0","ph21td8fw3","26","NaN","<div style=""width:500px;"">
                            <p style=""font-size:50px; font-weight:bold;""
                            >angry</p>
                            <div style=""width:240px; margin: auto;"">
                                <img src=""images/map23_BuPu_scaleRev_orientDef_270.png"" style= ""width:200px""alt=""img"">
                            </div>
                        </div>","-36","","0","","","","images/map23_BuPu_scaleRev_orientDef_270.png","angry","1","23","23","BuPu","orientDef","scaleRev","270","",""
"","","","","","html-slider-response","95","234557","0.0-91.0","ph21td8fw3","26","NaN","<div style=""width:500px;"">
                            <p style=""font-size:50px; font-weight:bold;""
                            >angry</p>
                            <div style=""width:240px; margin: auto;"">
                                <img src=""images/map10_viridis_scaleDef_orientDef_180.png"" style= ""width:200px""alt=""img"">
                            </div>
                        </div>","32","","0","","","","images/map10_viridis_scaleDef_orientDef_180.png","angry","1","10","10","viridis","orientDef","scaleDef","180","",""
"","","","","","html-slider-response","96","235875","0.0-92.0","ph21td8fw3","26","NaN","<div style=""width:500px;"">
                            <p style=""font-size:50px; font-weight:bold;""
                            >angry</p>
                            <div style=""width:240px; margin: auto;"">
                                <img src=""images/map05_seismic_scaleRev_orientMir_270.png"" style= ""width:200px""alt=""img"">
                            </div>
                        </div>","-135","","0","","","","images/map05_seismic_scaleRev_orientMir_270.png","angry","1","05","05","seismic","orientMir","scaleRev","270","",""
"","","","","","html-slider-response","97","237258","0.0-93.0","ph21td8fw3","26","NaN","<div style=""width:500px;"">
                            <p style=""font-size:50px; font-weight:bold;""
                            >angry</p>
                            <div style=""width:240px; margin: auto;"">
                                <img src=""images/map07_managua_scaleRev_orientDef_270.png"" style= ""width:200px""alt=""img"">
                            </div>
                        </div>","82","","0","","","","images/map07_managua_scaleRev_orientDef_270.png","angry","1","07","07","managua","orientDef","scaleRev","270","",""
"","","","","","html-slider-response","98","239190","0.0-94.0","ph21td8fw3","26","NaN","<div style=""width:500px;"">
                            <p style=""font-size:50px; font-weight:bold;""
                            >angry</p>
                            <div style=""width:240px; margin: auto;"">
                                <img src=""images/map10_turbo_scaleRev_orientDef_090.png"" style= ""width:200px""alt=""img"">
                            </div>
                        </div>","186","","0","","","","images/map10_turbo_scaleRev_orientDef_090.png","angry","1","10","10","turbo","orientDef","scaleRev","090","",""
"","","","","","html-button-response","99","242280","0.0-95.0","ph21td8fw3","26","2587","<p>Great Job! You've finished block 1.<br></br> You have 4 block(s) left to go.<br></br></p>","0","","","","","","","","","","","","","","","",""
"","","","","","html-button-response","100","243113","0.0-96.0","ph21td8fw3","26","832","<p>In this block of trials, you will be asked to rate how much you associate each map with:</p > <p style = 'font-size:150%; font-weight: bold'>happy</p><br></br>","0","","","","","","","","","","","","","","","",""
"","","","","","html-slider-response","101","244290","0.0-97.0","ph21td8fw3","26","NaN","<div style=""width:500px;"">
                            <p style=""font-size:50px; font-weight:bold;""
                            >happy</p>
                            <div style=""width:240px; margin: auto;"">
                                <img src=""images/map15_YlOrRd_scaleDef_orientDef_180.png"" style= ""width:200px""alt=""img"">
                            </div>
                        </div>","-186","","0","","","","images/map15_YlOrRd_scaleDef_orientDef_180.png","happy","1","15","15","YlOrRd","orientDef","scaleDef","180","",""
"","","","","","html-slider-response","102","245641","0.0-98.0","ph21td8fw3","26","NaN","<div style=""width:500px;"">
                            <p style=""font-size:50px; font-weight:bold;""
                            >happy</p>
                            <div style=""width:240px; margin: auto;"">
                                <img src=""images/map02_RdGy_scaleRev_orientDef_090.png"" style= ""width:200px""alt=""img"">
                            </div>
                        </div>","-185","","0","","","","images/map02_RdGy_scaleRev_orientDef_090.png","happy","1","02","02","RdGy","orientDef","scaleRev","090","",""
"","","","","","html-slider-response","103","246674","0.0-99.0","ph21td8fw3","26","NaN","<div style=""width:500px;"">
                            <p style=""font-size:50px; font-weight:bold;""
                            >happy</p>
                            <div style=""width:240px; margin: auto;"">
                                <img src=""images/map27_PuOr_scaleRev_orientMir_270.png"" style= ""width:200px""alt=""img"">
                            </div>
                        </div>","-185","","0","","","","images/map27_PuOr_scaleRev_orientMir_270.png","happy","1","27","27","PuOr","orientMir","scaleRev","270","",""
"","","","","","html-slider-response","104","247740","0.0-100.0","ph21td8fw3","26","NaN","<div style=""width:500px;"">
                            <p style=""font-size:50px; font-weight:bold;""
                            >happy</p>
                            <div style=""width:240px; margin: auto;"">
                                <img src=""images/map23_BuPu_scaleRev_orientDef_270.png"" style= ""width:200px""alt=""img"">
                            </div>
                        </div>","-185","","0","","","","images/map23_BuPu_scaleRev_orientDef_270.png","happy","1","23","23","BuPu","orientDef","scaleRev","270","",""
"","","","","","html-slider-response","105","248757","0.0-101.0","ph21td8fw3","26","NaN","<div style=""width:500px;"">
                            <p style=""font-size:50px; font-weight:bold;""
                            >happy</p>
                            <div style=""width:240px; margin: auto;"">
                                <img src=""images/map27_PRGn_scaleRev_orientDef_270.png"" style= ""width:200px""alt=""img"">
                            </div>
                        </div>","-185","","0","","","","images/map27_PRGn_scaleRev_orientDef_270.png","happy","1","27","27","PRGn","orientDef","scaleRev","270","",""
"","","","","","html-slider-response","106","249741","0.0-102.0","ph21td8fw3","26","NaN","<div style=""width:500px;"">
                            <p style=""font-size:50px; font-weight:bold;""
                            >happy</p>
                            <div style=""width:240px; margin: auto;"">
                                <img src=""images/map12_cividis_scaleDef_orientDef_180.png"" style= ""width:200px""alt=""img"">
                            </div>
                        </div>","-185","","0","","","","images/map12_cividis_scaleDef_orientDef_180.png","happy","1","12","12","cividis","orientDef","scaleDef","180","",""
"","","","","","html-slider-response","107","250924","0.0-103.0","ph21td8fw3","26","NaN","<div style=""width:500px;"">
                            <p style=""font-size:50px; font-weight:bold;""
                            >happy</p>
                            <div style=""width:240px; margin: auto;"">
                                <img src=""images/map26_BuGn_scaleRev_orientMir_090.png"" style= ""width:200px""alt=""img"">
                            </div>
                        </div>","-185","","0","","","","images/map26_BuGn_scaleRev_orientMir_090.png","happy","1","26","26","BuGn","orientMir","scaleRev","090","",""
"","","","","","html-slider-response","108","253174","0.0-104.0","ph21td8fw3","26","NaN","<div style=""width:500px;"">
                            <p style=""font-size:50px; font-weight:bold;""
                            >happy</p>
                            <div style=""width:240px; margin: auto;"">
                                <img src=""images/map27_BrBG_scaleDef_orientMir_000.png"" style= ""width:200px""alt=""img"">
                            </div>
                        </div>","36","","0","","","","images/map27_BrBG_scaleDef_orientMir_000.png","happy","1","27","27","BrBG","orientMir","scaleDef","000","",""
"","","","","","html-slider-response","109","254641","0.0-105.0","ph21td8fw3","26","NaN","<div style=""width:500px;"">
                            <p style=""font-size:50px; font-weight:bold;""
                            >happy</p>
                            <div style=""width:240px; margin: auto;"">
                                <img src=""images/map15_YlOrRd_scaleRev_orientDef_270.png"" style= ""width:200px""alt=""img"">
                            </div>
                        </div>","-190","","0","","","","images/map15_YlOrRd_scaleRev_orientDef_270.png","happy","1","15","15","YlOrRd","orientDef","scaleRev","270","",""
"","","","","","html-slider-response","110","255807","0.0-106.0","ph21td8fw3","26","NaN","<div style=""width:500px;"">
                            <p style=""font-size:50px; font-weight:bold;""
                            >happy</p>
                            <div style=""width:240px; margin: auto;"">
                                <img src=""images/map10_turbo_scaleDef_orientDef_000.png"" style= ""width:200px""alt=""img"">
                            </div>
                        </div>","-190","","0","","","","images/map10_turbo_scaleDef_orientDef_000.png","happy","1","10","10","turbo","orientDef","scaleDef","000","",""
"","","","","","html-slider-response","111","256941","0.0-107.0","ph21td8fw3","26","NaN","<div style=""width:500px;"">
                            <p style=""font-size:50px; font-weight:bold;""
                            >happy</p>
                            <div style=""width:240px; margin: auto;"">
                                <img src=""images/map13_Reds_scaleRev_orientMir_270.png"" style= ""width:200px""alt=""img"">
                            </div>
                        </div>","-190","","0","","","","images/map13_Reds_scaleRev_orientMir_270.png","happy","1","13","13","Reds","orientMir","scaleRev","270","",""
"","","","","","html-slider-response","112","257990","0.0-108.0","ph21td8fw3","26","NaN","<div style=""width:500px;"">
                            <p style=""font-size:50px; font-weight:bold;""
                            >happy</p>
                            <div style=""width:240px; margin: auto;"">
                                <img src=""images/map13_Reds_scaleDef_orientMir_180.png"" style= ""width:200px""alt=""img"">
                            </div>
                        </div>","-190","","0","","","","images/map13_Reds_scaleDef_orientMir_180.png","happy","1","13","13","Reds","orientMir","scaleDef","180","",""
"","","","","","html-slider-response","113","259341","0.0-109.0","ph21td8fw3","26","NaN","<div style=""width:500px;"">
                            <p style=""font-size:50px; font-weight:bold;""
                            >happy</p>
                            <div style=""width:240px; margin: auto;"">
                                <img src=""images/map12_magma_scaleDef_orientDef_000.png"" style= ""width:200px""alt=""img"">
                            </div>
                        </div>","-190","","0","","","","images/map12_magma_scaleDef_orientDef_000.png","happy","1","12","12","magma","orientDef","scaleDef","000","",""
"","","","","","html-slider-response","114","260391","0.0-110.0","ph21td8fw3","26","NaN","<div style=""width:500px;"">
                            <p style=""font-size:50px; font-weight:bold;""
                            >happy</p>
                            <div style=""width:240px; margin: auto;"">
                                <img src=""images/map13_Oranges_scaleRev_orientMir_090.png"" style= ""width:200px""alt=""img"">
                            </div>
                        </div>","-190","","0","","","","images/map13_Oranges_scaleRev_orientMir_090.png","happy","1","13","13","Oranges","orientMir","scaleRev","090","",""
"","","","","","html-slider-response","115","261341","0.0-111.0","ph21td8fw3","26","NaN","<div style=""width:500px;"">
                            <p style=""font-size:50px; font-weight:bold;""
                            >happy</p>
                            <div style=""width:240px; margin: auto;"">
                                <img src=""images/map02_RdYlGn_scaleDef_orientMir_180.png"" style= ""width:200px""alt=""img"">
                            </div>
                        </div>","-190","","0","","","","images/map02_RdYlGn_scaleDef_orientMir_180.png","happy","1","02","02","RdYlGn","orientMir","scaleDef","180","",""
"","","","","","html-slider-response","116","262408","0.0-112.0","ph21td8fw3","26","NaN","<div style=""width:500px;"">
                            <p style=""font-size:50px; font-weight:bold;""
                            >happy</p>
                            <div style=""width:240px; margin: auto;"">
                                <img src=""images/map23_GnBu_scaleRev_orientMir_090.png"" style= ""width:200px""alt=""img"">
                            </div>
                        </div>","-190","","0","","","","images/map23_GnBu_scaleRev_orientMir_090.png","happy","1","23","23","GnBu","orientMir","scaleRev","090","",""
"","","","","","html-slider-response","117","263407","0.0-113.0","ph21td8fw3","26","NaN","<div style=""width:500px;"">
                            <p style=""font-size:50px; font-weight:bold;""
                            >happy</p>
                            <div style=""width:240px; margin: auto;"">
                                <img src=""images/map26_PuBuGn_scaleRev_orientDef_270.png"" style= ""width:200px""alt=""img"">
                            </div>
                        </div>","-190","","0","","","","images/map26_PuBuGn_scaleRev_orientDef_270.png","happy","1","26","26","PuBuGn","orientDef","scaleRev","270","",""
"","","","","","html-slider-response","118","264357","0.0-114.0","ph21td8fw3","26","NaN","<div style=""width:500px;"">
                            <p style=""font-size:50px; font-weight:bold;""
                            >happy</p>
                            <div style=""width:240px; margin: auto;"">
                                <img src=""images/map05_Spectral_scaleDef_orientDef_000.png"" style= ""width:200px""alt=""img"">
                            </div>
                        </div>","-190","","0","","","","images/map05_Spectral_scaleDef_orientDef_000.png","happy","1","05","05","Spectral","orientDef","scaleDef","000","",""
"","","","","","html-slider-response","119","265374","0.0-115.0","ph21td8fw3","26","NaN","<div style=""width:500px;"">
                            <p style=""font-size:50px; font-weight:bold;""
                            >happy</p>
                            <div style=""width:240px; margin: auto;"">
                                <img src=""images/map23_RdPu_scaleRev_orientDef_090.png"" style= ""width:200px""alt=""img"">
                            </div>
                        </div>","-190","","0","","","","images/map23_RdPu_scaleRev_orientDef_090.png","happy","1","23","23","RdPu","orientDef","scaleRev","090","",""
"","","","","","html-slider-response","120","266690","0.0-116.0","ph21td8fw3","26","NaN","<div style=""width:500px;"">
                            <p style=""font-size:50px; font-weight:bold;""
                            >happy</p>
                            <div style=""width:240px; margin: auto;"">
                                <img src=""images/map07_managua_scaleRev_orientDef_270.png"" style= ""width:200px""alt=""img"">
                            </div>
                        </div>","-188","","0","","","","images/map07_managua_scaleRev_orientDef_270.png","happy","1","07","07","managua","orientDef","scaleRev","270","",""
"","","","","","html-slider-response","121","267690","0.0-117.0","ph21td8fw3","26","NaN","<div style=""width:500px;"">
                            <p style=""font-size:50px; font-weight:bold;""
                            >happy</p>
                            <div style=""width:240px; margin: auto;"">
                                <img src=""images/map13_Greens_scaleDef_orientDef_180.png"" style= ""width:200px""alt=""img"">
                            </div>
                        </div>","-188","","0","","","","images/map13_Greens_scaleDef_orientDef_180.png","happy","1","13","13","Greens","orientDef","scaleDef","180","",""
"","","","","","html-slider-response","122","268607","0.0-118.0","ph21td8fw3","26","NaN","<div style=""width:500px;"">
                            <p style=""font-size:50px; font-weight:bold;""
                            >happy</p>
                            <div style=""width:240px; margin: auto;"">
                                <img src=""images/map07_berlin_scaleDef_orientDef_000.png"" style= ""width:200px""alt=""img"">
                            </div>
                        </div>","-188","","0","","","","images/map07_berlin_scaleDef_orientDef_000.png","happy","1","07","07","berlin","orientDef","scaleDef","000","",""
"","","","","","html-slider-response","123","269807","0.0-119.0","ph21td8fw3","26","NaN","<div style=""width:500px;"">
                            <p style=""font-size:50px; font-weight:bold;""
                            >happy</p>
                            <div style=""width:240px; margin: auto;"">
                                <img src=""images/map07_vanimo_scaleRev_orientMir_090.png"" style= ""width:200px""alt=""img"">
                            </div>
                        </div>","-188","","0","","","","images/map07_vanimo_scaleRev_orientMir_090.png","happy","1","07","07","vanimo","orientMir","scaleRev","090","",""
"","","","","","html-slider-response","124","270807","0.0-120.0","ph21td8fw3","26","NaN","<div style=""width:500px;"">
                            <p style=""font-size:50px; font-weight:bold;""
                            >happy</p>
                            <div style=""width:240px; margin: auto;"">
                                <img src=""images/map23_PuBu_scaleRev_orientMir_270.png"" style= ""width:200px""alt=""img"">
                            </div>
                        </div>","-188","","0","","","","images/map23_PuBu_scaleRev_orientMir_270.png","happy","1","23","23","PuBu","orientMir","scaleRev","270","",""
"","","","","","html-slider-response","125","271841","0.0-121.0","ph21td8fw3","26","NaN","<div style=""width:500px;"">
                            <p style=""font-size:50px; font-weight:bold;""
                            >happy</p>
                            <div style=""width:240px; margin: auto;"">
                                <img src=""images/map05_seismic_scaleRev_orientMir_270.png"" style= ""width:200px""alt=""img"">
                            </div>
                        </div>","-188","","0","","","","images/map05_seismic_scaleRev_orientMir_270.png","happy","1","05","05","seismic","orientMir","scaleRev","270","",""
"","","","","","html-slider-response","126","274656","0.0-122.0","ph21td8fw3","26","NaN","<div style=""width:500px;"">
                            <p style=""font-size:50px; font-weight:bold;""
                            >happy</p>
                            <div style=""width:240px; margin: auto;"">
                                <img src=""images/map15_PuRd_scaleRev_orientMir_270.png"" style= ""width:200px""alt=""img"">
                            </div>
                        </div>","47","","0","","","","images/map15_PuRd_scaleRev_orientMir_270.png","happy","1","15","15","PuRd","orientMir","scaleRev","270","",""
"","","","","","html-slider-response","127","276907","0.0-123.0","ph21td8fw3","26","NaN","<div style=""width:500px;"">
                            <p style=""font-size:50px; font-weight:bold;""
                            >happy</p>
                            <div style=""width:240px; margin: auto;"">
                                <img src=""images/map05_bwr_scaleDef_orientMir_000.png"" style= ""width:200px""alt=""img"">
                            </div>
                        </div>","14","","0","","","","images/map05_bwr_scaleDef_orientMir_000.png","happy","1","05","05","bwr","orientMir","scaleDef","000","",""
"","","","","","html-slider-response","128","278607","0.0-124.0","ph21td8fw3","26","NaN","<div style=""width:500px;"">
                            <p style=""font-size:50px; font-weight:bold;""
                            >happy</p>
                            <div style=""width:240px; margin: auto;"">
                                <img src=""images/map07_gist_earth_scaleDef_orientMir_180.png"" style= ""width:200px""alt=""img"">
                            </div>
                        </div>","-186","","0","","","","images/map07_gist_earth_scaleDef_orientMir_180.png","happy","1","07","07","gist","scaleDef","earth","orientMir","",""
"","","","","","html-slider-response","129","279790","0.0-125.0","ph21td8fw3","26","NaN","<div style=""width:500px;"">
                            <p style=""font-size:50px; font-weight:bold;""
                            >happy</p>
                            <div style=""width:240px; margin: auto;"">
                                <img src=""images/map10_inferno_scaleDef_orientMir_180.png"" style= ""width:200px""alt=""img"">
                            </div>
                        </div>","-182","","0","","","","images/map10_inferno_scaleDef_orientMir_180.png","happy","1","10","10","inferno","orientMir","scaleDef","180","",""
"","","","","","html-slider-response","130","280773","0.0-126.0","ph21td8fw3","26","NaN","<div style=""width:500px;"">
                            <p style=""font-size:50px; font-weight:bold;""
                            >happy</p>
                            <div style=""width:240px; margin: auto;"">
                                <img src=""images/map12_cividis_scaleRev_orientDef_270.png"" style= ""width:200px""alt=""img"">
                            </div>
                        </div>","-182","","0","","","","images/map12_cividis_scaleRev_orientDef_270.png","happy","1","12","12","cividis","orientDef","scaleRev","270","",""
"","","","","","html-slider-response","131","281757","0.0-127.0","ph21td8fw3","26","NaN","<div style=""width:500px;"">
                            <p style=""font-size:50px; font-weight:bold;""
                            >happy</p>
                            <div style=""width:240px; margin: auto;"">
                                <img src=""images/map07_vanimo_scaleDef_orientMir_000.png"" style= ""width:200px""alt=""img"">
                            </div>
                        </div>","-182","","0","","","","images/map07_vanimo_scaleDef_orientMir_000.png","happy","1","07","07","vanimo","orientMir","scaleDef","000","",""
"","","","","","html-slider-response","132","283708","0.0-128.0","ph21td8fw3","26","NaN","<div style=""width:500px;"">
                            <p style=""font-size:50px; font-weight:bold;""
                            >happy</p>
                            <div style=""width:240px; margin: auto;"">
                                <img src=""images/map23_RdPu_scaleDef_orientDef_000.png"" style= ""width:200px""alt=""img"">
                            </div>
                        </div>","13","","0","","","","images/map23_RdPu_scaleDef_orientDef_000.png","happy","1","23","23","RdPu","orientDef","scaleDef","000","",""
"","","","","","html-slider-response","133","284906","0.0-129.0","ph21td8fw3","26","NaN","<div style=""width:500px;"">
                            <p style=""font-size:50px; font-weight:bold;""
                            >happy</p>
                            <div style=""width:240px; margin: auto;"">
                                <img src=""images/map05_Spectral_scaleRev_orientDef_090.png"" style= ""width:200px""alt=""img"">
                            </div>
                        </div>","-180","","0","","","","images/map05_Spectral_scaleRev_orientDef_090.png","happy","1","05","05","Spectral","orientDef","scaleRev","090","",""
"","","","","","html-slider-response","134","285957","0.0-130.0","ph21td8fw3","26","NaN","<div style=""width:500px;"">
                            <p style=""font-size:50px; font-weight:bold;""
                            >happy</p>
                            <div style=""width:240px; margin: auto;"">
                                <img src=""images/map13_Blues_scaleDef_orientDef_000.png"" style= ""width:200px""alt=""img"">
                            </div>
                        </div>","-180","","0","","","","images/map13_Blues_scaleDef_orientDef_000.png","happy","1","13","13","Blues","orientDef","scaleDef","000","",""
"","","","","","html-slider-response","135","286873","0.0-131.0","ph21td8fw3","26","NaN","<div style=""width:500px;"">
                            <p style=""font-size:50px; font-weight:bold;""
                            >happy</p>
                            <div style=""width:240px; margin: auto;"">
                                <img src=""images/map02_RdBu_scaleDef_orientDef_180.png"" style= ""width:200px""alt=""img"">
                            </div>
                        </div>","-180","","0","","","","images/map02_RdBu_scaleDef_orientDef_180.png","happy","1","02","02","RdBu","orientDef","scaleDef","180","",""
"","","","","","html-slider-response","136","287741","0.0-132.0","ph21td8fw3","26","NaN","<div style=""width:500px;"">
                            <p style=""font-size:50px; font-weight:bold;""
                            >happy</p>
                            <div style=""width:240px; margin: auto;"">
                                <img src=""images/map15_PuRd_scaleDef_orientMir_180.png"" style= ""width:200px""alt=""img"">
                            </div>
                        </div>","-180","","0","","","","images/map15_PuRd_scaleDef_orientMir_180.png","happy","1","15","15","PuRd","orientMir","scaleDef","180","",""
"","","","","","html-slider-response","137","288690","0.0-133.0","ph21td8fw3","26","NaN","<div style=""width:500px;"">
                            <p style=""font-size:50px; font-weight:bold;""
                            >happy</p>
                            <div style=""width:240px; margin: auto;"">
                                <img src=""images/map27_PiYG_scaleRev_orientDef_090.png"" style= ""width:200px""alt=""img"">
                            </div>
                        </div>","-180","","0","","","","images/map27_PiYG_scaleRev_orientDef_090.png","happy","1","27","27","PiYG","orientDef","scaleRev","090","",""
"","","","","","html-slider-response","138","289740","0.0-134.0","ph21td8fw3","26","NaN","<div style=""width:500px;"">
                            <p style=""font-size:50px; font-weight:bold;""
                            >happy</p>
                            <div style=""width:240px; margin: auto;"">
                                <img src=""images/map05_seismic_scaleDef_orientMir_180.png"" style= ""width:200px""alt=""img"">
                            </div>
                        </div>","-180","","0","","","","images/map05_seismic_scaleDef_orientMir_180.png","happy","1","05","05","seismic","orientMir","scaleDef","180","",""
"","","","","","html-slider-response","139","290740","0.0-135.0","ph21td8fw3","26","NaN","<div style=""width:500px;"">
                            <p style=""font-size:50px; font-weight:bold;""
                            >happy</p>
                            <div style=""width:240px; margin: auto;"">
                                <img src=""images/map23_BuPu_scaleDef_orientDef_180.png"" style= ""width:200px""alt=""img"">
                            </div>
                        </div>","-172","","0","","","","images/map23_BuPu_scaleDef_orientDef_180.png","happy","1","23","23","BuPu","orientDef","scaleDef","180","",""
"","","","","","html-slider-response","140","291756","0.0-136.0","ph21td8fw3","26","NaN","<div style=""width:500px;"">
                            <p style=""font-size:50px; font-weight:bold;""
                            >happy</p>
                            <div style=""width:240px; margin: auto;"">
                                <img src=""images/map15_OrRd_scaleRev_orientMir_090.png"" style= ""width:200px""alt=""img"">
                            </div>
                        </div>","-172","","0","","","","images/map15_OrRd_scaleRev_orientMir_090.png","happy","1","15","15","OrRd","orientMir","scaleRev","090","",""
"","","","","","html-button-response","141","293445","0.0-137.0","ph21td8fw3","26","1187","<p>You are doing great!<br></br> You are halway done with the current block. When you are ready to continue, click the 'Continue' button.</p>","0","","","","","","","","","","","","","","","",""
"","","","","","html-slider-response","142","295007","0.0-138.0","ph21td8fw3","26","NaN","<div style=""width:500px;"">
                            <p style=""font-size:50px; font-weight:bold;""
                            >happy</p>
                            <div style=""width:240px; margin: auto;"">
                                <img src=""images/map12_Greys_scaleRev_orientMir_090.png"" style= ""width:200px""alt=""img"">
                            </div>
                        </div>","-175","","0","","","","images/map12_Greys_scaleRev_orientMir_090.png","happy","1","12","12","Greys","orientMir","scaleRev","090","",""
"","","","","","html-slider-response","143","296223","0.0-139.0","ph21td8fw3","26","NaN","<div style=""width:500px;"">
                            <p style=""font-size:50px; font-weight:bold;""
                            >happy</p>
                            <div style=""width:240px; margin: auto;"">
                                <img src=""images/map10_inferno_scaleRev_orientMir_270.png"" style= ""width:200px""alt=""img"">
                            </div>
                        </div>","-178","","0","","","","images/map10_inferno_scaleRev_orientMir_270.png","happy","1","10","10","inferno","orientMir","scaleRev","270","",""
"","","","","","html-slider-response","144","297340","0.0-140.0","ph21td8fw3","26","NaN","<div style=""width:500px;"">
                            <p style=""font-size:50px; font-weight:bold;""
                            >happy</p>
                            <div style=""width:240px; margin: auto;"">
                                <img src=""images/map27_PRGn_scaleDef_orientDef_180.png"" style= ""width:200px""alt=""img"">
                            </div>
                        </div>","-172","","0","","","","images/map27_PRGn_scaleDef_orientDef_180.png","happy","1","27","27","PRGn","orientDef","scaleDef","180","",""
"","","","","","html-slider-response","145","298323","0.0-141.0","ph21td8fw3","26","NaN","<div style=""width:500px;"">
                            <p style=""font-size:50px; font-weight:bold;""
                            >happy</p>
                            <div style=""width:240px; margin: auto;"">
                                <img src=""images/map13_Blues_scaleRev_orientDef_090.png"" style= ""width:200px""alt=""img"">
                            </div>
                        </div>","-173","","0","","","","images/map13_Blues_scaleRev_orientDef_090.png","happy","1","13","13","Blues","orientDef","scaleRev","090","",""
"","","","","","html-slider-response","146","299273","0.0-142.0","ph21td8fw3","26","NaN","<div style=""width:500px;"">
                            <p style=""font-size:50px; font-weight:bold;""
                            >happy</p>
                            <div style=""width:240px; margin: auto;"">
                                <img src=""images/map05_bwr_scaleRev_orientMir_090.png"" style= ""width:200px""alt=""img"">
                            </div>
                        </div>","-173","","0","","","","images/map05_bwr_scaleRev_orientMir_090.png","happy","1","05","05","bwr","orientMir","scaleRev","090","",""
"","","","","","html-slider-response","147","300390","0.0-143.0","ph21td8fw3","26","NaN","<div style=""width:500px;"">
                            <p style=""font-size:50px; font-weight:bold;""
                            >happy</p>
                            <div style=""width:240px; margin: auto;"">
                                <img src=""images/map02_RdGy_scaleDef_orientDef_000.png"" style= ""width:200px""alt=""img"">
                            </div>
                        </div>","-173","","0","","","","images/map02_RdGy_scaleDef_orientDef_000.png","happy","1","02","02","RdGy","orientDef","scaleDef","000","",""
"","","","","","html-slider-response","148","301873","0.0-144.0","ph21td8fw3","26","NaN","<div style=""width:500px;"">
                            <p style=""font-size:50px; font-weight:bold;""
                            >happy</p>
                            <div style=""width:240px; margin: auto;"">
                                <img src=""images/map12_Greys_scaleDef_orientMir_000.png"" style= ""width:200px""alt=""img"">
                            </div>
                        </div>","-173","","0","","","","images/map12_Greys_scaleDef_orientMir_000.png","happy","1","12","12","Greys","orientMir","scaleDef","000","",""
"","","","","","html-slider-response","149","302890","0.0-145.0","ph21td8fw3","26","NaN","<div style=""width:500px;"">
                            <p style=""font-size:50px; font-weight:bold;""
                            >happy</p>
                            <div style=""width:240px; margin: auto;"">
                                <img src=""images/map13_Oranges_scaleDef_orientMir_000.png"" style= ""width:200px""alt=""img"">
                            </div>
                        </div>","-173","","0","","","","images/map13_Oranges_scaleDef_orientMir_000.png","happy","1","13","13","Oranges","orientMir","scaleDef","000","",""
"","","","","","html-slider-response","150","303856","0.0-146.0","ph21td8fw3","26","NaN","<div style=""width:500px;"">
                            <p style=""font-size:50px; font-weight:bold;""
                            >happy</p>
                            <div style=""width:240px; margin: auto;"">
                                <img src=""images/map02_RdYlBu_scaleDef_orientMir_000.png"" style= ""width:200px""alt=""img"">
                            </div>
                        </div>","-173","","0","","","","images/map02_RdYlBu_scaleDef_orientMir_000.png","happy","1","02","02","RdYlBu","orientMir","scaleDef","000","",""
"","","","","","html-slider-response","151","304874","0.0-147.0","ph21td8fw3","26","NaN","<div style=""width:500px;"">
                            <p style=""font-size:50px; font-weight:bold;""
                            >happy</p>
                            <div style=""width:240px; margin: auto;"">
                                <img src=""images/map15_YlOrBr_scaleDef_orientDef_000.png"" style= ""width:200px""alt=""img"">
                            </div>
                        </div>","-173","","0","","","","images/map15_YlOrBr_scaleDef_orientDef_000.png","happy","1","15","15","YlOrBr","orientDef","scaleDef","000","",""
"","","","","","html-slider-response","152","305807","0.0-148.0","ph21td8fw3","26","NaN","<div style=""width:500px;"">
                            <p style=""font-size:50px; font-weight:bold;""
                            >happy</p>
                            <div style=""width:240px; margin: auto;"">
                                <img src=""images/map10_viridis_scaleDef_orientDef_180.png"" style= ""width:200px""alt=""img"">
                            </div>
                        </div>","-173","","0","","","","images/map10_viridis_scaleDef_orientDef_180.png","happy","1","10","10","viridis","orientDef","scaleDef","180","",""
"","","","","","html-slider-response","153","306756","0.0-149.0","ph21td8fw3","26","NaN","<div style=""width:500px;"">
                            <p style=""font-size:50px; font-weight:bold;""
                            >happy</p>
                            <div style=""width:240px; margin: auto;"">
                                <img src=""images/map15_YlOrBr_scaleRev_orientDef_090.png"" style= ""width:200px""alt=""img"">
                            </div>
                        </div>","-173","","0","","","","images/map15_YlOrBr_scaleRev_orientDef_090.png","happy","1","15","15","YlOrBr","orientDef","scaleRev","090","",""
"","","","","","html-slider-response","154","307641","0.0-150.0","ph21td8fw3","26","NaN","<div style=""width:500px;"">
                            <p style=""font-size:50px; font-weight:bold;""
                            >happy</p>
                            <div style=""width:240px; margin: auto;"">
                                <img src=""images/map15_OrRd_scaleDef_orientMir_000.png"" style= ""width:200px""alt=""img"">
                            </div>
                        </div>","-173","","0","","","","images/map15_OrRd_scaleDef_orientMir_000.png","happy","1","15","15","OrRd","orientMir","scaleDef","000","",""
"","","","","","html-slider-response","155","308540","0.0-151.0","ph21td8fw3","26","NaN","<div style=""width:500px;"">
                            <p style=""font-size:50px; font-weight:bold;""
                            >happy</p>
                            <div style=""width:240px; margin: auto;"">
                                <img src=""images/map07_berlin_scaleRev_orientDef_090.png"" style= ""width:200px""alt=""img"">
                            </div>
                        </div>","-173","","0","","","","images/map07_berlin_scaleRev_orientDef_090.png","happy","1","07","07","berlin","orientDef","scaleRev","090","",""
"","","","","","html-slider-response","156","309424","0.0-152.0","ph21td8fw3","26","NaN","<div style=""width:500px;"">
                            <p style=""font-size:50px; font-weight:bold;""
                            >happy</p>
                            <div style=""width:240px; margin: auto;"">
                                <img src=""images/map07_gist_earth_scaleRev_orientMir_270.png"" style= ""width:200px""alt=""img"">
                            </div>
                        </div>","-173","","0","","","","images/map07_gist_earth_scaleRev_orientMir_270.png","happy","1","07","07","gist","scaleRev","earth","orientMir","",""
"","","","","","html-slider-response","157","310323","0.0-153.0","ph21td8fw3","26","NaN","<div style=""width:500px;"">
                            <p style=""font-size:50px; font-weight:bold;""
                            >happy</p>
                            <div style=""width:240px; margin: auto;"">
                                <img src=""images/map12_Purples_scaleDef_orientMir_180.png"" style= ""width:200px""alt=""img"">
                            </div>
                        </div>","-173","","0","","","","images/map12_Purples_scaleDef_orientMir_180.png","happy","1","12","12","Purples","orientMir","scaleDef","180","",""
"","","","","","html-slider-response","158","311189","0.0-154.0","ph21td8fw3","26","NaN","<div style=""width:500px;"">
