"success","timeout","failed_images","failed_audio","failed_video","trial_type","trial_index","time_elapsed","internal_node_id","subject_id","condition_num","rt","stimulus","response","question_order","slider_start","practiceTrial","practiceTrialNum","correct","image_path","concept","repetition","map_id","map_num","scale_name","orientation_code","mapping_code","rotation_code","ishihara_plate","correct_response"
"true","false","[]","[]","[]","preload","0","481","0.0-0.0","phu8z2ujcl","55","","","","","","","","","","","","","","","","","","",""
"","","","","","html-button-response","1","7201","0.0-1.0","phu8z2ujcl","55","6718","Welcome to our experiment!<p>At the bottom of this screen, you will see a button that says ""Begin Experiment"".<br>Please only click that button when you are ready to complete the 30 minute experiment in one sitting.</p><p> Once you click that button, it will not be possible to restart the experiment.","0","","","","","","","","","","","","","","","",""
"true","","","","","fullscreen","2","11136","0.0-2.0","phu8z2ujcl","55","2931","","","","","","","","","","","","","","","","","",""
"","","","","","survey-multi-select","3","21420","0.0-3.0","phu8z2ujcl","55","10277","","{""Consent"":[""<strong>I consent</strong>""]}","[0]","","","","","","","","","","","","","","",""
"","","","","","html-button-response","4","22649","0.0-4.0","phu8z2ujcl","55","1227","Welcome! <p> This experiment involves two parts: demographic information, followed by the experimental task.<p> It will take about 30 minutes to complete both parts.","0","","","","","","","","","","","","","","","",""
"","","","","","survey-text","5","39884","0.0-5.0","phu8z2ujcl","55","17219","","{""Age"":""20"",""Gender"":""Female"",""Race/ethnicity"":""White"",""Languages"":""English, Turkish""}","","","","","","","","","","","","","","","",""
"","","","","","html-slider-response","6","99783","0.0-6.0","phu8z2ujcl","55","59895","<div style='text-align:left; font-size:20px; line-height:25px; width: 1000px;'>
                                During this experiment you will be asked to rate how much you associate maps with                    different concepts.<br> Below, you can see some examples of the maps you will be asked to rate. Above the maps
                    is the list of concepts.<br>You will be asked                    to rate how much you associate each map with each concept on a scale from 'not at all' to 'very much' like the
                    one below. <br><br>
                    Now, please look at the list of concepts and maps. For each concept, think about the map you associate 'very
                    much' with the concept.<br>                     When you see that map during the experiment, please rate it near the 'very much' endpoint of the
                    scale.<br>Now, please think about which map you associate 'not at all'                     with each concept. When you see that map during the experiment, please rate it near the 'not at all' endpoint
                    of the scale.<br>
                    Please use the full range of the scale. That is, if a map is somewhat associated with the concept, you would
                    click partway between the middle point and right side of the scale.                    You will be asked to rate each map for a given concept before moving on to the next concept.<br>Press the
                    'Continue' button for instructions on how to use the slider.                    <br>
                </div>

                <div style=""width: 500px; margin: 0 auto;"">
                    <!-- Centered text paragraphs -->
                    <div style=""text-align: center; width: 500px;"">
                        <p style=""font-size:25px; line-height:15px;"">
                            happy&nbsp;&nbsp;&nbsp;&nbsp;
                            fearful&nbsp;&nbsp;&nbsp;&nbsp;
                            angry&nbsp;&nbsp;&nbsp;&nbsp;
                            sad&nbsp;&nbsp;&nbsp;&nbsp;
                            disgust
                        </p>
                        <!-- <p style=""font-size:20px; line-height:15px;"">fearful</p>
                        <p style=""font-size:20px;line-height:15px;"">angry</p>
                        <p style=""font-size:20px;line-height:15px;"">sad</p>
                        <p style=""font-size:20px;line-height:15px;"">disgust</p> -->
                    </div>
            

                    <!-- Grid section -->
                   <div style=""display: flex; justify-content: center; padding-top: 15px;"">
                    <div style=""display: grid; grid-template-columns: repeat(10, 55px); grid-gap: 5px; width: auto;"">
                        <img src=""images/map05_OrRd_scaleRev_orientMir_090.png"" alt=""map"" style=""width: 100%;""><img src=""images/map10_YlGnBu_scaleRev_orientDef_090.png"" alt=""map"" style=""width: 100%;""><img src=""images/map15_bwr_scaleRev_orientMir_090.png"" alt=""map"" style=""width: 100%;""><img src=""images/map13_RdYlBu_scaleDef_orientMir_000.png"" alt=""map"" style=""width: 100%;""><img src=""images/map02_Reds_scaleDef_orientMir_180.png"" alt=""map"" style=""width: 100%;""><img src=""images/map10_BuGn_scaleRev_orientMir_090.png"" alt=""map"" style=""width: 100%;""><img src=""images/map23_gist_earth_scaleDef_orientMir_180.png"" alt=""map"" style=""width: 100%;""><img src=""images/map07_RdPu_scaleRev_orientDef_090.png"" alt=""map"" style=""width: 100%;""><img src=""images/map15_Spectral_scaleDef_orientDef_000.png"" alt=""map"" style=""width: 100%;""><img src=""images/map13_RdGy_scaleDef_orientDef_000.png"" alt=""map"" style=""width: 100%;""><img src=""images/map15_coolwarm_scaleRev_orientDef_270.png"" alt=""map"" style=""width: 100%;""><img src=""images/map12_PiYG_scaleRev_orientDef_090.png"" alt=""map"" style=""width: 100%;""><img src=""images/map27_Greys_scaleRev_orientMir_090.png"" alt=""map"" style=""width: 100%;""><img src=""images/map13_RdBu_scaleRev_orientDef_270.png"" alt=""map"" style=""width: 100%;""><img src=""images/map12_PuOr_scaleDef_orientMir_180.png"" alt=""map"" style=""width: 100%;""><img src=""images/map23_managua_scaleRev_orientDef_270.png"" alt=""map"" style=""width: 100%;""><img src=""images/map07_GnBu_scaleDef_orientMir_000.png"" alt=""map"" style=""width: 100%;""><img src=""images/map10_YlGn_scaleDef_orientMir_180.png"" alt=""map"" style=""width: 100%;""><img src=""images/map07_PuBu_scaleDef_orientMir_180.png"" alt=""map"" style=""width: 100%;""><img src=""images/map26_viridis_scaleDef_orientDef_180.png"" alt=""map"" style=""width: 100%;""><img src=""images/map05_YlOrBr_scaleDef_orientDef_000.png"" alt=""map"" style=""width: 100%;""><img src=""images/map26_plasma_scaleRev_orientMir_090.png"" alt=""map"" style=""width: 100%;""><img src=""images/map23_vanimo_scaleRev_orientMir_090.png"" alt=""map"" style=""width: 100%;""><img src=""images/map02_Greens_scaleRev_orientDef_270.png"" alt=""map"" style=""width: 100%;""><img src=""images/map23_berlin_scaleRev_orientDef_090.png"" alt=""map"" style=""width: 100%;""><img src=""images/map02_Oranges_scaleDef_orientMir_000.png"" alt=""map"" style=""width: 100%;""><img src=""images/map26_turbo_scaleRev_orientDef_090.png"" alt=""map"" style=""width: 100%;""><img src=""images/map27_Purples_scaleRev_orientMir_270.png"" alt=""map"" style=""width: 100%;""><img src=""images/map12_PRGn_scaleRev_orientDef_270.png"" alt=""map"" style=""width: 100%;""><img src=""images/map02_Blues_scaleDef_orientDef_000.png"" alt=""map"" style=""width: 100%;""><img src=""images/map27_magma_scaleRev_orientDef_090.png"" alt=""map"" style=""width: 100%;""><img src=""images/map12_BrBG_scaleRev_orientMir_090.png"" alt=""map"" style=""width: 100%;""><img src=""images/map05_YlOrRd_scaleRev_orientDef_270.png"" alt=""map"" style=""width: 100%;""><img src=""images/map13_RdYlGn_scaleRev_orientMir_270.png"" alt=""map"" style=""width: 100%;""><img src=""images/map27_cividis_scaleDef_orientDef_180.png"" alt=""map"" style=""width: 100%;""><img src=""images/map07_BuPu_scaleRev_orientDef_270.png"" alt=""map"" style=""width: 100%;""><img src=""images/map15_seismic_scaleDef_orientMir_180.png"" alt=""map"" style=""width: 100%;""><img src=""images/map26_inferno_scaleDef_orientMir_180.png"" alt=""map"" style=""width: 100%;""><img src=""images/map05_PuRd_scaleRev_orientMir_270.png"" alt=""map"" style=""width: 100%;""><img src=""images/map10_PuBuGn_scaleDef_orientDef_180.png"" alt=""map"" style=""width: 100%;"">
                    </div>
                </div>

                    <!-- Clear floats -->
                    <div style=""clear: both;""></div>
                </div>
                            ","102","","0","true","","","","","","","","","","","","",""
"","","","","","html-button-response","7","112618","0.0-7.0","phu8z2ujcl","55","12832","<div style=""width:800px;""><p style=""text-align:left"">To move the slider, click and drag your cursor to the location of the scale where you would like to make your rating and then let go. When you let go of the slider, your response will be recorded and the next trial will begin. <br>
                    We are interested in your initial impressions of each map for the given concept, so please go with your first intuition. <br>
                    Before you begin the experiment, there will be four training trials for you to practice using the scale. <br>
                     When you are ready to start the training trials, please click ""Continue"".</p><br></div>","0","","","","","","","","","","","","","","","",""
"","","","","","html-slider-response","8","119128","0.0-8.0-0.0","phu8z2ujcl","55","NaN","<div style=""width:500px;"">
                                    <p style=""font-size:25px;"">Please move the slider all the way to the <br> right endpoint of the scale</p>

                                    </div>
                                </div>","200","","0","true","0","true","","","","","","","","","","",""
"","","","","","html-button-response","9","120884","0.0-8.0-1.0","phu8z2ujcl","55","1252","<p align='center'><b>Good job!</b> Click on 'Continue' to proceed.</p>","0","","","","","","","","","","","","","","","",""
"","","","","","html-slider-response","10","123495","0.0-9.0-0.0","phu8z2ujcl","55","NaN","<div style=""width:500px;"">
                                    <p style=""font-size:25px;"">Please move the slider all the way to the <br> left endpoint of the scale</p>

                                    </div>
                                </div>","-200","","0","true","1","true","","","","","","","","","","",""
"","","","","","html-button-response","11","124767","0.0-9.0-1.0","phu8z2ujcl","55","769","<p align='center'><b>Good job!</b> Click on 'Continue' to proceed.</p>","0","","","","","","","","","","","","","","","",""
"","","","","","html-slider-response","12","128344","0.0-10.0-0.0","phu8z2ujcl","55","NaN","<div style=""width:500px;"">
                                    <p style=""font-size:25px;"">Please move the slider halfway between the center and right endpoint of the scale</p>

                                    </div>
                                </div>","99","","0","true","2","true","","","","","","","","","","",""
"","","","","","html-button-response","13","129550","0.0-10.0-1.0","phu8z2ujcl","55","703","<p align='center'><b>Good job!</b> Click on 'Continue' to proceed.</p>","0","","","","","","","","","","","","","","","",""
"","","","","","html-slider-response","14","131877","0.0-11.0-0.0","phu8z2ujcl","55","NaN","<div style=""width:500px;"">
                                    <p style=""font-size:25px;"">Please move the slider halfway between the center and left endpoint of the scale</p>

                                    </div>
                                </div>","-104","","0","true","3","true","","","","","","","","","","",""
"","","","","","html-button-response","15","133067","0.0-11.0-1.0","phu8z2ujcl","55","688","<p align='center'><b>Good job!</b> Click on 'Continue' to proceed.</p>","0","","","","","","","","","","","","","","","",""
"","","","","","html-button-response","16","134033","0.0-12.0","phu8z2ujcl","55","965","<p>Great job! You've completed the practice trials. Now you will begin the main task.</p>","0","","","","","","","","","","","","","","","",""
"","","","","","html-button-response","17","138834","0.0-13.0","phu8z2ujcl","55","4799","<p>In this block of trials, you will be asked to rate how much you associate each map with:</p > <p style = 'font-size:150%; font-weight: bold'>happy</p><br></br>","0","","","","","","","","","","","","","","","",""
"","","","","","html-slider-response","18","145711","0.0-14.0","phu8z2ujcl","55","NaN","<div style=""width:500px;"">
                            <p style=""font-size:50px; font-weight:bold;""
                            >happy</p>
                            <div style=""width:240px; margin: auto;"">
                                <img src=""images/map10_BuGn_scaleRev_orientMir_090.png"" style= ""width:200px""alt=""img"">
                            </div>
                        </div>","106","","0","","","","images/map10_BuGn_scaleRev_orientMir_090.png","happy","1","10","10","BuGn","orientMir","scaleRev","090","",""
"","","","","","html-slider-response","19","148945","0.0-15.0","phu8z2ujcl","55","NaN","<div style=""width:500px;"">
                            <p style=""font-size:50px; font-weight:bold;""
                            >happy</p>
                            <div style=""width:240px; margin: auto;"">
                                <img src=""images/map10_PuBuGn_scaleDef_orientDef_180.png"" style= ""width:200px""alt=""img"">
                            </div>
                        </div>","200","","0","","","","images/map10_PuBuGn_scaleDef_orientDef_180.png","happy","1","10","10","PuBuGn","orientDef","scaleDef","180","",""
"","","","","","html-slider-response","20","154827","0.0-16.0","phu8z2ujcl","55","NaN","<div style=""width:500px;"">
                            <p style=""font-size:50px; font-weight:bold;""
                            >happy</p>
                            <div style=""width:240px; margin: auto;"">
                                <img src=""images/map12_PRGn_scaleDef_orientDef_180.png"" style= ""width:200px""alt=""img"">
                            </div>
                        </div>","-105","","0","","","","images/map12_PRGn_scaleDef_orientDef_180.png","happy","1","12","12","PRGn","orientDef","scaleDef","180","",""
"","","","","","html-slider-response","21","161745","0.0-17.0","phu8z2ujcl","55","NaN","<div style=""width:500px;"">
                            <p style=""font-size:50px; font-weight:bold;""
                            >happy</p>
                            <div style=""width:240px; margin: auto;"">
                                <img src=""images/map12_PiYG_scaleRev_orientDef_090.png"" style= ""width:200px""alt=""img"">
                            </div>
                        </div>","35","","0","","","","images/map12_PiYG_scaleRev_orientDef_090.png","happy","1","12","12","PiYG","orientDef","scaleRev","090","",""
"","","","","","html-slider-response","22","165845","0.0-18.0","phu8z2ujcl","55","NaN","<div style=""width:500px;"">
                            <p style=""font-size:50px; font-weight:bold;""
                            >happy</p>
                            <div style=""width:240px; margin: auto;"">
                                <img src=""images/map13_RdYlGn_scaleRev_orientMir_270.png"" style= ""width:200px""alt=""img"">
                            </div>
                        </div>","54","","0","","","","images/map13_RdYlGn_scaleRev_orientMir_270.png","happy","1","13","13","RdYlGn","orientMir","scaleRev","270","",""
"","","","","","html-slider-response","23","170662","0.0-19.0","phu8z2ujcl","55","NaN","<div style=""width:500px;"">
                            <p style=""font-size:50px; font-weight:bold;""
                            >happy</p>
                            <div style=""width:240px; margin: auto;"">
                                <img src=""images/map13_RdGy_scaleDef_orientDef_000.png"" style= ""width:200px""alt=""img"">
                            </div>
                        </div>","-70","","0","","","","images/map13_RdGy_scaleDef_orientDef_000.png","happy","1","13","13","RdGy","orientDef","scaleDef","000","",""
"","","","","","html-slider-response","24","174279","0.0-20.0","phu8z2ujcl","55","NaN","<div style=""width:500px;"">
                            <p style=""font-size:50px; font-weight:bold;""
                            >happy</p>
                            <div style=""width:240px; margin: auto;"">
                                <img src=""images/map10_YlGn_scaleRev_orientMir_270.png"" style= ""width:200px""alt=""img"">
                            </div>
                        </div>","95","","0","","","","images/map10_YlGn_scaleRev_orientMir_270.png","happy","1","10","10","YlGn","orientMir","scaleRev","270","",""
"","","","","","html-slider-response","25","178511","0.0-21.0","phu8z2ujcl","55","NaN","<div style=""width:500px;"">
                            <p style=""font-size:50px; font-weight:bold;""
                            >happy</p>
                            <div style=""width:240px; margin: auto;"">
                                <img src=""images/map07_PuBu_scaleDef_orientMir_180.png"" style= ""width:200px""alt=""img"">
                            </div>
                        </div>","149","","0","","","","images/map07_PuBu_scaleDef_orientMir_180.png","happy","1","07","07","PuBu","orientMir","scaleDef","180","",""
"","","","","","html-slider-response","26","183045","0.0-22.0","phu8z2ujcl","55","NaN","<div style=""width:500px;"">
                            <p style=""font-size:50px; font-weight:bold;""
                            >happy</p>
                            <div style=""width:240px; margin: auto;"">
                                <img src=""images/map13_RdBu_scaleDef_orientDef_180.png"" style= ""width:200px""alt=""img"">
                            </div>
                        </div>","-62","","0","","","","images/map13_RdBu_scaleDef_orientDef_180.png","happy","1","13","13","RdBu","orientDef","scaleDef","180","",""
"","","","","","html-slider-response","27","186828","0.0-23.0","phu8z2ujcl","55","NaN","<div style=""width:500px;"">
                            <p style=""font-size:50px; font-weight:bold;""
                            >happy</p>
                            <div style=""width:240px; margin: auto;"">
                                <img src=""images/map10_BuGn_scaleDef_orientMir_000.png"" style= ""width:200px""alt=""img"">
                            </div>
                        </div>","103","","0","","","","images/map10_BuGn_scaleDef_orientMir_000.png","happy","1","10","10","BuGn","orientMir","scaleDef","000","",""
"","","","","","html-slider-response","28","191528","0.0-24.0","phu8z2ujcl","55","NaN","<div style=""width:500px;"">
                            <p style=""font-size:50px; font-weight:bold;""
                            >happy</p>
                            <div style=""width:240px; margin: auto;"">
                                <img src=""images/map12_PuOr_scaleDef_orientMir_180.png"" style= ""width:200px""alt=""img"">
                            </div>
                        </div>","-111","","0","","","","images/map12_PuOr_scaleDef_orientMir_180.png","happy","1","12","12","PuOr","orientMir","scaleDef","180","",""
"","","","","","html-slider-response","29","195478","0.0-25.0","phu8z2ujcl","55","NaN","<div style=""width:500px;"">
                            <p style=""font-size:50px; font-weight:bold;""
                            >happy</p>
                            <div style=""width:240px; margin: auto;"">
                                <img src=""images/map27_cividis_scaleRev_orientDef_270.png"" style= ""width:200px""alt=""img"">
                            </div>
                        </div>","-200","","0","","","","images/map27_cividis_scaleRev_orientDef_270.png","happy","1","27","27","cividis","orientDef","scaleRev","270","",""
"","","","","","html-slider-response","30","200278","0.0-26.0","phu8z2ujcl","55","NaN","<div style=""width:500px;"">
                            <p style=""font-size:50px; font-weight:bold;""
                            >happy</p>
                            <div style=""width:240px; margin: auto;"">
                                <img src=""images/map23_vanimo_scaleDef_orientMir_000.png"" style= ""width:200px""alt=""img"">
                            </div>
                        </div>","-109","","0","","","","images/map23_vanimo_scaleDef_orientMir_000.png","happy","1","23","23","vanimo","orientMir","scaleDef","000","",""
"","","","","","html-slider-response","31","204962","0.0-27.0","phu8z2ujcl","55","NaN","<div style=""width:500px;"">
                            <p style=""font-size:50px; font-weight:bold;""
                            >happy</p>
                            <div style=""width:240px; margin: auto;"">
                                <img src=""images/map02_Greens_scaleDef_orientDef_180.png"" style= ""width:200px""alt=""img"">
                            </div>
                        </div>","110","","0","","","","images/map02_Greens_scaleDef_orientDef_180.png","happy","1","02","02","Greens","orientDef","scaleDef","180","",""
"","","","","","html-slider-response","32","209945","0.0-28.0","phu8z2ujcl","55","NaN","<div style=""width:500px;"">
                            <p style=""font-size:50px; font-weight:bold;""
                            >happy</p>
                            <div style=""width:240px; margin: auto;"">
                                <img src=""images/map26_turbo_scaleDef_orientDef_000.png"" style= ""width:200px""alt=""img"">
                            </div>
                        </div>","118","","0","","","","images/map26_turbo_scaleDef_orientDef_000.png","happy","1","26","26","turbo","orientDef","scaleDef","000","",""
"","","","","","html-slider-response","33","214095","0.0-29.0","phu8z2ujcl","55","NaN","<div style=""width:500px;"">
                            <p style=""font-size:50px; font-weight:bold;""
                            >happy</p>
                            <div style=""width:240px; margin: auto;"">
                                <img src=""images/map13_RdYlGn_scaleDef_orientMir_180.png"" style= ""width:200px""alt=""img"">
                            </div>
                        </div>","-72","","0","","","","images/map13_RdYlGn_scaleDef_orientMir_180.png","happy","1","13","13","RdYlGn","orientMir","scaleDef","180","",""
"","","","","","html-slider-response","34","216878","0.0-30.0","phu8z2ujcl","55","NaN","<div style=""width:500px;"">
                            <p style=""font-size:50px; font-weight:bold;""
                            >happy</p>
                            <div style=""width:240px; margin: auto;"">
                                <img src=""images/map13_RdGy_scaleRev_orientDef_090.png"" style= ""width:200px""alt=""img"">
                            </div>
                        </div>","-92","","0","","","","images/map13_RdGy_scaleRev_orientDef_090.png","happy","1","13","13","RdGy","orientDef","scaleRev","090","",""
"","","","","","html-slider-response","35","221845","0.0-31.0","phu8z2ujcl","55","NaN","<div style=""width:500px;"">
                            <p style=""font-size:50px; font-weight:bold;""
                            >happy</p>
                            <div style=""width:240px; margin: auto;"">
                                <img src=""images/map13_RdYlBu_scaleDef_orientMir_000.png"" style= ""width:200px""alt=""img"">
                            </div>
                        </div>","53","","0","","","","images/map13_RdYlBu_scaleDef_orientMir_000.png","happy","1","13","13","RdYlBu","orientMir","scaleDef","000","",""
"","","","","","html-slider-response","36","225378","0.0-32.0","phu8z2ujcl","55","NaN","<div style=""width:500px;"">
                            <p style=""font-size:50px; font-weight:bold;""
                            >happy</p>
                            <div style=""width:240px; margin: auto;"">
                                <img src=""images/map27_Purples_scaleRev_orientMir_270.png"" style= ""width:200px""alt=""img"">
                            </div>
                        </div>","73","","0","","","","images/map27_Purples_scaleRev_orientMir_270.png","happy","1","27","27","Purples","orientMir","scaleRev","270","",""
"","","","","","html-slider-response","37","229644","0.0-33.0","phu8z2ujcl","55","NaN","<div style=""width:500px;"">
                            <p style=""font-size:50px; font-weight:bold;""
                            >happy</p>
                            <div style=""width:240px; margin: auto;"">
                                <img src=""images/map05_PuRd_scaleDef_orientMir_180.png"" style= ""width:200px""alt=""img"">
                            </div>
                        </div>","83","","0","","","","images/map05_PuRd_scaleDef_orientMir_180.png","happy","1","05","05","PuRd","orientMir","scaleDef","180","",""
"","","","","","html-slider-response","38","232179","0.0-34.0","phu8z2ujcl","55","NaN","<div style=""width:500px;"">
                            <p style=""font-size:50px; font-weight:bold;""
                            >happy</p>
                            <div style=""width:240px; margin: auto;"">
                                <img src=""images/map07_RdPu_scaleRev_orientDef_090.png"" style= ""width:200px""alt=""img"">
                            </div>
                        </div>","91","","0","","","","images/map07_RdPu_scaleRev_orientDef_090.png","happy","1","07","07","RdPu","orientDef","scaleRev","090","",""
"","","","","","html-slider-response","39","236929","0.0-35.0","phu8z2ujcl","55","NaN","<div style=""width:500px;"">
                            <p style=""font-size:50px; font-weight:bold;""
                            >happy</p>
                            <div style=""width:240px; margin: auto;"">
                                <img src=""images/map05_OrRd_scaleDef_orientMir_000.png"" style= ""width:200px""alt=""img"">
                            </div>
                        </div>","88","","0","","","","images/map05_OrRd_scaleDef_orientMir_000.png","happy","1","05","05","OrRd","orientMir","scaleDef","000","",""
"","","","","","html-slider-response","40","240212","0.0-36.0","phu8z2ujcl","55","NaN","<div style=""width:500px;"">
                            <p style=""font-size:50px; font-weight:bold;""
                            >happy</p>
                            <div style=""width:240px; margin: auto;"">
                                <img src=""images/map07_GnBu_scaleRev_orientMir_090.png"" style= ""width:200px""alt=""img"">
                            </div>
                        </div>","174","","0","","","","images/map07_GnBu_scaleRev_orientMir_090.png","happy","1","07","07","GnBu","orientMir","scaleRev","090","",""
"","","","","","html-slider-response","41","243145","0.0-37.0","phu8z2ujcl","55","NaN","<div style=""width:500px;"">
                            <p style=""font-size:50px; font-weight:bold;""
                            >happy</p>
                            <div style=""width:240px; margin: auto;"">
                                <img src=""images/map12_BrBG_scaleDef_orientMir_000.png"" style= ""width:200px""alt=""img"">
                            </div>
                        </div>","-59","","0","","","","images/map12_BrBG_scaleDef_orientMir_000.png","happy","1","12","12","BrBG","orientMir","scaleDef","000","",""
"","","","","","html-slider-response","42","246262","0.0-38.0","phu8z2ujcl","55","NaN","<div style=""width:500px;"">
                            <p style=""font-size:50px; font-weight:bold;""
                            >happy</p>
                            <div style=""width:240px; margin: auto;"">
                                <img src=""images/map07_BuPu_scaleDef_orientDef_180.png"" style= ""width:200px""alt=""img"">
                            </div>
                        </div>","-46","","0","","","","images/map07_BuPu_scaleDef_orientDef_180.png","happy","1","07","07","BuPu","orientDef","scaleDef","180","",""
"","","","","","html-slider-response","43","248695","0.0-39.0","phu8z2ujcl","55","NaN","<div style=""width:500px;"">
                            <p style=""font-size:50px; font-weight:bold;""
                            >happy</p>
                            <div style=""width:240px; margin: auto;"">
                                <img src=""images/map12_PuOr_scaleRev_orientMir_270.png"" style= ""width:200px""alt=""img"">
                            </div>
                        </div>","-88","","0","","","","images/map12_PuOr_scaleRev_orientMir_270.png","happy","1","12","12","PuOr","orientMir","scaleRev","270","",""
"","","","","","html-slider-response","44","251245","0.0-40.0","phu8z2ujcl","55","NaN","<div style=""width:500px;"">
                            <p style=""font-size:50px; font-weight:bold;""
                            >happy</p>
                            <div style=""width:240px; margin: auto;"">
                                <img src=""images/map07_RdPu_scaleDef_orientDef_000.png"" style= ""width:200px""alt=""img"">
                            </div>
                        </div>","130","","0","","","","images/map07_RdPu_scaleDef_orientDef_000.png","happy","1","07","07","RdPu","orientDef","scaleDef","000","",""
"","","","","","html-slider-response","45","253845","0.0-41.0","phu8z2ujcl","55","NaN","<div style=""width:500px;"">
                            <p style=""font-size:50px; font-weight:bold;""
                            >happy</p>
                            <div style=""width:240px; margin: auto;"">
                                <img src=""images/map02_Reds_scaleRev_orientMir_270.png"" style= ""width:200px""alt=""img"">
                            </div>
                        </div>","147","","0","","","","images/map02_Reds_scaleRev_orientMir_270.png","happy","1","02","02","Reds","orientMir","scaleRev","270","",""
"","","","","","html-slider-response","46","256829","0.0-42.0","phu8z2ujcl","55","NaN","<div style=""width:500px;"">
                            <p style=""font-size:50px; font-weight:bold;""
                            >happy</p>
                            <div style=""width:240px; margin: auto;"">
                                <img src=""images/map02_Blues_scaleRev_orientDef_090.png"" style= ""width:200px""alt=""img"">
                            </div>
                        </div>","169","","0","","","","images/map02_Blues_scaleRev_orientDef_090.png","happy","1","02","02","Blues","orientDef","scaleRev","090","",""
"","","","","","html-slider-response","47","259513","0.0-43.0","phu8z2ujcl","55","NaN","<div style=""width:500px;"">
                            <p style=""font-size:50px; font-weight:bold;""
                            >happy</p>
                            <div style=""width:240px; margin: auto;"">
                                <img src=""images/map12_PRGn_scaleRev_orientDef_270.png"" style= ""width:200px""alt=""img"">
                            </div>
                        </div>","-61","","0","","","","images/map12_PRGn_scaleRev_orientDef_270.png","happy","1","12","12","PRGn","orientDef","scaleRev","270","",""
"","","","","","html-slider-response","48","262795","0.0-44.0","phu8z2ujcl","55","NaN","<div style=""width:500px;"">
                            <p style=""font-size:50px; font-weight:bold;""
                            >happy</p>
                            <div style=""width:240px; margin: auto;"">
                                <img src=""images/map15_Spectral_scaleRev_orientDef_090.png"" style= ""width:200px""alt=""img"">
                            </div>
                        </div>","-42","","0","","","","images/map15_Spectral_scaleRev_orientDef_090.png","happy","1","15","15","Spectral","orientDef","scaleRev","090","",""
"","","","","","html-slider-response","49","264979","0.0-45.0","phu8z2ujcl","55","NaN","<div style=""width:500px;"">
                            <p style=""font-size:50px; font-weight:bold;""
                            >happy</p>
                            <div style=""width:240px; margin: auto;"">
                                <img src=""images/map02_Greens_scaleRev_orientDef_270.png"" style= ""width:200px""alt=""img"">
                            </div>
                        </div>","80","","0","","","","images/map02_Greens_scaleRev_orientDef_270.png","happy","1","02","02","Greens","orientDef","scaleRev","270","",""
"","","","","","html-slider-response","50","271595","0.0-46.0","phu8z2ujcl","55","NaN","<div style=""width:500px;"">
                            <p style=""font-size:50px; font-weight:bold;""
                            >happy</p>
                            <div style=""width:240px; margin: auto;"">
                                <img src=""images/map13_RdBu_scaleRev_orientDef_270.png"" style= ""width:200px""alt=""img"">
                            </div>
                        </div>","-94","","0","","","","images/map13_RdBu_scaleRev_orientDef_270.png","happy","1","13","13","RdBu","orientDef","scaleRev","270","",""
"","","","","","html-slider-response","51","274161","0.0-47.0","phu8z2ujcl","55","NaN","<div style=""width:500px;"">
                            <p style=""font-size:50px; font-weight:bold;""
                            >happy</p>
                            <div style=""width:240px; margin: auto;"">
                                <img src=""images/map15_coolwarm_scaleRev_orientDef_270.png"" style= ""width:200px""alt=""img"">
                            </div>
                        </div>","-73","","0","","","","images/map15_coolwarm_scaleRev_orientDef_270.png","happy","1","15","15","coolwarm","orientDef","scaleRev","270","",""
"","","","","","html-slider-response","52","276229","0.0-48.0","phu8z2ujcl","55","NaN","<div style=""width:500px;"">
                            <p style=""font-size:50px; font-weight:bold;""
                            >happy</p>
                            <div style=""width:240px; margin: auto;"">
                                <img src=""images/map13_RdYlBu_scaleRev_orientMir_090.png"" style= ""width:200px""alt=""img"">
                            </div>
                        </div>","-76","","0","","","","images/map13_RdYlBu_scaleRev_orientMir_090.png","happy","1","13","13","RdYlBu","orientMir","scaleRev","090","",""
"","","","","","html-slider-response","53","278778","0.0-49.0","phu8z2ujcl","55","NaN","<div style=""width:500px;"">
                            <p style=""font-size:50px; font-weight:bold;""
                            >happy</p>
                            <div style=""width:240px; margin: auto;"">
                                <img src=""images/map26_turbo_scaleRev_orientDef_090.png"" style= ""width:200px""alt=""img"">
                            </div>
                        </div>","78","","0","","","","images/map26_turbo_scaleRev_orientDef_090.png","happy","1","26","26","turbo","orientDef","scaleRev","090","",""
"","","","","","html-slider-response","54","281114","0.0-50.0","phu8z2ujcl","55","NaN","<div style=""width:500px;"">
                            <p style=""font-size:50px; font-weight:bold;""
                            >happy</p>
                            <div style=""width:240px; margin: auto;"">
                                <img src=""images/map07_PuBu_scaleRev_orientMir_270.png"" style= ""width:200px""alt=""img"">
                            </div>
                        </div>","143","","0","","","","images/map07_PuBu_scaleRev_orientMir_270.png","happy","1","07","07","PuBu","orientMir","scaleRev","270","",""
"","","","","","html-slider-response","55","285179","0.0-51.0","phu8z2ujcl","55","NaN","<div style=""width:500px;"">
                            <p style=""font-size:50px; font-weight:bold;""
                            >happy</p>
                            <div style=""width:240px; margin: auto;"">
                                <img src=""images/map07_BuPu_scaleRev_orientDef_270.png"" style= ""width:200px""alt=""img"">
                            </div>
                        </div>","110","","0","","","","images/map07_BuPu_scaleRev_orientDef_270.png","happy","1","07","07","BuPu","orientDef","scaleRev","270","",""
"","","","","","html-slider-response","56","287262","0.0-52.0","phu8z2ujcl","55","NaN","<div style=""width:500px;"">
                            <p style=""font-size:50px; font-weight:bold;""
                            >happy</p>
                            <div style=""width:240px; margin: auto;"">
                                <img src=""images/map07_GnBu_scaleDef_orientMir_000.png"" style= ""width:200px""alt=""img"">
                            </div>
                        </div>","70","","0","","","","images/map07_GnBu_scaleDef_orientMir_000.png","happy","1","07","07","GnBu","orientMir","scaleDef","000","",""
"","","","","","html-slider-response","57","289962","0.0-53.0","phu8z2ujcl","55","NaN","<div style=""width:500px;"">
                            <p style=""font-size:50px; font-weight:bold;""
                            >happy</p>
                            <div style=""width:240px; margin: auto;"">
                                <img src=""images/map02_Blues_scaleDef_orientDef_000.png"" style= ""width:200px""alt=""img"">
                            </div>
                        </div>","110","","0","","","","images/map02_Blues_scaleDef_orientDef_000.png","happy","1","02","02","Blues","orientDef","scaleDef","000","",""
"","","","","","html-button-response","58","294501","0.0-54.0","phu8z2ujcl","55","4036","<p>You are doing great!<br></br> You are halway done with the current block. When you are ready to continue, click the 'Continue' button.</p>","0","","","","","","","","","","","","","","","",""
"","","","","","html-slider-response","59","296979","0.0-55.0","phu8z2ujcl","55","NaN","<div style=""width:500px;"">
                            <p style=""font-size:50px; font-weight:bold;""
                            >happy</p>
                            <div style=""width:240px; margin: auto;"">
                                <img src=""images/map23_vanimo_scaleRev_orientMir_090.png"" style= ""width:200px""alt=""img"">
                            </div>
                        </div>","-77","","0","","","","images/map23_vanimo_scaleRev_orientMir_090.png","happy","1","23","23","vanimo","orientMir","scaleRev","090","",""
"","","","","","html-slider-response","60","299112","0.0-56.0","phu8z2ujcl","55","NaN","<div style=""width:500px;"">
                            <p style=""font-size:50px; font-weight:bold;""
                            >happy</p>
                            <div style=""width:240px; margin: auto;"">
                                <img src=""images/map02_Oranges_scaleRev_orientMir_090.png"" style= ""width:200px""alt=""img"">
                            </div>
                        </div>","110","","0","","","","images/map02_Oranges_scaleRev_orientMir_090.png","happy","1","02","02","Oranges","orientMir","scaleRev","090","",""
"","","","","","html-slider-response","61","301129","0.0-57.0","phu8z2ujcl","55","NaN","<div style=""width:500px;"">
                            <p style=""font-size:50px; font-weight:bold;""
                            >happy</p>
                            <div style=""width:240px; margin: auto;"">
                                <img src=""images/map10_PuBuGn_scaleRev_orientDef_270.png"" style= ""width:200px""alt=""img"">
                            </div>
                        </div>","200","","0","","","","images/map10_PuBuGn_scaleRev_orientDef_270.png","happy","1","10","10","PuBuGn","orientDef","scaleRev","270","",""
"","","","","","html-slider-response","62","304030","0.0-58.0","phu8z2ujcl","55","NaN","<div style=""width:500px;"">
                            <p style=""font-size:50px; font-weight:bold;""
                            >happy</p>
                            <div style=""width:240px; margin: auto;"">
                                <img src=""images/map26_inferno_scaleDef_orientMir_180.png"" style= ""width:200px""alt=""img"">
                            </div>
                        </div>","59","","0","","","","images/map26_inferno_scaleDef_orientMir_180.png","happy","1","26","26","inferno","orientMir","scaleDef","180","",""
"","","","","","html-slider-response","63","306229","0.0-59.0","phu8z2ujcl","55","NaN","<div style=""width:500px;"">
                            <p style=""font-size:50px; font-weight:bold;""
                            >happy</p>
                            <div style=""width:240px; margin: auto;"">
                                <img src=""images/map15_seismic_scaleRev_orientMir_270.png"" style= ""width:200px""alt=""img"">
                            </div>
                        </div>","-69","","0","","","","images/map15_seismic_scaleRev_orientMir_270.png","happy","1","15","15","seismic","orientMir","scaleRev","270","",""
"","","","","","html-slider-response","64","309029","0.0-60.0","phu8z2ujcl","55","NaN","<div style=""width:500px;"">
                            <p style=""font-size:50px; font-weight:bold;""
                            >happy</p>
                            <div style=""width:240px; margin: auto;"">
                                <img src=""images/map27_Purples_scaleDef_orientMir_180.png"" style= ""width:200px""alt=""img"">
                            </div>
                        </div>","-31","","0","","","","images/map27_Purples_scaleDef_orientMir_180.png","happy","1","27","27","Purples","orientMir","scaleDef","180","",""
"","","","","","html-slider-response","65","311546","0.0-61.0","phu8z2ujcl","55","NaN","<div style=""width:500px;"">
                            <p style=""font-size:50px; font-weight:bold;""
                            >happy</p>
                            <div style=""width:240px; margin: auto;"">
                                <img src=""images/map12_BrBG_scaleRev_orientMir_090.png"" style= ""width:200px""alt=""img"">
                            </div>
                        </div>","-46","","0","","","","images/map12_BrBG_scaleRev_orientMir_090.png","happy","1","12","12","BrBG","orientMir","scaleRev","090","",""
"","","","","","html-slider-response","66","313546","0.0-62.0","phu8z2ujcl","55","NaN","<div style=""width:500px;"">
                            <p style=""font-size:50px; font-weight:bold;""
                            >happy</p>
                            <div style=""width:240px; margin: auto;"">
                                <img src=""images/map15_coolwarm_scaleDef_orientDef_180.png"" style= ""width:200px""alt=""img"">
                            </div>
                        </div>","-96","","0","","","","images/map15_coolwarm_scaleDef_orientDef_180.png","happy","1","15","15","coolwarm","orientDef","scaleDef","180","",""
"","","","","","html-slider-response","67","317713","0.0-63.0","phu8z2ujcl","55","NaN","<div style=""width:500px;"">
                            <p style=""font-size:50px; font-weight:bold;""
                            >happy</p>
                            <div style=""width:240px; margin: auto;"">
                                <img src=""images/map26_inferno_scaleRev_orientMir_270.png"" style= ""width:200px""alt=""img"">
                            </div>
                        </div>","-36","","0","","","","images/map26_inferno_scaleRev_orientMir_270.png","happy","1","26","26","inferno","orientMir","scaleRev","270","",""
"","","","","","html-slider-response","68","320230","0.0-64.0","phu8z2ujcl","55","NaN","<div style=""width:500px;"">
                            <p style=""font-size:50px; font-weight:bold;""
                            >happy</p>
                            <div style=""width:240px; margin: auto;"">
                                <img src=""images/map27_Greys_scaleDef_orientMir_000.png"" style= ""width:200px""alt=""img"">
                            </div>
                        </div>","-58","","0","","","","images/map27_Greys_scaleDef_orientMir_000.png","happy","1","27","27","Greys","orientMir","scaleDef","000","",""
"","","","","","html-slider-response","69","322263","0.0-65.0","phu8z2ujcl","55","NaN","<div style=""width:500px;"">
                            <p style=""font-size:50px; font-weight:bold;""
                            >happy</p>
                            <div style=""width:240px; margin: auto;"">
                                <img src=""images/map27_cividis_scaleDef_orientDef_180.png"" style= ""width:200px""alt=""img"">
                            </div>
                        </div>","-108","","0","","","","images/map27_cividis_scaleDef_orientDef_180.png","happy","1","27","27","cividis","orientDef","scaleDef","180","",""
"","","","","","html-slider-response","70","324329","0.0-66.0","phu8z2ujcl","55","NaN","<div style=""width:500px;"">
                            <p style=""font-size:50px; font-weight:bold;""
                            >happy</p>
                            <div style=""width:240px; margin: auto;"">
                                <img src=""images/map10_YlGn_scaleDef_orientMir_180.png"" style= ""width:200px""alt=""img"">
                            </div>
                        </div>","116","","0","","","","images/map10_YlGn_scaleDef_orientMir_180.png","happy","1","10","10","YlGn","orientMir","scaleDef","180","",""
"","","","","","html-slider-response","71","326312","0.0-67.0","phu8z2ujcl","55","NaN","<div style=""width:500px;"">
                            <p style=""font-size:50px; font-weight:bold;""
                            >happy</p>
                            <div style=""width:240px; margin: auto;"">
                                <img src=""images/map15_bwr_scaleRev_orientMir_090.png"" style= ""width:200px""alt=""img"">
                            </div>
                        </div>","-70","","0","","","","images/map15_bwr_scaleRev_orientMir_090.png","happy","1","15","15","bwr","orientMir","scaleRev","090","",""
"","","","","","html-slider-response","72","328813","0.0-68.0","phu8z2ujcl","55","NaN","<div style=""width:500px;"">
                            <p style=""font-size:50px; font-weight:bold;""
                            >happy</p>
                            <div style=""width:240px; margin: auto;"">
                                <img src=""images/map05_YlOrBr_scaleRev_orientDef_090.png"" style= ""width:200px""alt=""img"">
                            </div>
                        </div>","94","","0","","","","images/map05_YlOrBr_scaleRev_orientDef_090.png","happy","1","05","05","YlOrBr","orientDef","scaleRev","090","",""
"","","","","","html-slider-response","73","330913","0.0-69.0","phu8z2ujcl","55","NaN","<div style=""width:500px;"">
                            <p style=""font-size:50px; font-weight:bold;""
                            >happy</p>
                            <div style=""width:240px; margin: auto;"">
                                <img src=""images/map05_PuRd_scaleRev_orientMir_270.png"" style= ""width:200px""alt=""img"">
                            </div>
                        </div>","107","","0","","","","images/map05_PuRd_scaleRev_orientMir_270.png","happy","1","05","05","PuRd","orientMir","scaleRev","270","",""
"","","","","","html-slider-response","74","333596","0.0-70.0","phu8z2ujcl","55","NaN","<div style=""width:500px;"">
                            <p style=""font-size:50px; font-weight:bold;""
                            >happy</p>
                            <div style=""width:240px; margin: auto;"">
                                <img src=""images/map15_Spectral_scaleDef_orientDef_000.png"" style= ""width:200px""alt=""img"">
                            </div>
                        </div>","-69","","0","","","","images/map15_Spectral_scaleDef_orientDef_000.png","happy","1","15","15","Spectral","orientDef","scaleDef","000","",""
"","","","","","html-slider-response","75","335762","0.0-71.0","phu8z2ujcl","55","NaN","<div style=""width:500px;"">
                            <p style=""font-size:50px; font-weight:bold;""
                            >happy</p>
                            <div style=""width:240px; margin: auto;"">
                                <img src=""images/map05_YlOrRd_scaleRev_orientDef_270.png"" style= ""width:200px""alt=""img"">
                            </div>
                        </div>","81","","0","","","","images/map05_YlOrRd_scaleRev_orientDef_270.png","happy","1","05","05","YlOrRd","orientDef","scaleRev","270","",""
"","","","","","html-slider-response","76","338812","0.0-72.0","phu8z2ujcl","55","NaN","<div style=""width:500px;"">
                            <p style=""font-size:50px; font-weight:bold;""
                            >happy</p>
                            <div style=""width:240px; margin: auto;"">
                                <img src=""images/map26_plasma_scaleRev_orientMir_090.png"" style= ""width:200px""alt=""img"">
                            </div>
                        </div>","30","","0","","","","images/map26_plasma_scaleRev_orientMir_090.png","happy","1","26","26","plasma","orientMir","scaleRev","090","",""
"","","","","","html-slider-response","77","341062","0.0-73.0","phu8z2ujcl","55","NaN","<div style=""width:500px;"">
                            <p style=""font-size:50px; font-weight:bold;""
                            >happy</p>
                            <div style=""width:240px; margin: auto;"">
                                <img src=""images/map05_YlOrRd_scaleDef_orientDef_180.png"" style= ""width:200px""alt=""img"">
                            </div>
                        </div>","88","","0","","","","images/map05_YlOrRd_scaleDef_orientDef_180.png","happy","1","05","05","YlOrRd","orientDef","scaleDef","180","",""
"","","","","","html-slider-response","78","343246","0.0-74.0","phu8z2ujcl","55","NaN","<div style=""width:500px;"">
                            <p style=""font-size:50px; font-weight:bold;""
                            >happy</p>
                            <div style=""width:240px; margin: auto;"">
                                <img src=""images/map26_viridis_scaleDef_orientDef_180.png"" style= ""width:200px""alt=""img"">
                            </div>
                        </div>","81","","0","","","","images/map26_viridis_scaleDef_orientDef_180.png","happy","1","26","26","viridis","orientDef","scaleDef","180","",""
"","","","","","html-slider-response","79","345512","0.0-75.0","phu8z2ujcl","55","NaN","<div style=""width:500px;"">
                            <p style=""font-size:50px; font-weight:bold;""
                            >happy</p>
                            <div style=""width:240px; margin: auto;"">
                                <img src=""images/map15_bwr_scaleDef_orientMir_000.png"" style= ""width:200px""alt=""img"">
                            </div>
                        </div>","-63","","0","","","","images/map15_bwr_scaleDef_orientMir_000.png","happy","1","15","15","bwr","orientMir","scaleDef","000","",""
"","","","","","html-slider-response","80","347446","0.0-76.0","phu8z2ujcl","55","NaN","<div style=""width:500px;"">
                            <p style=""font-size:50px; font-weight:bold;""
                            >happy</p>
                            <div style=""width:240px; margin: auto;"">
                                <img src=""images/map23_managua_scaleRev_orientDef_270.png"" style= ""width:200px""alt=""img"">
                            </div>
                        </div>","81","","0","","","","images/map23_managua_scaleRev_orientDef_270.png","happy","1","23","23","managua","orientDef","scaleRev","270","",""
"","","","","","html-slider-response","81","349429","0.0-77.0","phu8z2ujcl","55","NaN","<div style=""width:500px;"">
                            <p style=""font-size:50px; font-weight:bold;""
                            >happy</p>
                            <div style=""width:240px; margin: auto;"">
                                <img src=""images/map12_PiYG_scaleDef_orientDef_000.png"" style= ""width:200px""alt=""img"">
                            </div>
                        </div>","-82","","0","","","","images/map12_PiYG_scaleDef_orientDef_000.png","happy","1","12","12","PiYG","orientDef","scaleDef","000","",""
"","","","","","html-slider-response","82","351263","0.0-78.0","phu8z2ujcl","55","NaN","<div style=""width:500px;"">
                            <p style=""font-size:50px; font-weight:bold;""
                            >happy</p>
                            <div style=""width:240px; margin: auto;"">
                                <img src=""images/map05_OrRd_scaleRev_orientMir_090.png"" style= ""width:200px""alt=""img"">
                            </div>
                        </div>","60","","0","","","","images/map05_OrRd_scaleRev_orientMir_090.png","happy","1","05","05","OrRd","orientMir","scaleRev","090","",""
"","","","","","html-slider-response","83","353379","0.0-79.0","phu8z2ujcl","55","NaN","<div style=""width:500px;"">
                            <p style=""font-size:50px; font-weight:bold;""
                            >happy</p>
                            <div style=""width:240px; margin: auto;"">
                                <img src=""images/map10_YlGnBu_scaleDef_orientDef_000.png"" style= ""width:200px""alt=""img"">
                            </div>
                        </div>","117","","0","","","","images/map10_YlGnBu_scaleDef_orientDef_000.png","happy","1","10","10","YlGnBu","orientDef","scaleDef","000","",""
"","","","","","html-slider-response","84","355580","0.0-80.0","phu8z2ujcl","55","NaN","<div style=""width:500px;"">
                            <p style=""font-size:50px; font-weight:bold;""
                            >happy</p>
                            <div style=""width:240px; margin: auto;"">
                                <img src=""images/map27_Greys_scaleRev_orientMir_090.png"" style= ""width:200px""alt=""img"">
                            </div>
                        </div>","-200","","0","","","","images/map27_Greys_scaleRev_orientMir_090.png","happy","1","27","27","Greys","orientMir","scaleRev","090","",""
"","","","","","html-slider-response","85","357413","0.0-81.0","phu8z2ujcl","55","NaN","<div style=""width:500px;"">
                            <p style=""font-size:50px; font-weight:bold;""
                            >happy</p>
                            <div style=""width:240px; margin: auto;"">
                                <img src=""images/map10_YlGnBu_scaleRev_orientDef_090.png"" style= ""width:200px""alt=""img"">
                            </div>
                        </div>","200","","0","","","","images/map10_YlGnBu_scaleRev_orientDef_090.png","happy","1","10","10","YlGnBu","orientDef","scaleRev","090","",""
"","","","","","html-slider-response","86","359845","0.0-82.0","phu8z2ujcl","55","NaN","<div style=""width:500px;"">
                            <p style=""font-size:50px; font-weight:bold;""
                            >happy</p>
                            <div style=""width:240px; margin: auto;"">
                                <img src=""images/map23_berlin_scaleRev_orientDef_090.png"" style= ""width:200px""alt=""img"">
                            </div>
                        </div>","-104","","0","","","","images/map23_berlin_scaleRev_orientDef_090.png","happy","1","23","23","berlin","orientDef","scaleRev","090","",""
"","","","","","html-slider-response","87","362046","0.0-83.0","phu8z2ujcl","55","NaN","<div style=""width:500px;"">
                            <p style=""font-size:50px; font-weight:bold;""
                            >happy</p>
                            <div style=""width:240px; margin: auto;"">
                                <img src=""images/map23_berlin_scaleDef_orientDef_000.png"" style= ""width:200px""alt=""img"">
                            </div>
                        </div>","-66","","0","","","","images/map23_berlin_scaleDef_orientDef_000.png","happy","1","23","23","berlin","orientDef","scaleDef","000","",""
"","","","","","html-slider-response","88","363929","0.0-84.0","phu8z2ujcl","55","NaN","<div style=""width:500px;"">
                            <p style=""font-size:50px; font-weight:bold;""
                            >happy</p>
                            <div style=""width:240px; margin: auto;"">
                                <img src=""images/map15_seismic_scaleDef_orientMir_180.png"" style= ""width:200px""alt=""img"">
                            </div>
                        </div>","-78","","0","","","","images/map15_seismic_scaleDef_orientMir_180.png","happy","1","15","15","seismic","orientMir","scaleDef","180","",""
"","","","","","html-slider-response","89","366163","0.0-85.0","phu8z2ujcl","55","NaN","<div style=""width:500px;"">
                            <p style=""font-size:50px; font-weight:bold;""
                            >happy</p>
                            <div style=""width:240px; margin: auto;"">
                                <img src=""images/map02_Oranges_scaleDef_orientMir_000.png"" style= ""width:200px""alt=""img"">
                            </div>
                        </div>","82","","0","","","","images/map02_Oranges_scaleDef_orientMir_000.png","happy","1","02","02","Oranges","orientMir","scaleDef","000","",""
"","","","","","html-slider-response","90","368496","0.0-86.0","phu8z2ujcl","55","NaN","<div style=""width:500px;"">
                            <p style=""font-size:50px; font-weight:bold;""
                            >happy</p>
                            <div style=""width:240px; margin: auto;"">
                                <img src=""images/map23_gist_earth_scaleRev_orientMir_270.png"" style= ""width:200px""alt=""img"">
                            </div>
                        </div>","65","","0","","","","images/map23_gist_earth_scaleRev_orientMir_270.png","happy","1","23","23","gist","scaleRev","earth","orientMir","",""
"","","","","","html-slider-response","91","370730","0.0-87.0","phu8z2ujcl","55","NaN","<div style=""width:500px;"">
                            <p style=""font-size:50px; font-weight:bold;""
                            >happy</p>
                            <div style=""width:240px; margin: auto;"">
                                <img src=""images/map26_plasma_scaleDef_orientMir_000.png"" style= ""width:200px""alt=""img"">
                            </div>
                        </div>","-33","","0","","","","images/map26_plasma_scaleDef_orientMir_000.png","happy","1","26","26","plasma","orientMir","scaleDef","000","",""
"","","","","","html-slider-response","92","372697","0.0-88.0","phu8z2ujcl","55","NaN","<div style=""width:500px;"">
                            <p style=""font-size:50px; font-weight:bold;""
                            >happy</p>
                            <div style=""width:240px; margin: auto;"">
                                <img src=""images/map05_YlOrBr_scaleDef_orientDef_000.png"" style= ""width:200px""alt=""img"">
                            </div>
                        </div>","78","","0","","","","images/map05_YlOrBr_scaleDef_orientDef_000.png","happy","1","05","05","YlOrBr","orientDef","scaleDef","000","",""
"","","","","","html-slider-response","93","375312","0.0-89.0","phu8z2ujcl","55","NaN","<div style=""width:500px;"">
                            <p style=""font-size:50px; font-weight:bold;""
                            >happy</p>
                            <div style=""width:240px; margin: auto;"">
                                <img src=""images/map27_magma_scaleRev_orientDef_090.png"" style= ""width:200px""alt=""img"">
                            </div>
                        </div>","80","","0","","","","images/map27_magma_scaleRev_orientDef_090.png","happy","1","27","27","magma","orientDef","scaleRev","090","",""
"","","","","","html-slider-response","94","377880","0.0-90.0","phu8z2ujcl","55","NaN","<div style=""width:500px;"">
                            <p style=""font-size:50px; font-weight:bold;""
                            >happy</p>
                            <div style=""width:240px; margin: auto;"">
                                <img src=""images/map27_magma_scaleDef_orientDef_000.png"" style= ""width:200px""alt=""img"">
                            </div>
                        </div>","73","","0","","","","images/map27_magma_scaleDef_orientDef_000.png","happy","1","27","27","magma","orientDef","scaleDef","000","",""
"","","","","","html-slider-response","95","380213","0.0-91.0","phu8z2ujcl","55","NaN","<div style=""width:500px;"">
                            <p style=""font-size:50px; font-weight:bold;""
                            >happy</p>
                            <div style=""width:240px; margin: auto;"">
                                <img src=""images/map23_gist_earth_scaleDef_orientMir_180.png"" style= ""width:200px""alt=""img"">
                            </div>
                        </div>","94","","0","","","","images/map23_gist_earth_scaleDef_orientMir_180.png","happy","1","23","23","gist","scaleDef","earth","orientMir","",""
"","","","","","html-slider-response","96","384029","0.0-92.0","phu8z2ujcl","55","NaN","<div style=""width:500px;"">
                            <p style=""font-size:50px; font-weight:bold;""
                            >happy</p>
                            <div style=""width:240px; margin: auto;"">
                                <img src=""images/map23_managua_scaleDef_orientDef_180.png"" style= ""width:200px""alt=""img"">
                            </div>
                        </div>","54","","0","","","","images/map23_managua_scaleDef_orientDef_180.png","happy","1","23","23","managua","orientDef","scaleDef","180","",""
"","","","","","html-slider-response","97","385930","0.0-93.0","phu8z2ujcl","55","NaN","<div style=""width:500px;"">
                            <p style=""font-size:50px; font-weight:bold;""
                            >happy</p>
                            <div style=""width:240px; margin: auto;"">
                                <img src=""images/map26_viridis_scaleRev_orientDef_270.png"" style= ""width:200px""alt=""img"">
                            </div>
                        </div>","76","","0","","","","images/map26_viridis_scaleRev_orientDef_270.png","happy","1","26","26","viridis","orientDef","scaleRev","270","",""
"","","","","","html-slider-response","98","387430","0.0-94.0","phu8z2ujcl","55","NaN","<div style=""width:500px;"">
                            <p style=""font-size:50px; font-weight:bold;""
                            >happy</p>
                            <div style=""width:240px; margin: auto;"">
                                <img src=""images/map02_Reds_scaleDef_orientMir_180.png"" style= ""width:200px""alt=""img"">
                            </div>
                        </div>","75","","0","","","","images/map02_Reds_scaleDef_orientMir_180.png","happy","1","02","02","Reds","orientMir","scaleDef","180","",""
"","","","","","html-button-response","99","389919","0.0-95.0","phu8z2ujcl","55","1986","<p>Great Job! You've finished block 1.<br></br> You have 4 block(s) left to go.<br></br></p>","0","","","","","","","","","","","","","","","",""
"","","","","","html-button-response","100","391601","0.0-96.0","phu8z2ujcl","55","1681","<p>In this block of trials, you will be asked to rate how much you associate each map with:</p > <p style = 'font-size:150%; font-weight: bold'>fearful</p><br></br>","0","","","","","","","","","","","","","","","",""
"","","","","","html-slider-response","101","395513","0.0-97.0","phu8z2ujcl","55","NaN","<div style=""width:500px;"">
                            <p style=""font-size:50px; font-weight:bold;""
                            >fearful</p>
                            <div style=""width:240px; margin: auto;"">
                                <img src=""images/map07_GnBu_scaleRev_orientMir_090.png"" style= ""width:200px""alt=""img"">
                            </div>
                        </div>","-199","","0","","","","images/map07_GnBu_scaleRev_orientMir_090.png","fearful","1","07","07","GnBu","orientMir","scaleRev","090","",""
"","","","","","html-slider-response","102","399913","0.0-98.0","phu8z2ujcl","55","NaN","<div style=""width:500px;"">
                            <p style=""font-size:50px; font-weight:bold;""
                            >fearful</p>
                            <div style=""width:240px; margin: auto;"">
                                <img src=""images/map05_OrRd_scaleRev_orientMir_090.png"" style= ""width:200px""alt=""img"">
                            </div>
                        </div>","-88","","0","","","","images/map05_OrRd_scaleRev_orientMir_090.png","fearful","1","05","05","OrRd","orientMir","scaleRev","090","",""
"","","","","","html-slider-response","103","401796","0.0-99.0","phu8z2ujcl","55","NaN","<div style=""width:500px;"">
                            <p style=""font-size:50px; font-weight:bold;""
                            >fearful</p>
                            <div style=""width:240px; margin: auto;"">
                                <img src=""images/map05_PuRd_scaleRev_orientMir_270.png"" style= ""width:200px""alt=""img"">
                            </div>
                        </div>","-88","","0","","","","images/map05_PuRd_scaleRev_orientMir_270.png","fearful","1","05","05","PuRd","orientMir","scaleRev","270","",""
"","","","","","html-slider-response","104","403430","0.0-100.0","phu8z2ujcl","55","NaN","<div style=""width:500px;"">
                            <p style=""font-size:50px; font-weight:bold;""
                            >fearful</p>
                            <div style=""width:240px; margin: auto;"">
                                <img src=""images/map02_Greens_scaleRev_orientDef_270.png"" style= ""width:200px""alt=""img"">
                            </div>
                        </div>","-93","","0","","","","images/map02_Greens_scaleRev_orientDef_270.png","fearful","1","02","02","Greens","orientDef","scaleRev","270","",""
"","","","","","html-slider-response","105","409780","0.0-101.0","phu8z2ujcl","55","NaN","<div style=""width:500px;"">
                            <p style=""font-size:50px; font-weight:bold;""
                            >fearful</p>
                            <div style=""width:240px; margin: auto;"">
                                <img src=""images/map12_PiYG_scaleDef_orientDef_000.png"" style= ""width:200px""alt=""img"">
                            </div>
                        </div>","-21","","0","","","","images/map12_PiYG_scaleDef_orientDef_000.png","fearful","1","12","12","PiYG","orientDef","scaleDef","000","",""
"","","","","","html-slider-response","106","412096","0.0-102.0","phu8z2ujcl","55","NaN","<div style=""width:500px;"">
                            <p style=""font-size:50px; font-weight:bold;""
                            >fearful</p>
                            <div style=""width:240px; margin: auto;"">
                                <img src=""images/map07_PuBu_scaleDef_orientMir_180.png"" style= ""width:200px""alt=""img"">
                            </div>
                        </div>","-158","","0","","","","images/map07_PuBu_scaleDef_orientMir_180.png","fearful","1","07","07","PuBu","orientMir","scaleDef","180","",""
"","","","","","html-slider-response","107","415612","0.0-103.0","phu8z2ujcl","55","NaN","<div style=""width:500px;"">
                            <p style=""font-size:50px; font-weight:bold;""
                            >fearful</p>
                            <div style=""width:240px; margin: auto;"">
                                <img src=""images/map26_turbo_scaleRev_orientDef_090.png"" style= ""width:200px""alt=""img"">
                            </div>
                        </div>","-100","","0","","","","images/map26_turbo_scaleRev_orientDef_090.png","fearful","1","26","26","turbo","orientDef","scaleRev","090","",""
"","","","","","html-slider-response","108","418680","0.0-104.0","phu8z2ujcl","55","NaN","<div style=""width:500px;"">
                            <p style=""font-size:50px; font-weight:bold;""
                            >fearful</p>
                            <div style=""width:240px; margin: auto;"">
                                <img src=""images/map23_vanimo_scaleRev_orientMir_090.png"" style= ""width:200px""alt=""img"">
                            </div>
                        </div>","27","","0","","","","images/map23_vanimo_scaleRev_orientMir_090.png","fearful","1","23","23","vanimo","orientMir","scaleRev","090","",""
"","","","","","html-slider-response","109","420513","0.0-105.0","phu8z2ujcl","55","NaN","<div style=""width:500px;"">
                            <p style=""font-size:50px; font-weight:bold;""
                            >fearful</p>
                            <div style=""width:240px; margin: auto;"">
                                <img src=""images/map07_PuBu_scaleRev_orientMir_270.png"" style= ""width:200px""alt=""img"">
                            </div>
                        </div>","-126","","0","","","","images/map07_PuBu_scaleRev_orientMir_270.png","fearful","1","07","07","PuBu","orientMir","scaleRev","270","",""
"","","","","","html-slider-response","110","423013","0.0-106.0","phu8z2ujcl","55","NaN","<div style=""width:500px;"">
                            <p style=""font-size:50px; font-weight:bold;""
                            >fearful</p>
                            <div style=""width:240px; margin: auto;"">
                                <img src=""images/map07_RdPu_scaleRev_orientDef_090.png"" style= ""width:200px""alt=""img"">
                            </div>
                        </div>","-98","","0","","","","images/map07_RdPu_scaleRev_orientDef_090.png","fearful","1","07","07","RdPu","orientDef","scaleRev","090","",""
"","","","","","html-slider-response","111","424612","0.0-107.0","phu8z2ujcl","55","NaN","<div style=""width:500px;"">
                            <p style=""font-size:50px; font-weight:bold;""
                            >fearful</p>
                            <div style=""width:240px; margin: auto;"">
                                <img src=""images/map02_Reds_scaleRev_orientMir_270.png"" style= ""width:200px""alt=""img"">
                            </div>
                        </div>","-99","","0","","","","images/map02_Reds_scaleRev_orientMir_270.png","fearful","1","02","02","Reds","orientMir","scaleRev","270","",""
"","","","","","html-slider-response","112","427213","0.0-108.0","phu8z2ujcl","55","NaN","<div style=""width:500px;"">
                            <p style=""font-size:50px; font-weight:bold;""
                            >fearful</p>
                            <div style=""width:240px; margin: auto;"">
                                <img src=""images/map02_Oranges_scaleRev_orientMir_090.png"" style= ""width:200px""alt=""img"">
                            </div>
                        </div>","-98","","0","","","","images/map02_Oranges_scaleRev_orientMir_090.png","fearful","1","02","02","Oranges","orientMir","scaleRev","090","",""
"","","","","","html-slider-response","113","432763","0.0-109.0","phu8z2ujcl","55","NaN","<div style=""width:500px;"">
                            <p style=""font-size:50px; font-weight:bold;""
                            >fearful</p>
                            <div style=""width:240px; margin: auto;"">
                                <img src=""images/map27_cividis_scaleDef_orientDef_180.png"" style= ""width:200px""alt=""img"">
                            </div>
                        </div>","38","","0","","","","images/map27_cividis_scaleDef_orientDef_180.png","fearful","1","27","27","cividis","orientDef","scaleDef","180","",""
"","","","","","html-slider-response","114","435297","0.0-110.0","phu8z2ujcl","55","NaN","<div style=""width:500px;"">
                            <p style=""font-size:50px; font-weight:bold;""
                            >fearful</p>
                            <div style=""width:240px; margin: auto;"">
                                <img src=""images/map23_managua_scaleDef_orientDef_180.png"" style= ""width:200px""alt=""img"">
                            </div>
                        </div>","-98","","0","","","","images/map23_managua_scaleDef_orientDef_180.png","fearful","1","23","23","managua","orientDef","scaleDef","180","",""
"","","","","","html-slider-response","115","439829","0.0-111.0","phu8z2ujcl","55","NaN","<div style=""width:500px;"">
                            <p style=""font-size:50px; font-weight:bold;""
                            >fearful</p>
                            <div style=""width:240px; margin: auto;"">
                                <img src=""images/map27_Purples_scaleRev_orientMir_270.png"" style= ""width:200px""alt=""img"">
                            </div>
                        </div>","30","","0","","","","images/map27_Purples_scaleRev_orientMir_270.png","fearful","1","27","27","Purples","orientMir","scaleRev","270","",""
"","","","","","html-slider-response","116","442080","0.0-112.0","phu8z2ujcl","55","NaN","<div style=""width:500px;"">
                            <p style=""font-size:50px; font-weight:bold;""
                            >fearful</p>
                            <div style=""width:240px; margin: auto;"">
                                <img src=""images/map10_BuGn_scaleRev_orientMir_090.png"" style= ""width:200px""alt=""img"">
                            </div>
                        </div>","-99","","0","","","","images/map10_BuGn_scaleRev_orientMir_090.png","fearful","1","10","10","BuGn","orientMir","scaleRev","090","",""
"","","","","","html-slider-response","117","444130","0.0-113.0","phu8z2ujcl","55","NaN","<div style=""width:500px;"">
                            <p style=""font-size:50px; font-weight:bold;""
                            >fearful</p>
                            <div style=""width:240px; margin: auto;"">
                                <img src=""images/map12_BrBG_scaleDef_orientMir_000.png"" style= ""width:200px""alt=""img"">
                            </div>
                        </div>","29","","0","","","","images/map12_BrBG_scaleDef_orientMir_000.png","fearful","1","12","12","BrBG","orientMir","scaleDef","000","",""
"","","","","","html-slider-response","118","448047","0.0-114.0","phu8z2ujcl","55","NaN","<div style=""width:500px;"">
                            <p style=""font-size:50px; font-weight:bold;""
                            >fearful</p>
                            <div style=""width:240px; margin: auto;"">
                                <img src=""images/map13_RdYlBu_scaleDef_orientMir_000.png"" style= ""width:200px""alt=""img"">
                            </div>
                        </div>","40","","0","","","","images/map13_RdYlBu_scaleDef_orientMir_000.png","fearful","1","13","13","RdYlBu","orientMir","scaleDef","000","",""
"","","","","","html-slider-response","119","451880","0.0-115.0","phu8z2ujcl","55","NaN","<div style=""width:500px;"">
                            <p style=""font-size:50px; font-weight:bold;""
                            >fearful</p>
                            <div style=""width:240px; margin: auto;"">
                                <img src=""images/map23_berlin_scaleRev_orientDef_090.png"" style= ""width:200px""alt=""img"">
                            </div>
                        </div>","109","","0","","","","images/map23_berlin_scaleRev_orientDef_090.png","fearful","1","23","23","berlin","orientDef","scaleRev","090","",""
"","","","","","html-slider-response","120","454530","0.0-116.0","phu8z2ujcl","55","NaN","<div style=""width:500px;"">
                            <p style=""font-size:50px; font-weight:bold;""
                            >fearful</p>
                            <div style=""width:240px; margin: auto;"">
                                <img src=""images/map13_RdGy_scaleDef_orientDef_000.png"" style= ""width:200px""alt=""img"">
                            </div>
                        </div>","100","","0","","","","images/map13_RdGy_scaleDef_orientDef_000.png","fearful","1","13","13","RdGy","orientDef","scaleDef","000","",""
"","","","","","html-slider-response","121","456514","0.0-117.0","phu8z2ujcl","55","NaN","<div style=""width:500px;"">
                            <p style=""font-size:50px; font-weight:bold;""
                            >fearful</p>
                            <div style=""width:240px; margin: auto;"">
                                <img src=""images/map02_Greens_scaleDef_orientDef_180.png"" style= ""width:200px""alt=""img"">
                            </div>
                        </div>","-105","","0","","","","images/map02_Greens_scaleDef_orientDef_180.png","fearful","1","02","02","Greens","orientDef","scaleDef","180","",""
"","","","","","html-slider-response","122","461130","0.0-118.0","phu8z2ujcl","55","NaN","<div style=""width:500px;"">
                            <p style=""font-size:50px; font-weight:bold;""
                            >fearful</p>
                            <div style=""width:240px; margin: auto;"">
                                <img src=""images/map12_PRGn_scaleDef_orientDef_180.png"" style= ""width:200px""alt=""img"">
                            </div>
                        </div>","34","","0","","","","images/map12_PRGn_scaleDef_orientDef_180.png","fearful","1","12","12","PRGn","orientDef","scaleDef","180","",""
"","","","","","html-slider-response","123","464513","0.0-119.0","phu8z2ujcl","55","NaN","<div style=""width:500px;"">
                            <p style=""font-size:50px; font-weight:bold;""
                            >fearful</p>
                            <div style=""width:240px; margin: auto;"">
                                <img src=""images/map26_inferno_scaleRev_orientMir_270.png"" style= ""width:200px""alt=""img"">
                            </div>
                        </div>","74","","0","","","","images/map26_inferno_scaleRev_orientMir_270.png","fearful","1","26","26","inferno","orientMir","scaleRev","270","",""
"","","","","","html-slider-response","124","467730","0.0-120.0","phu8z2ujcl","55","NaN","<div style=""width:500px;"">
                            <p style=""font-size:50px; font-weight:bold;""
                            >fearful</p>
                            <div style=""width:240px; margin: auto;"">
                                <img src=""images/map10_BuGn_scaleDef_orientMir_000.png"" style= ""width:200px""alt=""img"">
                            </div>
                        </div>","-94","","0","","","","images/map10_BuGn_scaleDef_orientMir_000.png","fearful","1","10","10","BuGn","orientMir","scaleDef","000","",""
"","","","","","html-slider-response","125","469680","0.0-121.0","phu8z2ujcl","55","NaN","<div style=""width:500px;"">
                            <p style=""font-size:50px; font-weight:bold;""
                            >fearful</p>
                            <div style=""width:240px; margin: auto;"">
                                <img src=""images/map27_magma_scaleDef_orientDef_000.png"" style= ""width:200px""alt=""img"">
                            </div>
                        </div>","-90","","0","","","","images/map27_magma_scaleDef_orientDef_000.png","fearful","1","27","27","magma","orientDef","scaleDef","000","",""
"","","","","","html-slider-response","126","472547","0.0-122.0","phu8z2ujcl","55","NaN","<div style=""width:500px;"">
                            <p style=""font-size:50px; font-weight:bold;""
                            >fearful</p>
                            <div style=""width:240px; margin: auto;"">
                                <img src=""images/map13_RdYlGn_scaleDef_orientMir_180.png"" style= ""width:200px""alt=""img"">
                            </div>
                        </div>","46","","0","","","","images/map13_RdYlGn_scaleDef_orientMir_180.png","fearful","1","13","13","RdYlGn","orientMir","scaleDef","180","",""
"","","","","","html-slider-response","127","474897","0.0-123.0","phu8z2ujcl","55","NaN","<div style=""width:500px;"">
                            <p style=""font-size:50px; font-weight:bold;""
                            >fearful</p>
                            <div style=""width:240px; margin: auto;"">
                                <img src=""images/map10_YlGnBu_scaleRev_orientDef_090.png"" style= ""width:200px""alt=""img"">
                            </div>
                        </div>","-87","","0","","","","images/map10_YlGnBu_scaleRev_orientDef_090.png","fearful","1","10","10","YlGnBu","orientDef","scaleRev","090","",""
"","","","","","html-slider-response","128","478364","0.0-124.0","phu8z2ujcl","55","NaN","<div style=""width:500px;"">
                            <p style=""font-size:50px; font-weight:bold;""
                            >fearful</p>
                            <div style=""width:240px; margin: auto;"">
                                <img src=""images/map12_PiYG_scaleRev_orientDef_090.png"" style= ""width:200px""alt=""img"">
                            </div>
                        </div>","-34","","0","","","","images/map12_PiYG_scaleRev_orientDef_090.png","fearful","1","12","12","PiYG","orientDef","scaleRev","090","",""
"","","","","","html-slider-response","129","481230","0.0-125.0","phu8z2ujcl","55","NaN","<div style=""width:500px;"">
                            <p style=""font-size:50px; font-weight:bold;""
                            >fearful</p>
                            <div style=""width:240px; margin: auto;"">
                                <img src=""images/map05_YlOrBr_scaleDef_orientDef_000.png"" style= ""width:200px""alt=""img"">
                            </div>
                        </div>","-83","","0","","","","images/map05_YlOrBr_scaleDef_orientDef_000.png","fearful","1","05","05","YlOrBr","orientDef","scaleDef","000","",""
"","","","","","html-slider-response","130","482631","0.0-126.0","phu8z2ujcl","55","NaN","<div style=""width:500px;"">
                            <p style=""font-size:50px; font-weight:bold;""
                            >fearful</p>
                            <div style=""width:240px; margin: auto;"">
                                <img src=""images/map07_GnBu_scaleDef_orientMir_000.png"" style= ""width:200px""alt=""img"">
                            </div>
                        </div>","-89","","0","","","","images/map07_GnBu_scaleDef_orientMir_000.png","fearful","1","07","07","GnBu","orientMir","scaleDef","000","",""
"","","","","","html-slider-response","131","484997","0.0-127.0","phu8z2ujcl","55","NaN","<div style=""width:500px;"">
                            <p style=""font-size:50px; font-weight:bold;""
                            >fearful</p>
                            <div style=""width:240px; margin: auto;"">
                                <img src=""images/map15_seismic_scaleRev_orientMir_270.png"" style= ""width:200px""alt=""img"">
                            </div>
                        </div>","34","","0","","","","images/map15_seismic_scaleRev_orientMir_270.png","fearful","1","15","15","seismic","orientMir","scaleRev","270","",""
"","","","","","html-slider-response","132","487097","0.0-128.0","phu8z2ujcl","55","NaN","<div style=""width:500px;"">
                            <p style=""font-size:50px; font-weight:bold;""
                            >fearful</p>
                            <div style=""width:240px; margin: auto;"">
                                <img src=""images/map05_YlOrRd_scaleDef_orientDef_180.png"" style= ""width:200px""alt=""img"">
                            </div>
                        </div>","-86","","0","","","","images/map05_YlOrRd_scaleDef_orientDef_180.png","fearful","1","05","05","YlOrRd","orientDef","scaleDef","180","",""
"","","","","","html-slider-response","133","489963","0.0-129.0","phu8z2ujcl","55","NaN","<div style=""width:500px;"">
                            <p style=""font-size:50px; font-weight:bold;""
                            >fearful</p>
                            <div style=""width:240px; margin: auto;"">
                                <img src=""images/map07_BuPu_scaleDef_orientDef_180.png"" style= ""width:200px""alt=""img"">
                            </div>
                        </div>","-52","","0","","","","images/map07_BuPu_scaleDef_orientDef_180.png","fearful","1","07","07","BuPu","orientDef","scaleDef","180","",""
"","","","","","html-slider-response","134","491980","0.0-130.0","phu8z2ujcl","55","NaN","<div style=""width:500px;"">
                            <p style=""font-size:50px; font-weight:bold;""
                            >fearful</p>
                            <div style=""width:240px; margin: auto;"">
                                <img src=""images/map15_seismic_scaleDef_orientMir_180.png"" style= ""width:200px""alt=""img"">
                            </div>
                        </div>","49","","0","","","","images/map15_seismic_scaleDef_orientMir_180.png","fearful","1","15","15","seismic","orientMir","scaleDef","180","",""
"","","","","","html-slider-response","135","494681","0.0-131.0","phu8z2ujcl","55","NaN","<div style=""width:500px;"">
                            <p style=""font-size:50px; font-weight:bold;""
                            >fearful</p>
                            <div style=""width:240px; margin: auto;"">
                                <img src=""images/map12_PRGn_scaleRev_orientDef_270.png"" style= ""width:200px""alt=""img"">
                            </div>
                        </div>","31","","0","","","","images/map12_PRGn_scaleRev_orientDef_270.png","fearful","1","12","12","PRGn","orientDef","scaleRev","270","",""
"","","","","","html-slider-response","136","499697","0.0-132.0","phu8z2ujcl","55","NaN","<div style=""width:500px;"">
                            <p style=""font-size:50px; font-weight:bold;""
                            >fearful</p>
                            <div style=""width:240px; margin: auto;"">
                                <img src=""images/map27_Greys_scaleRev_orientMir_090.png"" style= ""width:200px""alt=""img"">
                            </div>
                        </div>","-47","","0","","","","images/map27_Greys_scaleRev_orientMir_090.png","fearful","1","27","27","Greys","orientMir","scaleRev","090","",""
"","","","","","html-slider-response","137","502614","0.0-133.0","phu8z2ujcl","55","NaN","<div style=""width:500px;"">
                            <p style=""font-size:50px; font-weight:bold;""
                            >fearful</p>
                            <div style=""width:240px; margin: auto;"">
                                <img src=""images/map15_Spectral_scaleRev_orientDef_090.png"" style= ""width:200px""alt=""img"">
                            </div>
                        </div>","-32","","0","","","","images/map15_Spectral_scaleRev_orientDef_090.png","fearful","1","15","15","Spectral","orientDef","scaleRev","090","",""
"","","","","","html-slider-response","138","508447","0.0-134.0","phu8z2ujcl","55","NaN","<div style=""width:500px;"">
                            <p style=""font-size:50px; font-weight:bold;""
                            >fearful</p>
                            <div style=""width:240px; margin: auto;"">
                                <img src=""images/map02_Reds_scaleDef_orientMir_180.png"" style= ""width:200px""alt=""img"">
                            </div>
                        </div>","-41","","0","","","","images/map02_Reds_scaleDef_orientMir_180.png","fearful","1","02","02","Reds","orientMir","scaleDef","180","",""
"","","","","","html-slider-response","139","511731","0.0-135.0","phu8z2ujcl","55","NaN","<div style=""width:500px;"">
                            <p style=""font-size:50px; font-weight:bold;""
                            >fearful</p>
                            <div style=""width:240px; margin: auto;"">
                                <img src=""images/map15_bwr_scaleDef_orientMir_000.png"" style= ""width:200px""alt=""img"">
                            </div>
                        </div>","23","","0","","","","images/map15_bwr_scaleDef_orientMir_000.png","fearful","1","15","15","bwr","orientMir","scaleDef","000","",""
"","","","","","html-slider-response","140","518380","0.0-136.0","phu8z2ujcl","55","NaN","<div style=""width:500px;"">
                            <p style=""font-size:50px; font-weight:bold;""
                            >fearful</p>
                            <div style=""width:240px; margin: auto;"">
                                <img src=""images/map13_RdYlBu_scaleRev_orientMir_090.png"" style= ""width:200px""alt=""img"">
                            </div>
                        </div>","36","","0","","","","images/map13_RdYlBu_scaleRev_orientMir_090.png","fearful","1","13","13","RdYlBu","orientMir","scaleRev","090","",""
"","","","","","html-button-response","141","533070","0.0-137.0","phu8z2ujcl","55","14187","<p>You are doing great!<br></br> You are halway done with the current block. When you are ready to continue, click the 'Continue' button.</p>","0","","","","","","","","","","","","","","","",""
"","","","","","html-slider-response","142","535764","0.0-138.0","phu8z2ujcl","55","NaN","<div style=""width:500px;"">
                            <p style=""font-size:50px; font-weight:bold;""
                            >fearful</p>
                            <div style=""width:240px; margin: auto;"">
                                <img src=""images/map13_RdBu_scaleDef_orientDef_180.png"" style= ""width:200px""alt=""img"">
                            </div>
                        </div>","39","","0","","","","images/map13_RdBu_scaleDef_orientDef_180.png","fearful","1","13","13","RdBu","orientDef","scaleDef","180","",""
"","","","","","html-slider-response","143","537896","0.0-139.0","phu8z2ujcl","55","NaN","<div style=""width:500px;"">
                            <p style=""font-size:50px; font-weight:bold;""
                            >fearful</p>
                            <div style=""width:240px; margin: auto;"">
                                <img src=""images/map12_PuOr_scaleDef_orientMir_180.png"" style= ""width:200px""alt=""img"">
                            </div>
                        </div>","42","","0","","","","images/map12_PuOr_scaleDef_orientMir_180.png","fearful","1","12","12","PuOr","orientMir","scaleDef","180","",""
"","","","","","html-slider-response","144","544531","0.0-140.0","phu8z2ujcl","55","NaN","<div style=""width:500px;"">
                            <p style=""font-size:50px; font-weight:bold;""
                            >fearful</p>
                            <div style=""width:240px; margin: auto;"">
                                <img src=""images/map05_OrRd_scaleDef_orientMir_000.png"" style= ""width:200px""alt=""img"">
                            </div>
                        </div>","-102","","0","","","","images/map05_OrRd_scaleDef_orientMir_000.png","fearful","1","05","05","OrRd","orientMir","scaleDef","000","",""
"","","","","","html-slider-response","145","547764","0.0-141.0","phu8z2ujcl","55","NaN","<div style=""width:500px;"">
                            <p style=""font-size:50px; font-weight:bold;""
                            >fearful</p>
                            <div style=""width:240px; margin: auto;"">
                                <img src=""images/map26_plasma_scaleDef_orientMir_000.png"" style= ""width:200px""alt=""img"">
                            </div>
                        </div>","-87","","0","","","","images/map26_plasma_scaleDef_orientMir_000.png","fearful","1","26","26","plasma","orientMir","scaleDef","000","",""
"","","","","","html-slider-response","146","549098","0.0-142.0","phu8z2ujcl","55","NaN","<div style=""width:500px;"">
                            <p style=""font-size:50px; font-weight:bold;""
                            >fearful</p>
                            <div style=""width:240px; margin: auto;"">
                                <img src=""images/map23_gist_earth_scaleRev_orientMir_270.png"" style= ""width:200px""alt=""img"">
                            </div>
                        </div>","-87","","0","","","","images/map23_gist_earth_scaleRev_orientMir_270.png","fearful","1","23","23","gist","scaleRev","earth","orientMir","",""
"","","","","","html-slider-response","147","551514","0.0-143.0","phu8z2ujcl","55","NaN","<div style=""width:500px;"">
                            <p style=""font-size:50px; font-weight:bold;""
                            >fearful</p>
                            <div style=""width:240px; margin: auto;"">
                                <img src=""images/map26_viridis_scaleRev_orientDef_270.png"" style= ""width:200px""alt=""img"">
                            </div>
                        </div>","-86","","0","","","","images/map26_viridis_scaleRev_orientDef_270.png","fearful","1","26","26","viridis","orientDef","scaleRev","270","",""
"","","","","","html-slider-response","148","553981","0.0-144.0","phu8z2ujcl","55","NaN","<div style=""width:500px;"">
                            <p style=""font-size:50px; font-weight:bold;""
                            >fearful</p>
                            <div style=""width:240px; margin: auto;"">
                                <img src=""images/map27_cividis_scaleRev_orientDef_270.png"" style= ""width:200px""alt=""img"">
                            </div>
                        </div>","-32","","0","","","","images/map27_cividis_scaleRev_orientDef_270.png","fearful","1","27","27","cividis","orientDef","scaleRev","270","",""
"","","","","","html-slider-response","149","557281","0.0-145.0","phu8z2ujcl","55","NaN","<div style=""width:500px;"">
                            <p style=""font-size:50px; font-weight:bold;""
                            >fearful</p>
                            <div style=""width:240px; margin: auto;"">
                                <img src=""images/map02_Blues_scaleRev_orientDef_090.png"" style= ""width:200px""alt=""img"">
                            </div>
                        </div>","-195","","0","","","","images/map02_Blues_scaleRev_orientDef_090.png","fearful","1","02","02","Blues","orientDef","scaleRev","090","",""
"","","","","","html-slider-response","150","559580","0.0-146.0","phu8z2ujcl","55","NaN","<div style=""width:500px;"">
                            <p style=""font-size:50px; font-weight:bold;""
                            >fearful</p>
                            <div style=""width:240px; margin: auto;"">
                                <img src=""images/map07_RdPu_scaleDef_orientDef_000.png"" style= ""width:200px""alt=""img"">
                            </div>
                        </div>","-77","","0","","","","images/map07_RdPu_scaleDef_orientDef_000.png","fearful","1","07","07","RdPu","orientDef","scaleDef","000","",""
"","","","","","html-slider-response","151","561914","0.0-147.0","phu8z2ujcl","55","NaN","<div style=""width:500px;"">
                            <p style=""font-size:50px; font-weight:bold;""
                            >fearful</p>
                            <div style=""width:240px; margin: auto;"">
                                <img src=""images/map23_vanimo_scaleDef_orientMir_000.png"" style= ""width:200px""alt=""img"">
                            </div>
                        </div>","45","","0","","","","images/map23_vanimo_scaleDef_orientMir_000.png","fearful","1","23","23","vanimo","orientMir","scaleDef","000","",""
"","","","","","html-slider-response","152","564464","0.0-148.0","phu8z2ujcl","55","NaN","<div style=""width:500px;"">
                            <p style=""font-size:50px; font-weight:bold;""
                            >fearful</p>
                            <div style=""width:240px; margin: auto;"">
                                <img src=""images/map15_Spectral_scaleDef_orientDef_000.png"" style= ""width:200px""alt=""img"">
                            </div>
                        </div>","30","","0","","","","images/map15_Spectral_scaleDef_orientDef_000.png","fearful","1","15","15","Spectral","orientDef","scaleDef","000","",""
"","","","","","html-slider-response","153","566730","0.0-149.0","phu8z2ujcl","55","NaN","<div style=""width:500px;"">
                            <p style=""font-size:50px; font-weight:bold;""
                            >fearful</p>
                            <div style=""width:240px; margin: auto;"">
                                <img src=""images/map26_plasma_scaleRev_orientMir_090.png"" style= ""width:200px""alt=""img"">
                            </div>
                        </div>","-52","","0","","","","images/map26_plasma_scaleRev_orientMir_090.png","fearful","1","26","26","plasma","orientMir","scaleRev","090","",""
"","","","","","html-slider-response","154","568698","0.0-150.0","phu8z2ujcl","55","NaN","<div style=""width:500px;"">
                            <p style=""font-size:50px; font-weight:bold;""
                            >fearful</p>
                            <div style=""width:240px; margin: auto;"">
                                <img src=""images/map10_YlGn_scaleRev_orientMir_270.png"" style= ""width:200px""alt=""img"">
                            </div>
                        </div>","-89","","0","","","","images/map10_YlGn_scaleRev_orientMir_270.png","fearful","1","10","10","YlGn","orientMir","scaleRev","270","",""
"","","","","","html-slider-response","155","571698","0.0-151.0","phu8z2ujcl","55","NaN","<div style=""width:500px;"">
                            <p style=""font-size:50px; font-weight:bold;""
                            >fearful</p>
                            <div style=""width:240px; margin: auto;"">
                                <img src=""images/map23_berlin_scaleDef_orientDef_000.png"" style= ""width:200px""alt=""img"">
                            </div>
                        </div>","43","","0","","","","images/map23_berlin_scaleDef_orientDef_000.png","fearful","1","23","23","berlin","orientDef","scaleDef","000","",""
"","","","","","html-slider-response","156","574398","0.0-152.0","phu8z2ujcl","55","NaN","<div style=""width:500px;"">
                            <p style=""font-size:50px; font-weight:bold;""
                            >fearful</p>
                            <div style=""width:240px; margin: auto;"">
                                <img src=""images/map27_Greys_scaleDef_orientMir_000.png"" style= ""width:200px""alt=""img"">
                            </div>
                        </div>","30","","0","","","","images/map27_Greys_scaleDef_orientMir_000.png","fearful","1","27","27","Greys","orientMir","scaleDef","000","",""
"","","","","","html-slider-response","157","576764","0.0-153.0","phu8z2ujcl","55","NaN","<div style=""width:500px;"">
                            <p style=""font-size:50px; font-weight:bold;""
                            >fearful</p>
                            <div style=""width:240px; margin: auto;"">
                                <img src=""images/map10_YlGnBu_scaleDef_orientDef_000.png"" style= ""width:200px""alt=""img"">
                            </div>
