"success","timeout","failed_images","failed_audio","failed_video","trial_type","trial_index","time_elapsed","internal_node_id","subject_id","condition_num","rt","stimulus","response","question_order","slider_start","practiceTrial","practiceTrialNum","correct","image_path","concept","repetition","map_id","map_num","scale_name","orientation_code","mapping_code","rotation_code","ishihara_plate","correct_response"
"true","false","[]","[]","[]","preload","0","1523","0.0-0.0","pnq0th3qu7","63","","","","","","","","","","","","","","","","","","",""
"","","","","","html-button-response","1","3410","0.0-1.0","pnq0th3qu7","63","1884","Welcome to our experiment!<p>At the bottom of this screen, you will see a button that says ""Begin Experiment"".<br>Please only click that button when you are ready to complete the 30 minute experiment in one sitting.</p><p> Once you click that button, it will not be possible to restart the experiment.","0","","","","","","","","","","","","","","","",""
"true","","","","","fullscreen","2","5261","0.0-2.0","pnq0th3qu7","63","846","","","","","","","","","","","","","","","","","",""
"","","","","","survey-multi-select","3","11463","0.0-3.0","pnq0th3qu7","63","6197","","{""Consent"":[""<strong>I consent</strong>""]}","[0]","","","","","","","","","","","","","","",""
"","","","","","html-button-response","4","13294","0.0-4.0","pnq0th3qu7","63","1829","Welcome! <p> This experiment involves two parts: demographic information, followed by the experimental task.<p> It will take about 30 minutes to complete both parts.","0","","","","","","","","","","","","","","","",""
"","","","","","survey-text","5","24530","0.0-5.0","pnq0th3qu7","63","11228","","{""Age"":""19"",""Gender"":""Female"",""Race/ethnicity"":""White"",""Languages"":""English""}","","","","","","","","","","","","","","","",""
"","","","","","html-slider-response","6","33227","0.0-6.0","pnq0th3qu7","63","8695","<div style='text-align:left; font-size:20px; line-height:25px; width: 1000px;'>
                                During this experiment you will be asked to rate how much you associate maps with                    different concepts.<br> Below, you can see some examples of the maps you will be asked to rate. Above the maps
                    is the list of concepts.<br>You will be asked                    to rate how much you associate each map with each concept on a scale from 'not at all' to 'very much' like the
                    one below. <br><br>
                    Now, please look at the list of concepts and maps. For each concept, think about the map you associate 'very
                    much' with the concept.<br>                     When you see that map during the experiment, please rate it near the 'very much' endpoint of the
                    scale.<br>Now, please think about which map you associate 'not at all'                     with each concept. When you see that map during the experiment, please rate it near the 'not at all' endpoint
                    of the scale.<br>
                    Please use the full range of the scale. That is, if a map is somewhat associated with the concept, you would
                    click partway between the middle point and right side of the scale.                    You will be asked to rate each map for a given concept before moving on to the next concept.<br>Press the
                    'Continue' button for instructions on how to use the slider.                    <br>
                </div>

                <div style=""width: 500px; margin: 0 auto;"">
                    <!-- Centered text paragraphs -->
                    <div style=""text-align: center; width: 500px;"">
                        <p style=""font-size:25px; line-height:15px;"">
                            angry&nbsp;&nbsp;&nbsp;&nbsp;
                            sad&nbsp;&nbsp;&nbsp;&nbsp;
                            disgust&nbsp;&nbsp;&nbsp;&nbsp;
                            happy&nbsp;&nbsp;&nbsp;&nbsp;
                            fearful
                        </p>
                        <!-- <p style=""font-size:20px; line-height:15px;"">sad</p>
                        <p style=""font-size:20px;line-height:15px;"">disgust</p>
                        <p style=""font-size:20px;line-height:15px;"">happy</p>
                        <p style=""font-size:20px;line-height:15px;"">fearful</p> -->
                    </div>
            

                    <!-- Grid section -->
                   <div style=""display: flex; justify-content: center; padding-top: 15px;"">
                    <div style=""display: grid; grid-template-columns: repeat(10, 55px); grid-gap: 5px; width: auto;"">
                        <img src=""images/map13_RdBu_scaleRev_orientDef_000.png"" alt=""map"" style=""width: 100%;""><img src=""images/map12_PuOr_scaleDef_orientDef_270.png"" alt=""map"" style=""width: 100%;""><img src=""images/map27_Blues_scaleRev_orientMir_180.png"" alt=""map"" style=""width: 100%;""><img src=""images/map23_managua_scaleRev_orientDef_000.png"" alt=""map"" style=""width: 100%;""><img src=""images/map10_PiYG_scaleDef_orientMir_090.png"" alt=""map"" style=""width: 100%;""><img src=""images/map13_RdYlBu_scaleRev_orientDef_180.png"" alt=""map"" style=""width: 100%;""><img src=""images/map13_RdYlGn_scaleRev_orientMir_000.png"" alt=""map"" style=""width: 100%;""><img src=""images/map26_inferno_scaleRev_orientMir_000.png"" alt=""map"" style=""width: 100%;""><img src=""images/map07_PuBu_scaleDef_orientDef_270.png"" alt=""map"" style=""width: 100%;""><img src=""images/map05_PuRd_scaleRev_orientMir_000.png"" alt=""map"" style=""width: 100%;""><img src=""images/map02_YlOrRd_scaleDef_orientMir_270.png"" alt=""map"" style=""width: 100%;""><img src=""images/map02_YlOrBr_scaleDef_orientMir_090.png"" alt=""map"" style=""width: 100%;""><img src=""images/map23_gist_earth_scaleDef_orientDef_270.png"" alt=""map"" style=""width: 100%;""><img src=""images/map23_viridis_scaleDef_orientMir_270.png"" alt=""map"" style=""width: 100%;""><img src=""images/map05_OrRd_scaleDef_orientDef_090.png"" alt=""map"" style=""width: 100%;""><img src=""images/map27_cividis_scaleRev_orientDef_000.png"" alt=""map"" style=""width: 100%;""><img src=""images/map23_vanimo_scaleRev_orientDef_180.png"" alt=""map"" style=""width: 100%;""><img src=""images/map23_turbo_scaleRev_orientMir_180.png"" alt=""map"" style=""width: 100%;""><img src=""images/map15_seismic_scaleRev_orientMir_000.png"" alt=""map"" style=""width: 100%;""><img src=""images/map13_Spectral_scaleRev_orientMir_180.png"" alt=""map"" style=""width: 100%;""><img src=""images/map10_PRGn_scaleDef_orientMir_270.png"" alt=""map"" style=""width: 100%;""><img src=""images/map10_YlGn_scaleDef_orientDef_270.png"" alt=""map"" style=""width: 100%;""><img src=""images/map10_PuBuGn_scaleRev_orientDef_000.png"" alt=""map"" style=""width: 100%;""><img src=""images/map12_BrBG_scaleDef_orientDef_090.png"" alt=""map"" style=""width: 100%;""><img src=""images/map15_coolwarm_scaleRev_orientDef_000.png"" alt=""map"" style=""width: 100%;""><img src=""images/map07_YlGnBu_scaleRev_orientMir_180.png"" alt=""map"" style=""width: 100%;""><img src=""images/map15_bwr_scaleDef_orientDef_090.png"" alt=""map"" style=""width: 100%;""><img src=""images/map05_RdPu_scaleRev_orientMir_180.png"" alt=""map"" style=""width: 100%;""><img src=""images/map27_Greens_scaleDef_orientMir_270.png"" alt=""map"" style=""width: 100%;""><img src=""images/map10_BuGn_scaleDef_orientDef_090.png"" alt=""map"" style=""width: 100%;""><img src=""images/map26_plasma_scaleRev_orientDef_180.png"" alt=""map"" style=""width: 100%;""><img src=""images/map12_RdGy_scaleDef_orientMir_090.png"" alt=""map"" style=""width: 100%;""><img src=""images/map15_berlin_scaleDef_orientMir_090.png"" alt=""map"" style=""width: 100%;""><img src=""images/map02_Oranges_scaleDef_orientDef_090.png"" alt=""map"" style=""width: 100%;""><img src=""images/map27_Purples_scaleRev_orientMir_000.png"" alt=""map"" style=""width: 100%;""><img src=""images/map05_BuPu_scaleDef_orientMir_270.png"" alt=""map"" style=""width: 100%;""><img src=""images/map26_magma_scaleDef_orientMir_090.png"" alt=""map"" style=""width: 100%;""><img src=""images/map27_Greys_scaleRev_orientDef_180.png"" alt=""map"" style=""width: 100%;""><img src=""images/map02_Reds_scaleRev_orientMir_000.png"" alt=""map"" style=""width: 100%;""><img src=""images/map07_GnBu_scaleRev_orientDef_180.png"" alt=""map"" style=""width: 100%;"">
                    </div>
                </div>

                    <!-- Clear floats -->
                    <div style=""clear: both;""></div>
                </div>
                            ","null","","0","true","","","","","","","","","","","","",""
"","","","","","html-button-response","7","34227","0.0-7.0","pnq0th3qu7","63","999","<div style=""width:800px;""><p style=""text-align:left"">To move the slider, click and drag your cursor to the location of the scale where you would like to make your rating and then let go. When you let go of the slider, your response will be recorded and the next trial will begin. <br>
                    We are interested in your initial impressions of each map for the given concept, so please go with your first intuition. <br>
                    Before you begin the experiment, there will be four training trials for you to practice using the scale. <br>
                     When you are ready to start the training trials, please click ""Continue"".</p><br></div>","0","","","","","","","","","","","","","","","",""
"","","","","","html-slider-response","8","36305","0.0-8.0-0.0","pnq0th3qu7","63","NaN","<div style=""width:500px;"">
                                    <p style=""font-size:25px;"">Please move the slider all the way to the <br> right endpoint of the scale</p>

                                    </div>
                                </div>","198","","0","true","0","true","","","","","","","","","","",""
"","","","","","html-button-response","9","37666","0.0-8.0-1.0","pnq0th3qu7","63","858","<p align='center'><b>Good job!</b> Click on 'Continue' to proceed.</p>","0","","","","","","","","","","","","","","","",""
"","","","","","html-slider-response","10","39381","0.0-9.0-0.0","pnq0th3qu7","63","NaN","<div style=""width:500px;"">
                                    <p style=""font-size:25px;"">Please move the slider all the way to the <br> left endpoint of the scale</p>

                                    </div>
                                </div>","-197","","0","true","1","true","","","","","","","","","","",""
"","","","","","html-button-response","11","40725","0.0-9.0-1.0","pnq0th3qu7","63","841","<p align='center'><b>Good job!</b> Click on 'Continue' to proceed.</p>","0","","","","","","","","","","","","","","","",""
"","","","","","html-slider-response","12","42882","0.0-10.0-0.0","pnq0th3qu7","63","NaN","<div style=""width:500px;"">
                                    <p style=""font-size:25px;"">Please move the slider halfway between the center and right endpoint of the scale</p>

                                    </div>
                                </div>","103","","0","true","2","true","","","","","","","","","","",""
"","","","","","html-button-response","13","44073","0.0-10.0-1.0","pnq0th3qu7","63","689","<p align='center'><b>Good job!</b> Click on 'Continue' to proceed.</p>","0","","","","","","","","","","","","","","","",""
"","","","","","html-slider-response","14","45399","0.0-11.0-0.0","pnq0th3qu7","63","NaN","<div style=""width:500px;"">
                                    <p style=""font-size:25px;"">Please move the slider halfway between the center and left endpoint of the scale</p>

                                    </div>
                                </div>","-99","","0","true","3","true","","","","","","","","","","",""
"","","","","","html-button-response","15","46671","0.0-11.0-1.0","pnq0th3qu7","63","770","<p align='center'><b>Good job!</b> Click on 'Continue' to proceed.</p>","0","","","","","","","","","","","","","","","",""
"","","","","","html-button-response","16","47366","0.0-12.0","pnq0th3qu7","63","695","<p>Great job! You've completed the practice trials. Now you will begin the main task.</p>","0","","","","","","","","","","","","","","","",""
"","","","","","html-button-response","17","48521","0.0-13.0","pnq0th3qu7","63","1154","<p>In this block of trials, you will be asked to rate how much you associate each map with:</p > <p style = 'font-size:150%; font-weight: bold'>angry</p><br></br>","0","","","","","","","","","","","","","","","",""
"","","","","","html-slider-response","18","50766","0.0-14.0","pnq0th3qu7","63","NaN","<div style=""width:500px;"">
                            <p style=""font-size:50px; font-weight:bold;""
                            >angry</p>
                            <div style=""width:240px; margin: auto;"">
                                <img src=""images/map12_BrBG_scaleDef_orientDef_090.png"" style= ""width:200px""alt=""img"">
                            </div>
                        </div>","-71","","0","","","","images/map12_BrBG_scaleDef_orientDef_090.png","angry","1","12","12","BrBG","orientDef","scaleDef","090","",""
"","","","","","html-slider-response","19","52525","0.0-15.0","pnq0th3qu7","63","NaN","<div style=""width:500px;"">
                            <p style=""font-size:50px; font-weight:bold;""
                            >angry</p>
                            <div style=""width:240px; margin: auto;"">
                                <img src=""images/map27_Purples_scaleRev_orientMir_000.png"" style= ""width:200px""alt=""img"">
                            </div>
                        </div>","18","","0","","","","images/map27_Purples_scaleRev_orientMir_000.png","angry","1","27","27","Purples","orientMir","scaleRev","000","",""
"","","","","","html-slider-response","20","54100","0.0-16.0","pnq0th3qu7","63","NaN","<div style=""width:500px;"">
                            <p style=""font-size:50px; font-weight:bold;""
                            >angry</p>
                            <div style=""width:240px; margin: auto;"">
                                <img src=""images/map13_RdYlGn_scaleDef_orientDef_270.png"" style= ""width:200px""alt=""img"">
                            </div>
                        </div>","131","","0","","","","images/map13_RdYlGn_scaleDef_orientDef_270.png","angry","1","13","13","RdYlGn","orientDef","scaleDef","270","",""
"","","","","","html-slider-response","21","56011","0.0-17.0","pnq0th3qu7","63","NaN","<div style=""width:500px;"">
                            <p style=""font-size:50px; font-weight:bold;""
                            >angry</p>
                            <div style=""width:240px; margin: auto;"">
                                <img src=""images/map27_cividis_scaleRev_orientDef_000.png"" style= ""width:200px""alt=""img"">
                            </div>
                        </div>","84","","0","","","","images/map27_cividis_scaleRev_orientDef_000.png","angry","1","27","27","cividis","orientDef","scaleRev","000","",""
"","","","","","html-slider-response","22","57900","0.0-18.0","pnq0th3qu7","63","NaN","<div style=""width:500px;"">
                            <p style=""font-size:50px; font-weight:bold;""
                            >angry</p>
                            <div style=""width:240px; margin: auto;"">
                                <img src=""images/map23_gist_earth_scaleDef_orientDef_270.png"" style= ""width:200px""alt=""img"">
                            </div>
                        </div>","48","","0","","","","images/map23_gist_earth_scaleDef_orientDef_270.png","angry","1","23","23","gist","scaleDef","earth","orientDef","",""
"","","","","","html-slider-response","23","59877","0.0-19.0","pnq0th3qu7","63","NaN","<div style=""width:500px;"">
                            <p style=""font-size:50px; font-weight:bold;""
                            >angry</p>
                            <div style=""width:240px; margin: auto;"">
                                <img src=""images/map13_Spectral_scaleRev_orientMir_180.png"" style= ""width:200px""alt=""img"">
                            </div>
                        </div>","94","","0","","","","images/map13_Spectral_scaleRev_orientMir_180.png","angry","1","13","13","Spectral","orientMir","scaleRev","180","",""
"","","","","","html-slider-response","24","61345","0.0-20.0","pnq0th3qu7","63","NaN","<div style=""width:500px;"">
                            <p style=""font-size:50px; font-weight:bold;""
                            >angry</p>
                            <div style=""width:240px; margin: auto;"">
                                <img src=""images/map10_PuBuGn_scaleRev_orientDef_000.png"" style= ""width:200px""alt=""img"">
                            </div>
                        </div>","30","","0","","","","images/map10_PuBuGn_scaleRev_orientDef_000.png","angry","1","10","10","PuBuGn","orientDef","scaleRev","000","",""
"","","","","","html-slider-response","25","62951","0.0-21.0","pnq0th3qu7","63","NaN","<div style=""width:500px;"">
                            <p style=""font-size:50px; font-weight:bold;""
                            >angry</p>
                            <div style=""width:240px; margin: auto;"">
                                <img src=""images/map26_cividis_scaleDef_orientMir_270.png"" style= ""width:200px""alt=""img"">
                            </div>
                        </div>","106","","0","","","","images/map26_cividis_scaleDef_orientMir_270.png","angry","1","26","26","cividis","orientMir","scaleDef","270","",""
"","","","","","html-slider-response","26","65033","0.0-22.0","pnq0th3qu7","63","NaN","<div style=""width:500px;"">
                            <p style=""font-size:50px; font-weight:bold;""
                            >angry</p>
                            <div style=""width:240px; margin: auto;"">
                                <img src=""images/map02_YlOrRd_scaleDef_orientMir_270.png"" style= ""width:200px""alt=""img"">
                            </div>
                        </div>","194","","0","","","","images/map02_YlOrRd_scaleDef_orientMir_270.png","angry","1","02","02","YlOrRd","orientMir","scaleDef","270","",""
"","","","","","html-slider-response","27","67098","0.0-23.0","pnq0th3qu7","63","NaN","<div style=""width:500px;"">
                            <p style=""font-size:50px; font-weight:bold;""
                            >angry</p>
                            <div style=""width:240px; margin: auto;"">
                                <img src=""images/map12_RdBu_scaleDef_orientMir_270.png"" style= ""width:200px""alt=""img"">
                            </div>
                        </div>","31","","0","","","","images/map12_RdBu_scaleDef_orientMir_270.png","angry","1","12","12","RdBu","orientMir","scaleDef","270","",""
"","","","","","html-slider-response","28","68977","0.0-24.0","pnq0th3qu7","63","NaN","<div style=""width:500px;"">
                            <p style=""font-size:50px; font-weight:bold;""
                            >angry</p>
                            <div style=""width:240px; margin: auto;"">
                                <img src=""images/map02_Oranges_scaleDef_orientDef_090.png"" style= ""width:200px""alt=""img"">
                            </div>
                        </div>","151","","0","","","","images/map02_Oranges_scaleDef_orientDef_090.png","angry","1","02","02","Oranges","orientDef","scaleDef","090","",""
"","","","","","html-slider-response","29","71737","0.0-25.0","pnq0th3qu7","63","NaN","<div style=""width:500px;"">
                            <p style=""font-size:50px; font-weight:bold;""
                            >angry</p>
                            <div style=""width:240px; margin: auto;"">
                                <img src=""images/map15_bwr_scaleRev_orientDef_180.png"" style= ""width:200px""alt=""img"">
                            </div>
                        </div>","60","","0","","","","images/map15_bwr_scaleRev_orientDef_180.png","angry","1","15","15","bwr","orientDef","scaleRev","180","",""
"","","","","","html-slider-response","30","73625","0.0-26.0","pnq0th3qu7","63","NaN","<div style=""width:500px;"">
                            <p style=""font-size:50px; font-weight:bold;""
                            >angry</p>
                            <div style=""width:240px; margin: auto;"">
                                <img src=""images/map15_seismic_scaleRev_orientMir_000.png"" style= ""width:200px""alt=""img"">
                            </div>
                        </div>","110","","0","","","","images/map15_seismic_scaleRev_orientMir_000.png","angry","1","15","15","seismic","orientMir","scaleRev","000","",""
"","","","","","html-slider-response","31","75296","0.0-27.0","pnq0th3qu7","63","NaN","<div style=""width:500px;"">
                            <p style=""font-size:50px; font-weight:bold;""
                            >angry</p>
                            <div style=""width:240px; margin: auto;"">
                                <img src=""images/map10_PiYG_scaleRev_orientMir_180.png"" style= ""width:200px""alt=""img"">
                            </div>
                        </div>","-6","","0","","","","images/map10_PiYG_scaleRev_orientMir_180.png","angry","1","10","10","PiYG","orientMir","scaleRev","180","",""
"","","","","","html-slider-response","32","76612","0.0-28.0","pnq0th3qu7","63","NaN","<div style=""width:500px;"">
                            <p style=""font-size:50px; font-weight:bold;""
                            >angry</p>
                            <div style=""width:240px; margin: auto;"">
                                <img src=""images/map10_PRGn_scaleDef_orientMir_270.png"" style= ""width:200px""alt=""img"">
                            </div>
                        </div>","-31","","0","","","","images/map10_PRGn_scaleDef_orientMir_270.png","angry","1","10","10","PRGn","orientMir","scaleDef","270","",""
"","","","","","html-slider-response","33","78403","0.0-29.0","pnq0th3qu7","63","NaN","<div style=""width:500px;"">
                            <p style=""font-size:50px; font-weight:bold;""
                            >angry</p>
                            <div style=""width:240px; margin: auto;"">
                                <img src=""images/map12_PuOr_scaleRev_orientMir_000.png"" style= ""width:200px""alt=""img"">
                            </div>
                        </div>","43","","0","","","","images/map12_PuOr_scaleRev_orientMir_000.png","angry","1","12","12","PuOr","orientMir","scaleRev","000","",""
"","","","","","html-slider-response","34","80670","0.0-30.0","pnq0th3qu7","63","NaN","<div style=""width:500px;"">
                            <p style=""font-size:50px; font-weight:bold;""
                            >angry</p>
                            <div style=""width:240px; margin: auto;"">
                                <img src=""images/map12_PRGn_scaleRev_orientDef_000.png"" style= ""width:200px""alt=""img"">
                            </div>
                        </div>","-25","","0","","","","images/map12_PRGn_scaleRev_orientDef_000.png","angry","1","12","12","PRGn","orientDef","scaleRev","000","",""
"","","","","","html-slider-response","35","82445","0.0-31.0","pnq0th3qu7","63","NaN","<div style=""width:500px;"">
                            <p style=""font-size:50px; font-weight:bold;""
                            >angry</p>
                            <div style=""width:240px; margin: auto;"">
                                <img src=""images/map02_Greens_scaleRev_orientDef_000.png"" style= ""width:200px""alt=""img"">
                            </div>
                        </div>","-53","","0","","","","images/map02_Greens_scaleRev_orientDef_000.png","angry","1","02","02","Greens","orientDef","scaleRev","000","",""
"","","","","","html-slider-response","36","84149","0.0-32.0","pnq0th3qu7","63","NaN","<div style=""width:500px;"">
                            <p style=""font-size:50px; font-weight:bold;""
                            >angry</p>
                            <div style=""width:240px; margin: auto;"">
                                <img src=""images/map23_vanimo_scaleDef_orientDef_090.png"" style= ""width:200px""alt=""img"">
                            </div>
                        </div>","78","","0","","","","images/map23_vanimo_scaleDef_orientDef_090.png","angry","1","23","23","vanimo","orientDef","scaleDef","090","",""
"","","","","","html-slider-response","37","86529","0.0-33.0","pnq0th3qu7","63","NaN","<div style=""width:500px;"">
                            <p style=""font-size:50px; font-weight:bold;""
                            >angry</p>
                            <div style=""width:240px; margin: auto;"">
                                <img src=""images/map27_Greys_scaleRev_orientDef_180.png"" style= ""width:200px""alt=""img"">
                            </div>
                        </div>","-145","","0","","","","images/map27_Greys_scaleRev_orientDef_180.png","angry","1","27","27","Greys","orientDef","scaleRev","180","",""
"","","","","","html-slider-response","38","88174","0.0-34.0","pnq0th3qu7","63","NaN","<div style=""width:500px;"">
                            <p style=""font-size:50px; font-weight:bold;""
                            >angry</p>
                            <div style=""width:240px; margin: auto;"">
                                <img src=""images/map23_vanimo_scaleRev_orientDef_180.png"" style= ""width:200px""alt=""img"">
                            </div>
                        </div>","82","","0","","","","images/map23_vanimo_scaleRev_orientDef_180.png","angry","1","23","23","vanimo","orientDef","scaleRev","180","",""
"","","","","","html-slider-response","39","90128","0.0-35.0","pnq0th3qu7","63","NaN","<div style=""width:500px;"">
                            <p style=""font-size:50px; font-weight:bold;""
                            >angry</p>
                            <div style=""width:240px; margin: auto;"">
                                <img src=""images/map27_Greens_scaleDef_orientMir_270.png"" style= ""width:200px""alt=""img"">
                            </div>
                        </div>","-97","","0","","","","images/map27_Greens_scaleDef_orientMir_270.png","angry","1","27","27","Greens","orientMir","scaleDef","270","",""
"","","","","","html-slider-response","40","91790","0.0-36.0","pnq0th3qu7","63","NaN","<div style=""width:500px;"">
                            <p style=""font-size:50px; font-weight:bold;""
                            >angry</p>
                            <div style=""width:240px; margin: auto;"">
                                <img src=""images/map12_RdGy_scaleRev_orientMir_180.png"" style= ""width:200px""alt=""img"">
                            </div>
                        </div>","159","","0","","","","images/map12_RdGy_scaleRev_orientMir_180.png","angry","1","12","12","RdGy","orientMir","scaleRev","180","",""
"","","","","","html-slider-response","41","93364","0.0-37.0","pnq0th3qu7","63","NaN","<div style=""width:500px;"">
                            <p style=""font-size:50px; font-weight:bold;""
                            >angry</p>
                            <div style=""width:240px; margin: auto;"">
                                <img src=""images/map07_PuBu_scaleDef_orientDef_270.png"" style= ""width:200px""alt=""img"">
                            </div>
                        </div>","-22","","0","","","","images/map07_PuBu_scaleDef_orientDef_270.png","angry","1","07","07","PuBu","orientDef","scaleDef","270","",""
"","","","","","html-slider-response","42","94688","0.0-38.0","pnq0th3qu7","63","NaN","<div style=""width:500px;"">
                            <p style=""font-size:50px; font-weight:bold;""
                            >angry</p>
                            <div style=""width:240px; margin: auto;"">
                                <img src=""images/map27_Blues_scaleDef_orientMir_090.png"" style= ""width:200px""alt=""img"">
                            </div>
                        </div>","-84","","0","","","","images/map27_Blues_scaleDef_orientMir_090.png","angry","1","27","27","Blues","orientMir","scaleDef","090","",""
"","","","","","html-slider-response","43","96413","0.0-39.0","pnq0th3qu7","63","NaN","<div style=""width:500px;"">
                            <p style=""font-size:50px; font-weight:bold;""
                            >angry</p>
                            <div style=""width:240px; margin: auto;"">
                                <img src=""images/map23_turbo_scaleDef_orientMir_090.png"" style= ""width:200px""alt=""img"">
                            </div>
                        </div>","174","","0","","","","images/map23_turbo_scaleDef_orientMir_090.png","angry","1","23","23","turbo","orientMir","scaleDef","090","",""
"","","","","","html-slider-response","44","98440","0.0-40.0","pnq0th3qu7","63","NaN","<div style=""width:500px;"">
                            <p style=""font-size:50px; font-weight:bold;""
                            >angry</p>
                            <div style=""width:240px; margin: auto;"">
                                <img src=""images/map15_seismic_scaleDef_orientDef_270.png"" style= ""width:200px""alt=""img"">
                            </div>
                        </div>","182","","0","","","","images/map15_seismic_scaleDef_orientDef_270.png","angry","1","15","15","seismic","orientDef","scaleDef","270","",""
"","","","","","html-slider-response","45","100239","0.0-41.0","pnq0th3qu7","63","NaN","<div style=""width:500px;"">
                            <p style=""font-size:50px; font-weight:bold;""
                            >angry</p>
                            <div style=""width:240px; margin: auto;"">
                                <img src=""images/map27_Greys_scaleDef_orientDef_090.png"" style= ""width:200px""alt=""img"">
                            </div>
                        </div>","-194","","0","","","","images/map27_Greys_scaleDef_orientDef_090.png","angry","1","27","27","Greys","orientDef","scaleDef","090","",""
"","","","","","html-slider-response","46","101812","0.0-42.0","pnq0th3qu7","63","NaN","<div style=""width:500px;"">
                            <p style=""font-size:50px; font-weight:bold;""
                            >angry</p>
                            <div style=""width:240px; margin: auto;"">
                                <img src=""images/map07_PuBuGn_scaleDef_orientMir_270.png"" style= ""width:200px""alt=""img"">
                            </div>
                        </div>","-40","","0","","","","images/map07_PuBuGn_scaleDef_orientMir_270.png","angry","1","07","07","PuBuGn","orientMir","scaleDef","270","",""
"","","","","","html-slider-response","47","103137","0.0-43.0","pnq0th3qu7","63","NaN","<div style=""width:500px;"">
                            <p style=""font-size:50px; font-weight:bold;""
                            >angry</p>
                            <div style=""width:240px; margin: auto;"">
                                <img src=""images/map26_magma_scaleRev_orientMir_180.png"" style= ""width:200px""alt=""img"">
                            </div>
                        </div>","72","","0","","","","images/map26_magma_scaleRev_orientMir_180.png","angry","1","26","26","magma","orientMir","scaleRev","180","",""
"","","","","","html-slider-response","48","104701","0.0-44.0","pnq0th3qu7","63","NaN","<div style=""width:500px;"">
                            <p style=""font-size:50px; font-weight:bold;""
                            >angry</p>
                            <div style=""width:240px; margin: auto;"">
                                <img src=""images/map26_magma_scaleDef_orientMir_090.png"" style= ""width:200px""alt=""img"">
                            </div>
                        </div>","104","","0","","","","images/map26_magma_scaleDef_orientMir_090.png","angry","1","26","26","magma","orientMir","scaleDef","090","",""
"","","","","","html-slider-response","49","106299","0.0-45.0","pnq0th3qu7","63","NaN","<div style=""width:500px;"">
                            <p style=""font-size:50px; font-weight:bold;""
                            >angry</p>
                            <div style=""width:240px; margin: auto;"">
                                <img src=""images/map05_PuRd_scaleDef_orientDef_270.png"" style= ""width:200px""alt=""img"">
                            </div>
                        </div>","154","","0","","","","images/map05_PuRd_scaleDef_orientDef_270.png","angry","1","05","05","PuRd","orientDef","scaleDef","270","",""
"","","","","","html-slider-response","50","107913","0.0-46.0","pnq0th3qu7","63","NaN","<div style=""width:500px;"">
                            <p style=""font-size:50px; font-weight:bold;""
                            >angry</p>
                            <div style=""width:240px; margin: auto;"">
                                <img src=""images/map05_OrRd_scaleDef_orientDef_090.png"" style= ""width:200px""alt=""img"">
                            </div>
                        </div>","188","","0","","","","images/map05_OrRd_scaleDef_orientDef_090.png","angry","1","05","05","OrRd","orientDef","scaleDef","090","",""
"","","","","","html-slider-response","51","109574","0.0-47.0","pnq0th3qu7","63","NaN","<div style=""width:500px;"">
                            <p style=""font-size:50px; font-weight:bold;""
                            >angry</p>
                            <div style=""width:240px; margin: auto;"">
                                <img src=""images/map10_PiYG_scaleDef_orientMir_090.png"" style= ""width:200px""alt=""img"">
                            </div>
                        </div>","-34","","0","","","","images/map10_PiYG_scaleDef_orientMir_090.png","angry","1","10","10","PiYG","orientMir","scaleDef","090","",""
"","","","","","html-slider-response","52","111042","0.0-48.0","pnq0th3qu7","63","NaN","<div style=""width:500px;"">
                            <p style=""font-size:50px; font-weight:bold;""
                            >angry</p>
                            <div style=""width:240px; margin: auto;"">
                                <img src=""images/map13_RdBu_scaleRev_orientDef_000.png"" style= ""width:200px""alt=""img"">
                            </div>
                        </div>","66","","0","","","","images/map13_RdBu_scaleRev_orientDef_000.png","angry","1","13","13","RdBu","orientDef","scaleRev","000","",""
"","","","","","html-slider-response","53","112719","0.0-49.0","pnq0th3qu7","63","NaN","<div style=""width:500px;"">
                            <p style=""font-size:50px; font-weight:bold;""
                            >angry</p>
                            <div style=""width:240px; margin: auto;"">
                                <img src=""images/map12_RdGy_scaleDef_orientMir_090.png"" style= ""width:200px""alt=""img"">
                            </div>
                        </div>","95","","0","","","","images/map12_RdGy_scaleDef_orientMir_090.png","angry","1","12","12","RdGy","orientMir","scaleDef","090","",""
"","","","","","html-slider-response","54","114205","0.0-50.0","pnq0th3qu7","63","NaN","<div style=""width:500px;"">
                            <p style=""font-size:50px; font-weight:bold;""
                            >angry</p>
                            <div style=""width:240px; margin: auto;"">
                                <img src=""images/map02_Oranges_scaleRev_orientDef_180.png"" style= ""width:200px""alt=""img"">
                            </div>
                        </div>","163","","0","","","","images/map02_Oranges_scaleRev_orientDef_180.png","angry","1","02","02","Oranges","orientDef","scaleRev","180","",""
"","","","","","html-slider-response","55","115617","0.0-51.0","pnq0th3qu7","63","NaN","<div style=""width:500px;"">
                            <p style=""font-size:50px; font-weight:bold;""
                            >angry</p>
                            <div style=""width:240px; margin: auto;"">
                                <img src=""images/map10_BuGn_scaleDef_orientDef_090.png"" style= ""width:200px""alt=""img"">
                            </div>
                        </div>","-74","","0","","","","images/map10_BuGn_scaleDef_orientDef_090.png","angry","1","10","10","BuGn","orientDef","scaleDef","090","",""
"","","","","","html-slider-response","56","117215","0.0-52.0","pnq0th3qu7","63","NaN","<div style=""width:500px;"">
                            <p style=""font-size:50px; font-weight:bold;""
                            >angry</p>
                            <div style=""width:240px; margin: auto;"">
                                <img src=""images/map23_turbo_scaleRev_orientMir_180.png"" style= ""width:200px""alt=""img"">
                            </div>
                        </div>","153","","0","","","","images/map23_turbo_scaleRev_orientMir_180.png","angry","1","23","23","turbo","orientMir","scaleRev","180","",""
"","","","","","html-slider-response","57","118926","0.0-53.0","pnq0th3qu7","63","NaN","<div style=""width:500px;"">
                            <p style=""font-size:50px; font-weight:bold;""
                            >angry</p>
                            <div style=""width:240px; margin: auto;"">
                                <img src=""images/map07_BuPu_scaleRev_orientDef_000.png"" style= ""width:200px""alt=""img"">
                            </div>
                        </div>","-35","","0","","","","images/map07_BuPu_scaleRev_orientDef_000.png","angry","1","07","07","BuPu","orientDef","scaleRev","000","",""
"","","","","","html-button-response","58","120279","0.0-54.0","pnq0th3qu7","63","849","<p>You are doing great!<br></br> You are halway done with the current block. When you are ready to continue, click the 'Continue' button.</p>","0","","","","","","","","","","","","","","","",""
"","","","","","html-slider-response","59","121870","0.0-55.0","pnq0th3qu7","63","NaN","<div style=""width:500px;"">
                            <p style=""font-size:50px; font-weight:bold;""
                            >angry</p>
                            <div style=""width:240px; margin: auto;"">
                                <img src=""images/map13_coolwarm_scaleDef_orientMir_270.png"" style= ""width:200px""alt=""img"">
                            </div>
                        </div>","73","","0","","","","images/map13_coolwarm_scaleDef_orientMir_270.png","angry","1","13","13","coolwarm","orientMir","scaleDef","270","",""
"","","","","","html-slider-response","60","123162","0.0-56.0","pnq0th3qu7","63","NaN","<div style=""width:500px;"">
                            <p style=""font-size:50px; font-weight:bold;""
                            >angry</p>
                            <div style=""width:240px; margin: auto;"">
                                <img src=""images/map02_Reds_scaleRev_orientMir_000.png"" style= ""width:200px""alt=""img"">
                            </div>
                        </div>","142","","0","","","","images/map02_Reds_scaleRev_orientMir_000.png","angry","1","02","02","Reds","orientMir","scaleRev","000","",""
"","","","","","html-slider-response","61","125444","0.0-57.0","pnq0th3qu7","63","NaN","<div style=""width:500px;"">
                            <p style=""font-size:50px; font-weight:bold;""
                            >angry</p>
                            <div style=""width:240px; margin: auto;"">
                                <img src=""images/map15_bwr_scaleDef_orientDef_090.png"" style= ""width:200px""alt=""img"">
                            </div>
                        </div>","79","","0","","","","images/map15_bwr_scaleDef_orientDef_090.png","angry","1","15","15","bwr","orientDef","scaleDef","090","",""
"","","","","","html-slider-response","62","127091","0.0-58.0","pnq0th3qu7","63","NaN","<div style=""width:500px;"">
                            <p style=""font-size:50px; font-weight:bold;""
                            >angry</p>
                            <div style=""width:240px; margin: auto;"">
                                <img src=""images/map07_GnBu_scaleRev_orientDef_180.png"" style= ""width:200px""alt=""img"">
                            </div>
                        </div>","-37","","0","","","","images/map07_GnBu_scaleRev_orientDef_180.png","angry","1","07","07","GnBu","orientDef","scaleRev","180","",""
"","","","","","html-slider-response","63","128712","0.0-59.0","pnq0th3qu7","63","NaN","<div style=""width:500px;"">
                            <p style=""font-size:50px; font-weight:bold;""
                            >angry</p>
                            <div style=""width:240px; margin: auto;"">
                                <img src=""images/map07_YlGnBu_scaleRev_orientMir_180.png"" style= ""width:200px""alt=""img"">
                            </div>
                        </div>","-36","","0","","","","images/map07_YlGnBu_scaleRev_orientMir_180.png","angry","1","07","07","YlGnBu","orientMir","scaleRev","180","",""
"","","","","","html-slider-response","64","131827","0.0-60.0","pnq0th3qu7","63","NaN","<div style=""width:500px;"">
                            <p style=""font-size:50px; font-weight:bold;""
                            >angry</p>
                            <div style=""width:240px; margin: auto;"">
                                <img src=""images/map05_OrRd_scaleRev_orientDef_180.png"" style= ""width:200px""alt=""img"">
                            </div>
                        </div>","197","","0","","","","images/map05_OrRd_scaleRev_orientDef_180.png","angry","1","05","05","OrRd","orientDef","scaleRev","180","",""
"","","","","","html-slider-response","65","133384","0.0-61.0","pnq0th3qu7","63","NaN","<div style=""width:500px;"">
                            <p style=""font-size:50px; font-weight:bold;""
                            >angry</p>
                            <div style=""width:240px; margin: auto;"">
                                <img src=""images/map26_plasma_scaleRev_orientDef_180.png"" style= ""width:200px""alt=""img"">
                            </div>
                        </div>","122","","0","","","","images/map26_plasma_scaleRev_orientDef_180.png","angry","1","26","26","plasma","orientDef","scaleRev","180","",""
"","","","","","html-slider-response","66","135142","0.0-62.0","pnq0th3qu7","63","NaN","<div style=""width:500px;"">
                            <p style=""font-size:50px; font-weight:bold;""
                            >angry</p>
                            <div style=""width:240px; margin: auto;"">
                                <img src=""images/map07_GnBu_scaleDef_orientDef_090.png"" style= ""width:200px""alt=""img"">
                            </div>
                        </div>","-76","","0","","","","images/map07_GnBu_scaleDef_orientDef_090.png","angry","1","07","07","GnBu","orientDef","scaleDef","090","",""
"","","","","","html-slider-response","67","136595","0.0-63.0","pnq0th3qu7","63","NaN","<div style=""width:500px;"">
                            <p style=""font-size:50px; font-weight:bold;""
                            >angry</p>
                            <div style=""width:240px; margin: auto;"">
                                <img src=""images/map10_YlGn_scaleDef_orientDef_270.png"" style= ""width:200px""alt=""img"">
                            </div>
                        </div>","-113","","0","","","","images/map10_YlGn_scaleDef_orientDef_270.png","angry","1","10","10","YlGn","orientDef","scaleDef","270","",""
"","","","","","html-slider-response","68","138960","0.0-64.0","pnq0th3qu7","63","NaN","<div style=""width:500px;"">
                            <p style=""font-size:50px; font-weight:bold;""
                            >angry</p>
                            <div style=""width:240px; margin: auto;"">
                                <img src=""images/map02_YlOrBr_scaleDef_orientMir_090.png"" style= ""width:200px""alt=""img"">
                            </div>
                        </div>","193","","0","","","","images/map02_YlOrBr_scaleDef_orientMir_090.png","angry","1","02","02","YlOrBr","orientMir","scaleDef","090","",""
"","","","","","html-slider-response","69","141339","0.0-65.0","pnq0th3qu7","63","NaN","<div style=""width:500px;"">
                            <p style=""font-size:50px; font-weight:bold;""
                            >angry</p>
                            <div style=""width:240px; margin: auto;"">
                                <img src=""images/map05_RdPu_scaleDef_orientMir_090.png"" style= ""width:200px""alt=""img"">
                            </div>
                        </div>","156","","0","","","","images/map05_RdPu_scaleDef_orientMir_090.png","angry","1","05","05","RdPu","orientMir","scaleDef","090","",""
"","","","","","html-slider-response","70","143698","0.0-66.0","pnq0th3qu7","63","NaN","<div style=""width:500px;"">
                            <p style=""font-size:50px; font-weight:bold;""
                            >angry</p>
                            <div style=""width:240px; margin: auto;"">
                                <img src=""images/map02_Reds_scaleDef_orientDef_270.png"" style= ""width:200px""alt=""img"">
                            </div>
                        </div>","200","","0","","","","images/map02_Reds_scaleDef_orientDef_270.png","angry","1","02","02","Reds","orientDef","scaleDef","270","",""
"","","","","","html-slider-response","71","145503","0.0-67.0","pnq0th3qu7","63","NaN","<div style=""width:500px;"">
                            <p style=""font-size:50px; font-weight:bold;""
                            >angry</p>
                            <div style=""width:240px; margin: auto;"">
                                <img src=""images/map23_managua_scaleRev_orientDef_000.png"" style= ""width:200px""alt=""img"">
                            </div>
                        </div>","82","","0","","","","images/map23_managua_scaleRev_orientDef_000.png","angry","1","23","23","managua","orientDef","scaleRev","000","",""
"","","","","","html-slider-response","72","146956","0.0-68.0","pnq0th3qu7","63","NaN","<div style=""width:500px;"">
                            <p style=""font-size:50px; font-weight:bold;""
                            >angry</p>
                            <div style=""width:240px; margin: auto;"">
                                <img src=""images/map23_gist_earth_scaleRev_orientMir_000.png"" style= ""width:200px""alt=""img"">
                            </div>
                        </div>","-36","","0","","","","images/map23_gist_earth_scaleRev_orientMir_000.png","angry","1","23","23","gist","scaleRev","earth","orientMir","",""
"","","","","","html-slider-response","73","148659","0.0-69.0","pnq0th3qu7","63","NaN","<div style=""width:500px;"">
                            <p style=""font-size:50px; font-weight:bold;""
                            >angry</p>
                            <div style=""width:240px; margin: auto;"">
                                <img src=""images/map07_PuBu_scaleRev_orientMir_000.png"" style= ""width:200px""alt=""img"">
                            </div>
                        </div>","-92","","0","","","","images/map07_PuBu_scaleRev_orientMir_000.png","angry","1","07","07","PuBu","orientMir","scaleRev","000","",""
"","","","","","html-slider-response","74","150529","0.0-70.0","pnq0th3qu7","63","NaN","<div style=""width:500px;"">
                            <p style=""font-size:50px; font-weight:bold;""
                            >angry</p>
                            <div style=""width:240px; margin: auto;"">
                                <img src=""images/map02_YlOrBr_scaleRev_orientMir_180.png"" style= ""width:200px""alt=""img"">
                            </div>
                        </div>","150","","0","","","","images/map02_YlOrBr_scaleRev_orientMir_180.png","angry","1","02","02","YlOrBr","orientMir","scaleRev","180","",""
"","","","","","html-slider-response","75","152120","0.0-71.0","pnq0th3qu7","63","NaN","<div style=""width:500px;"">
                            <p style=""font-size:50px; font-weight:bold;""
                            >angry</p>
                            <div style=""width:240px; margin: auto;"">
                                <img src=""images/map15_managua_scaleDef_orientMir_270.png"" style= ""width:200px""alt=""img"">
                            </div>
                        </div>","111","","0","","","","images/map15_managua_scaleDef_orientMir_270.png","angry","1","15","15","managua","orientMir","scaleDef","270","",""
"","","","","","html-slider-response","76","153717","0.0-72.0","pnq0th3qu7","63","NaN","<div style=""width:500px;"">
                            <p style=""font-size:50px; font-weight:bold;""
                            >angry</p>
                            <div style=""width:240px; margin: auto;"">
                                <img src=""images/map07_YlGnBu_scaleDef_orientMir_090.png"" style= ""width:200px""alt=""img"">
                            </div>
                        </div>","-46","","0","","","","images/map07_YlGnBu_scaleDef_orientMir_090.png","angry","1","07","07","YlGnBu","orientMir","scaleDef","090","",""
"","","","","","html-slider-response","77","154992","0.0-73.0","pnq0th3qu7","63","NaN","<div style=""width:500px;"">
                            <p style=""font-size:50px; font-weight:bold;""
                            >angry</p>
                            <div style=""width:240px; margin: auto;"">
                                <img src=""images/map13_RdYlGn_scaleRev_orientMir_000.png"" style= ""width:200px""alt=""img"">
                            </div>
                        </div>","46","","0","","","","images/map13_RdYlGn_scaleRev_orientMir_000.png","angry","1","13","13","RdYlGn","orientMir","scaleRev","000","",""
"","","","","","html-slider-response","78","156960","0.0-74.0","pnq0th3qu7","63","NaN","<div style=""width:500px;"">
                            <p style=""font-size:50px; font-weight:bold;""
                            >angry</p>
                            <div style=""width:240px; margin: auto;"">
                                <img src=""images/map23_viridis_scaleDef_orientMir_270.png"" style= ""width:200px""alt=""img"">
                            </div>
                        </div>","12","","0","","","","images/map23_viridis_scaleDef_orientMir_270.png","angry","1","23","23","viridis","orientMir","scaleDef","270","",""
"","","","","","html-slider-response","79","159131","0.0-75.0","pnq0th3qu7","63","NaN","<div style=""width:500px;"">
                            <p style=""font-size:50px; font-weight:bold;""
                            >angry</p>
                            <div style=""width:240px; margin: auto;"">
                                <img src=""images/map10_BuGn_scaleRev_orientDef_180.png"" style= ""width:200px""alt=""img"">
                            </div>
                        </div>","-6","","0","","","","images/map10_BuGn_scaleRev_orientDef_180.png","angry","1","10","10","BuGn","orientDef","scaleRev","180","",""
"","","","","","html-slider-response","80","160970","0.0-76.0","pnq0th3qu7","63","NaN","<div style=""width:500px;"">
                            <p style=""font-size:50px; font-weight:bold;""
                            >angry</p>
                            <div style=""width:240px; margin: auto;"">
                                <img src=""images/map26_inferno_scaleRev_orientMir_000.png"" style= ""width:200px""alt=""img"">
                            </div>
                        </div>","158","","0","","","","images/map26_inferno_scaleRev_orientMir_000.png","angry","1","26","26","inferno","orientMir","scaleRev","000","",""
"","","","","","html-slider-response","81","162697","0.0-77.0","pnq0th3qu7","63","NaN","<div style=""width:500px;"">
                            <p style=""font-size:50px; font-weight:bold;""
                            >angry</p>
                            <div style=""width:240px; margin: auto;"">
                                <img src=""images/map26_plasma_scaleDef_orientDef_090.png"" style= ""width:200px""alt=""img"">
                            </div>
                        </div>","175","","0","","","","images/map26_plasma_scaleDef_orientDef_090.png","angry","1","26","26","plasma","orientDef","scaleDef","090","",""
"","","","","","html-slider-response","82","164424","0.0-78.0","pnq0th3qu7","63","NaN","<div style=""width:500px;"">
                            <p style=""font-size:50px; font-weight:bold;""
                            >angry</p>
                            <div style=""width:240px; margin: auto;"">
                                <img src=""images/map13_Spectral_scaleDef_orientMir_090.png"" style= ""width:200px""alt=""img"">
                            </div>
                        </div>","145","","0","","","","images/map13_Spectral_scaleDef_orientMir_090.png","angry","1","13","13","Spectral","orientMir","scaleDef","090","",""
"","","","","","html-slider-response","83","165917","0.0-79.0","pnq0th3qu7","63","NaN","<div style=""width:500px;"">
                            <p style=""font-size:50px; font-weight:bold;""
                            >angry</p>
                            <div style=""width:240px; margin: auto;"">
                                <img src=""images/map05_BuPu_scaleDef_orientMir_270.png"" style= ""width:200px""alt=""img"">
                            </div>
                        </div>","91","","0","","","","images/map05_BuPu_scaleDef_orientMir_270.png","angry","1","05","05","BuPu","orientMir","scaleDef","270","",""
"","","","","","html-slider-response","84","167547","0.0-80.0","pnq0th3qu7","63","NaN","<div style=""width:500px;"">
                            <p style=""font-size:50px; font-weight:bold;""
                            >angry</p>
                            <div style=""width:240px; margin: auto;"">
                                <img src=""images/map15_berlin_scaleRev_orientMir_180.png"" style= ""width:200px""alt=""img"">
                            </div>
                        </div>","134","","0","","","","images/map15_berlin_scaleRev_orientMir_180.png","angry","1","15","15","berlin","orientMir","scaleRev","180","",""
"","","","","","html-slider-response","85","168878","0.0-81.0","pnq0th3qu7","63","NaN","<div style=""width:500px;"">
                            <p style=""font-size:50px; font-weight:bold;""
                            >angry</p>
                            <div style=""width:240px; margin: auto;"">
                                <img src=""images/map05_RdPu_scaleRev_orientMir_180.png"" style= ""width:200px""alt=""img"">
                            </div>
                        </div>","38","","0","","","","images/map05_RdPu_scaleRev_orientMir_180.png","angry","1","05","05","RdPu","orientMir","scaleRev","180","",""
"","","","","","html-slider-response","86","171257","0.0-82.0","pnq0th3qu7","63","NaN","<div style=""width:500px;"">
                            <p style=""font-size:50px; font-weight:bold;""
                            >angry</p>
                            <div style=""width:240px; margin: auto;"">
                                <img src=""images/map26_viridis_scaleRev_orientDef_000.png"" style= ""width:200px""alt=""img"">
                            </div>
                        </div>","22","","0","","","","images/map26_viridis_scaleRev_orientDef_000.png","angry","1","26","26","viridis","orientDef","scaleRev","000","",""
"","","","","","html-slider-response","87","172645","0.0-83.0","pnq0th3qu7","63","NaN","<div style=""width:500px;"">
                            <p style=""font-size:50px; font-weight:bold;""
                            >angry</p>
                            <div style=""width:240px; margin: auto;"">
                                <img src=""images/map05_PuRd_scaleRev_orientMir_000.png"" style= ""width:200px""alt=""img"">
                            </div>
                        </div>","90","","0","","","","images/map05_PuRd_scaleRev_orientMir_000.png","angry","1","05","05","PuRd","orientMir","scaleRev","000","",""
"","","","","","html-slider-response","88","174211","0.0-84.0","pnq0th3qu7","63","NaN","<div style=""width:500px;"">
                            <p style=""font-size:50px; font-weight:bold;""
                            >angry</p>
                            <div style=""width:240px; margin: auto;"">
                                <img src=""images/map15_berlin_scaleDef_orientMir_090.png"" style= ""width:200px""alt=""img"">
                            </div>
                        </div>","126","","0","","","","images/map15_berlin_scaleDef_orientMir_090.png","angry","1","15","15","berlin","orientMir","scaleDef","090","",""
"","","","","","html-slider-response","89","175550","0.0-85.0","pnq0th3qu7","63","NaN","<div style=""width:500px;"">
                            <p style=""font-size:50px; font-weight:bold;""
                            >angry</p>
                            <div style=""width:240px; margin: auto;"">
                                <img src=""images/map12_BrBG_scaleRev_orientDef_180.png"" style= ""width:200px""alt=""img"">
                            </div>
                        </div>","149","","0","","","","images/map12_BrBG_scaleRev_orientDef_180.png","angry","1","12","12","BrBG","orientDef","scaleRev","180","",""
"","","","","","html-slider-response","90","177277","0.0-86.0","pnq0th3qu7","63","NaN","<div style=""width:500px;"">
                            <p style=""font-size:50px; font-weight:bold;""
                            >angry</p>
                            <div style=""width:240px; margin: auto;"">
                                <img src=""images/map26_inferno_scaleDef_orientDef_270.png"" style= ""width:200px""alt=""img"">
                            </div>
                        </div>","193","","0","","","","images/map26_inferno_scaleDef_orientDef_270.png","angry","1","26","26","inferno","orientDef","scaleDef","270","",""
"","","","","","html-slider-response","91","178955","0.0-87.0","pnq0th3qu7","63","NaN","<div style=""width:500px;"">
                            <p style=""font-size:50px; font-weight:bold;""
                            >angry</p>
                            <div style=""width:240px; margin: auto;"">
                                <img src=""images/map10_YlGn_scaleRev_orientMir_000.png"" style= ""width:200px""alt=""img"">
                            </div>
                        </div>","-37","","0","","","","images/map10_YlGn_scaleRev_orientMir_000.png","angry","1","10","10","YlGn","orientMir","scaleRev","000","",""
"","","","","","html-slider-response","92","181392","0.0-88.0","pnq0th3qu7","63","NaN","<div style=""width:500px;"">
                            <p style=""font-size:50px; font-weight:bold;""
                            >angry</p>
                            <div style=""width:240px; margin: auto;"">
                                <img src=""images/map27_Purples_scaleDef_orientDef_270.png"" style= ""width:200px""alt=""img"">
                            </div>
                        </div>","-6","","0","","","","images/map27_Purples_scaleDef_orientDef_270.png","angry","1","27","27","Purples","orientDef","scaleDef","270","",""
"","","","","","html-slider-response","93","182900","0.0-89.0","pnq0th3qu7","63","NaN","<div style=""width:500px;"">
                            <p style=""font-size:50px; font-weight:bold;""
                            >angry</p>
                            <div style=""width:240px; margin: auto;"">
                                <img src=""images/map27_Blues_scaleRev_orientMir_180.png"" style= ""width:200px""alt=""img"">
                            </div>
                        </div>","-21","","0","","","","images/map27_Blues_scaleRev_orientMir_180.png","angry","1","27","27","Blues","orientMir","scaleRev","180","",""
"","","","","","html-slider-response","94","184619","0.0-90.0","pnq0th3qu7","63","NaN","<div style=""width:500px;"">
                            <p style=""font-size:50px; font-weight:bold;""
                            >angry</p>
                            <div style=""width:240px; margin: auto;"">
                                <img src=""images/map12_PuOr_scaleDef_orientDef_270.png"" style= ""width:200px""alt=""img"">
                            </div>
                        </div>","27","","0","","","","images/map12_PuOr_scaleDef_orientDef_270.png","angry","1","12","12","PuOr","orientDef","scaleDef","270","",""
"","","","","","html-slider-response","95","185797","0.0-91.0","pnq0th3qu7","63","NaN","<div style=""width:500px;"">
                            <p style=""font-size:50px; font-weight:bold;""
                            >angry</p>
                            <div style=""width:240px; margin: auto;"">
                                <img src=""images/map05_YlOrRd_scaleRev_orientDef_000.png"" style= ""width:200px""alt=""img"">
                            </div>
                        </div>","61","","0","","","","images/map05_YlOrRd_scaleRev_orientDef_000.png","angry","1","05","05","YlOrRd","orientDef","scaleRev","000","",""
"","","","","","html-slider-response","96","187402","0.0-92.0","pnq0th3qu7","63","NaN","<div style=""width:500px;"">
                            <p style=""font-size:50px; font-weight:bold;""
                            >angry</p>
                            <div style=""width:240px; margin: auto;"">
                                <img src=""images/map13_RdYlBu_scaleDef_orientDef_090.png"" style= ""width:200px""alt=""img"">
                            </div>
                        </div>","113","","0","","","","images/map13_RdYlBu_scaleDef_orientDef_090.png","angry","1","13","13","RdYlBu","orientDef","scaleDef","090","",""
"","","","","","html-slider-response","97","189057","0.0-93.0","pnq0th3qu7","63","NaN","<div style=""width:500px;"">
                            <p style=""font-size:50px; font-weight:bold;""
                            >angry</p>
                            <div style=""width:240px; margin: auto;"">
                                <img src=""images/map15_coolwarm_scaleRev_orientDef_000.png"" style= ""width:200px""alt=""img"">
                            </div>
                        </div>","115","","0","","","","images/map15_coolwarm_scaleRev_orientDef_000.png","angry","1","15","15","coolwarm","orientDef","scaleRev","000","",""
"","","","","","html-slider-response","98","190500","0.0-94.0","pnq0th3qu7","63","NaN","<div style=""width:500px;"">
                            <p style=""font-size:50px; font-weight:bold;""
                            >angry</p>
                            <div style=""width:240px; margin: auto;"">
                                <img src=""images/map13_RdYlBu_scaleRev_orientDef_180.png"" style= ""width:200px""alt=""img"">
                            </div>
                        </div>","169","","0","","","","images/map13_RdYlBu_scaleRev_orientDef_180.png","angry","1","13","13","RdYlBu","orientDef","scaleRev","180","",""
"","","","","","html-button-response","99","191918","0.0-95.0","pnq0th3qu7","63","917","<p>Great Job! You've finished block 1.<br></br> You have 4 block(s) left to go.<br></br></p>","0","","","","","","","","","","","","","","","",""
"","","","","","html-button-response","100","192749","0.0-96.0","pnq0th3qu7","63","829","<p>In this block of trials, you will be asked to rate how much you associate each map with:</p > <p style = 'font-size:150%; font-weight: bold'>sad</p><br></br>","0","","","","","","","","","","","","","","","",""
"","","","","","html-slider-response","101","197906","0.0-97.0","pnq0th3qu7","63","NaN","<div style=""width:500px;"">
                            <p style=""font-size:50px; font-weight:bold;""
                            >sad</p>
                            <div style=""width:240px; margin: auto;"">
                                <img src=""images/map26_inferno_scaleRev_orientMir_000.png"" style= ""width:200px""alt=""img"">
                            </div>
                        </div>","-82","","0","","","","images/map26_inferno_scaleRev_orientMir_000.png","sad","1","26","26","inferno","orientMir","scaleRev","000","",""
"","","","","","html-slider-response","102","199762","0.0-98.0","pnq0th3qu7","63","NaN","<div style=""width:500px;"">
                            <p style=""font-size:50px; font-weight:bold;""
                            >sad</p>
                            <div style=""width:240px; margin: auto;"">
                                <img src=""images/map13_RdYlBu_scaleRev_orientDef_180.png"" style= ""width:200px""alt=""img"">
                            </div>
                        </div>","-26","","0","","","","images/map13_RdYlBu_scaleRev_orientDef_180.png","sad","1","13","13","RdYlBu","orientDef","scaleRev","180","",""
"","","","","","html-slider-response","103","203923","0.0-99.0","pnq0th3qu7","63","NaN","<div style=""width:500px;"">
                            <p style=""font-size:50px; font-weight:bold;""
                            >sad</p>
                            <div style=""width:240px; margin: auto;"">
                                <img src=""images/map02_Reds_scaleDef_orientDef_270.png"" style= ""width:200px""alt=""img"">
                            </div>
                        </div>","-72","","0","","","","images/map02_Reds_scaleDef_orientDef_270.png","sad","1","02","02","Reds","orientDef","scaleDef","270","",""
"","","","","","html-slider-response","104","205256","0.0-100.0","pnq0th3qu7","63","NaN","<div style=""width:500px;"">
                            <p style=""font-size:50px; font-weight:bold;""
                            >sad</p>
                            <div style=""width:240px; margin: auto;"">
                                <img src=""images/map05_BuPu_scaleDef_orientMir_270.png"" style= ""width:200px""alt=""img"">
                            </div>
                        </div>","18","","0","","","","images/map05_BuPu_scaleDef_orientMir_270.png","sad","1","05","05","BuPu","orientMir","scaleDef","270","",""
"","","","","","html-slider-response","105","207119","0.0-101.0","pnq0th3qu7","63","NaN","<div style=""width:500px;"">
                            <p style=""font-size:50px; font-weight:bold;""
                            >sad</p>
                            <div style=""width:240px; margin: auto;"">
                                <img src=""images/map23_turbo_scaleDef_orientMir_090.png"" style= ""width:200px""alt=""img"">
                            </div>
                        </div>","-115","","0","","","","images/map23_turbo_scaleDef_orientMir_090.png","sad","1","23","23","turbo","orientMir","scaleDef","090","",""
"","","","","","html-slider-response","106","208619","0.0-102.0","pnq0th3qu7","63","NaN","<div style=""width:500px;"">
                            <p style=""font-size:50px; font-weight:bold;""
                            >sad</p>
                            <div style=""width:240px; margin: auto;"">
                                <img src=""images/map10_BuGn_scaleDef_orientDef_090.png"" style= ""width:200px""alt=""img"">
                            </div>
                        </div>","29","","0","","","","images/map10_BuGn_scaleDef_orientDef_090.png","sad","1","10","10","BuGn","orientDef","scaleDef","090","",""
"","","","","","html-slider-response","107","210121","0.0-103.0","pnq0th3qu7","63","NaN","<div style=""width:500px;"">
                            <p style=""font-size:50px; font-weight:bold;""
                            >sad</p>
                            <div style=""width:240px; margin: auto;"">
                                <img src=""images/map15_bwr_scaleRev_orientDef_180.png"" style= ""width:200px""alt=""img"">
                            </div>
                        </div>","-75","","0","","","","images/map15_bwr_scaleRev_orientDef_180.png","sad","1","15","15","bwr","orientDef","scaleRev","180","",""
"","","","","","html-slider-response","108","211782","0.0-104.0","pnq0th3qu7","63","NaN","<div style=""width:500px;"">
                            <p style=""font-size:50px; font-weight:bold;""
                            >sad</p>
                            <div style=""width:240px; margin: auto;"">
                                <img src=""images/map05_PuRd_scaleDef_orientDef_270.png"" style= ""width:200px""alt=""img"">
                            </div>
                        </div>","-125","","0","","","","images/map05_PuRd_scaleDef_orientDef_270.png","sad","1","05","05","PuRd","orientDef","scaleDef","270","",""
"","","","","","html-slider-response","109","213743","0.0-105.0","pnq0th3qu7","63","NaN","<div style=""width:500px;"">
                            <p style=""font-size:50px; font-weight:bold;""
                            >sad</p>
                            <div style=""width:240px; margin: auto;"">
                                <img src=""images/map05_OrRd_scaleDef_orientDef_090.png"" style= ""width:200px""alt=""img"">
                            </div>
                        </div>","-72","","0","","","","images/map05_OrRd_scaleDef_orientDef_090.png","sad","1","05","05","OrRd","orientDef","scaleDef","090","",""
"","","","","","html-slider-response","110","215204","0.0-106.0","pnq0th3qu7","63","NaN","<div style=""width:500px;"">
                            <p style=""font-size:50px; font-weight:bold;""
                            >sad</p>
                            <div style=""width:240px; margin: auto;"">
                                <img src=""images/map12_PuOr_scaleRev_orientMir_000.png"" style= ""width:200px""alt=""img"">
                            </div>
                        </div>","62","","0","","","","images/map12_PuOr_scaleRev_orientMir_000.png","sad","1","12","12","PuOr","orientMir","scaleRev","000","",""
"","","","","","html-slider-response","111","217301","0.0-107.0","pnq0th3qu7","63","NaN","<div style=""width:500px;"">
                            <p style=""font-size:50px; font-weight:bold;""
                            >sad</p>
                            <div style=""width:240px; margin: auto;"">
                                <img src=""images/map10_PRGn_scaleDef_orientMir_270.png"" style= ""width:200px""alt=""img"">
                            </div>
                        </div>","17","","0","","","","images/map10_PRGn_scaleDef_orientMir_270.png","sad","1","10","10","PRGn","orientMir","scaleDef","270","",""
"","","","","","html-slider-response","112","219366","0.0-108.0","pnq0th3qu7","63","NaN","<div style=""width:500px;"">
                            <p style=""font-size:50px; font-weight:bold;""
                            >sad</p>
                            <div style=""width:240px; margin: auto;"">
                                <img src=""images/map07_BuPu_scaleRev_orientDef_000.png"" style= ""width:200px""alt=""img"">
                            </div>
                        </div>","90","","0","","","","images/map07_BuPu_scaleRev_orientDef_000.png","sad","1","07","07","BuPu","orientDef","scaleRev","000","",""
"","","","","","html-slider-response","113","220593","0.0-109.0","pnq0th3qu7","63","NaN","<div style=""width:500px;"">
                            <p style=""font-size:50px; font-weight:bold;""
                            >sad</p>
                            <div style=""width:240px; margin: auto;"">
                                <img src=""images/map07_GnBu_scaleRev_orientDef_180.png"" style= ""width:200px""alt=""img"">
                            </div>
                        </div>","122","","0","","","","images/map07_GnBu_scaleRev_orientDef_180.png","sad","1","07","07","GnBu","orientDef","scaleRev","180","",""
"","","","","","html-slider-response","114","221940","0.0-110.0","pnq0th3qu7","63","NaN","<div style=""width:500px;"">
                            <p style=""font-size:50px; font-weight:bold;""
                            >sad</p>
                            <div style=""width:240px; margin: auto;"">
                                <img src=""images/map10_BuGn_scaleRev_orientDef_180.png"" style= ""width:200px""alt=""img"">
                            </div>
                        </div>","56","","0","","","","images/map10_BuGn_scaleRev_orientDef_180.png","sad","1","10","10","BuGn","orientDef","scaleRev","180","",""
"","","","","","html-slider-response","115","223520","0.0-111.0","pnq0th3qu7","63","NaN","<div style=""width:500px;"">
                            <p style=""font-size:50px; font-weight:bold;""
                            >sad</p>
                            <div style=""width:240px; margin: auto;"">
                                <img src=""images/map23_viridis_scaleDef_orientMir_270.png"" style= ""width:200px""alt=""img"">
                            </div>
                        </div>","-114","","0","","","","images/map23_viridis_scaleDef_orientMir_270.png","sad","1","23","23","viridis","orientMir","scaleDef","270","",""
"","","","","","html-slider-response","116","225141","0.0-112.0","pnq0th3qu7","63","NaN","<div style=""width:500px;"">
                            <p style=""font-size:50px; font-weight:bold;""
                            >sad</p>
                            <div style=""width:240px; margin: auto;"">
                                <img src=""images/map12_PuOr_scaleDef_orientDef_270.png"" style= ""width:200px""alt=""img"">
                            </div>
                        </div>","23","","0","","","","images/map12_PuOr_scaleDef_orientDef_270.png","sad","1","12","12","PuOr","orientDef","scaleDef","270","",""
"","","","","","html-slider-response","117","226585","0.0-113.0","pnq0th3qu7","63","NaN","<div style=""width:500px;"">
                            <p style=""font-size:50px; font-weight:bold;""
                            >sad</p>
                            <div style=""width:240px; margin: auto;"">
                                <img src=""images/map07_GnBu_scaleDef_orientDef_090.png"" style= ""width:200px""alt=""img"">
                            </div>
                        </div>","-61","","0","","","","images/map07_GnBu_scaleDef_orientDef_090.png","sad","1","07","07","GnBu","orientDef","scaleDef","090","",""
"","","","","","html-slider-response","118","228513","0.0-114.0","pnq0th3qu7","63","NaN","<div style=""width:500px;"">
                            <p style=""font-size:50px; font-weight:bold;""
                            >sad</p>
                            <div style=""width:240px; margin: auto;"">
                                <img src=""images/map07_PuBu_scaleRev_orientMir_000.png"" style= ""width:200px""alt=""img"">
                            </div>
                        </div>","131","","0","","","","images/map07_PuBu_scaleRev_orientMir_000.png","sad","1","07","07","PuBu","orientMir","scaleRev","000","",""
"","","","","","html-slider-response","119","230403","0.0-115.0","pnq0th3qu7","63","NaN","<div style=""width:500px;"">
                            <p style=""font-size:50px; font-weight:bold;""
                            >sad</p>
                            <div style=""width:240px; margin: auto;"">
                                <img src=""images/map26_inferno_scaleDef_orientDef_270.png"" style= ""width:200px""alt=""img"">
                            </div>
                        </div>","-9","","0","","","","images/map26_inferno_scaleDef_orientDef_270.png","sad","1","26","26","inferno","orientDef","scaleDef","270","",""
"","","","","","html-slider-response","120","232235","0.0-116.0","pnq0th3qu7","63","NaN","<div style=""width:500px;"">
                            <p style=""font-size:50px; font-weight:bold;""
                            >sad</p>
                            <div style=""width:240px; margin: auto;"">
                                <img src=""images/map07_YlGnBu_scaleDef_orientMir_090.png"" style= ""width:200px""alt=""img"">
                            </div>
                        </div>","31","","0","","","","images/map07_YlGnBu_scaleDef_orientMir_090.png","sad","1","07","07","YlGnBu","orientMir","scaleDef","090","",""
"","","","","","html-slider-response","121","233766","0.0-117.0","pnq0th3qu7","63","NaN","<div style=""width:500px;"">
                            <p style=""font-size:50px; font-weight:bold;""
                            >sad</p>
                            <div style=""width:240px; margin: auto;"">
                                <img src=""images/map10_PuBuGn_scaleRev_orientDef_000.png"" style= ""width:200px""alt=""img"">
                            </div>
                        </div>","94","","0","","","","images/map10_PuBuGn_scaleRev_orientDef_000.png","sad","1","10","10","PuBuGn","orientDef","scaleRev","000","",""
"","","","","","html-slider-response","122","235267","0.0-118.0","pnq0th3qu7","63","NaN","<div style=""width:500px;"">
                            <p style=""font-size:50px; font-weight:bold;""
                            >sad</p>
                            <div style=""width:240px; margin: auto;"">
                                <img src=""images/map02_Greens_scaleRev_orientDef_000.png"" style= ""width:200px""alt=""img"">
                            </div>
                        </div>","36","","0","","","","images/map02_Greens_scaleRev_orientDef_000.png","sad","1","02","02","Greens","orientDef","scaleRev","000","",""
"","","","","","html-slider-response","123","237252","0.0-119.0","pnq0th3qu7","63","NaN","<div style=""width:500px;"">
                            <p style=""font-size:50px; font-weight:bold;""
                            >sad</p>
                            <div style=""width:240px; margin: auto;"">
                                <img src=""images/map12_PRGn_scaleRev_orientDef_000.png"" style= ""width:200px""alt=""img"">
                            </div>
                        </div>","81","","0","","","","images/map12_PRGn_scaleRev_orientDef_000.png","sad","1","12","12","PRGn","orientDef","scaleRev","000","",""
"","","","","","html-slider-response","124","238915","0.0-120.0","pnq0th3qu7","63","NaN","<div style=""width:500px;"">
                            <p style=""font-size:50px; font-weight:bold;""
                            >sad</p>
                            <div style=""width:240px; margin: auto;"">
                                <img src=""images/map23_turbo_scaleRev_orientMir_180.png"" style= ""width:200px""alt=""img"">
                            </div>
                        </div>","-166","","0","","","","images/map23_turbo_scaleRev_orientMir_180.png","sad","1","23","23","turbo","orientMir","scaleRev","180","",""
"","","","","","html-slider-response","125","241012","0.0-121.0","pnq0th3qu7","63","NaN","<div style=""width:500px;"">
                            <p style=""font-size:50px; font-weight:bold;""
                            >sad</p>
                            <div style=""width:240px; margin: auto;"">
                                <img src=""images/map23_managua_scaleRev_orientDef_000.png"" style= ""width:200px""alt=""img"">
                            </div>
                        </div>","26","","0","","","","images/map23_managua_scaleRev_orientDef_000.png","sad","1","23","23","managua","orientDef","scaleRev","000","",""
"","","","","","html-slider-response","126","242642","0.0-122.0","pnq0th3qu7","63","NaN","<div style=""width:500px;"">
                            <p style=""font-size:50px; font-weight:bold;""
                            >sad</p>
                            <div style=""width:240px; margin: auto;"">
                                <img src=""images/map27_cividis_scaleRev_orientDef_000.png"" style= ""width:200px""alt=""img"">
                            </div>
                        </div>","73","","0","","","","images/map27_cividis_scaleRev_orientDef_000.png","sad","1","27","27","cividis","orientDef","scaleRev","000","",""
"","","","","","html-slider-response","127","244458","0.0-123.0","pnq0th3qu7","63","NaN","<div style=""width:500px;"">
                            <p style=""font-size:50px; font-weight:bold;""
                            >sad</p>
                            <div style=""width:240px; margin: auto;"">
                                <img src=""images/map15_seismic_scaleDef_orientDef_270.png"" style= ""width:200px""alt=""img"">
                            </div>
                        </div>","-174","","0","","","","images/map15_seismic_scaleDef_orientDef_270.png","sad","1","15","15","seismic","orientDef","scaleDef","270","",""
"","","","","","html-slider-response","128","246200","0.0-124.0","pnq0th3qu7","63","NaN","<div style=""width:500px;"">
                            <p style=""font-size:50px; font-weight:bold;""
                            >sad</p>
                            <div style=""width:240px; margin: auto;"">
                                <img src=""images/map15_berlin_scaleRev_orientMir_180.png"" style= ""width:200px""alt=""img"">
                            </div>
                        </div>","-64","","0","","","","images/map15_berlin_scaleRev_orientMir_180.png","sad","1","15","15","berlin","orientMir","scaleRev","180","",""
"","","","","","html-slider-response","129","247951","0.0-125.0","pnq0th3qu7","63","NaN","<div style=""width:500px;"">
                            <p style=""font-size:50px; font-weight:bold;""
                            >sad</p>
                            <div style=""width:240px; margin: auto;"">
                                <img src=""images/map27_Blues_scaleRev_orientMir_180.png"" style= ""width:200px""alt=""img"">
                            </div>
                        </div>","162","","0","","","","images/map27_Blues_scaleRev_orientMir_180.png","sad","1","27","27","Blues","orientMir","scaleRev","180","",""
"","","","","","html-slider-response","130","249668","0.0-126.0","pnq0th3qu7","63","NaN","<div style=""width:500px;"">
                            <p style=""font-size:50px; font-weight:bold;""
                            >sad</p>
                            <div style=""width:240px; margin: auto;"">
                                <img src=""images/map27_Greys_scaleRev_orientDef_180.png"" style= ""width:200px""alt=""img"">
                            </div>
                        </div>","200","","0","","","","images/map27_Greys_scaleRev_orientDef_180.png","sad","1","27","27","Greys","orientDef","scaleRev","180","",""
"","","","","","html-slider-response","131","251581","0.0-127.0","pnq0th3qu7","63","NaN","<div style=""width:500px;"">
                            <p style=""font-size:50px; font-weight:bold;""
                            >sad</p>
                            <div style=""width:240px; margin: auto;"">
                                <img src=""images/map05_PuRd_scaleRev_orientMir_000.png"" style= ""width:200px""alt=""img"">
                            </div>
                        </div>","-190","","0","","","","images/map05_PuRd_scaleRev_orientMir_000.png","sad","1","05","05","PuRd","orientMir","scaleRev","000","",""
"","","","","","html-slider-response","132","253525","0.0-128.0","pnq0th3qu7","63","NaN","<div style=""width:500px;"">
                            <p style=""font-size:50px; font-weight:bold;""
                            >sad</p>
                            <div style=""width:240px; margin: auto;"">
                                <img src=""images/map27_Purples_scaleDef_orientDef_270.png"" style= ""width:200px""alt=""img"">
                            </div>
                        </div>","-95","","0","","","","images/map27_Purples_scaleDef_orientDef_270.png","sad","1","27","27","Purples","orientDef","scaleDef","270","",""
"","","","","","html-slider-response","133","255041","0.0-129.0","pnq0th3qu7","63","NaN","<div style=""width:500px;"">
                            <p style=""font-size:50px; font-weight:bold;""
                            >sad</p>
                            <div style=""width:240px; margin: auto;"">
                                <img src=""images/map13_RdYlBu_scaleDef_orientDef_090.png"" style= ""width:200px""alt=""img"">
                            </div>
                        </div>","-37","","0","","","","images/map13_RdYlBu_scaleDef_orientDef_090.png","sad","1","13","13","RdYlBu","orientDef","scaleDef","090","",""
"","","","","","html-slider-response","134","256599","0.0-130.0","pnq0th3qu7","63","NaN","<div style=""width:500px;"">
                            <p style=""font-size:50px; font-weight:bold;""
                            >sad</p>
                            <div style=""width:240px; margin: auto;"">
                                <img src=""images/map13_Spectral_scaleDef_orientMir_090.png"" style= ""width:200px""alt=""img"">
                            </div>
                        </div>","-103","","0","","","","images/map13_Spectral_scaleDef_orientMir_090.png","sad","1","13","13","Spectral","orientMir","scaleDef","090","",""
"","","","","","html-slider-response","135","258326","0.0-131.0","pnq0th3qu7","63","NaN","<div style=""width:500px;"">
                            <p style=""font-size:50px; font-weight:bold;""
                            >sad</p>
                            <div style=""width:240px; margin: auto;"">
                                <img src=""images/map02_YlOrRd_scaleDef_orientMir_270.png"" style= ""width:200px""alt=""img"">
                            </div>
                        </div>","-142","","0","","","","images/map02_YlOrRd_scaleDef_orientMir_270.png","sad","1","02","02","YlOrRd","orientMir","scaleDef","270","",""
"","","","","","html-slider-response","136","259858","0.0-132.0","pnq0th3qu7","63","NaN","<div style=""width:500px;"">
                            <p style=""font-size:50px; font-weight:bold;""
                            >sad</p>
                            <div style=""width:240px; margin: auto;"">
                                <img src=""images/map10_PiYG_scaleRev_orientMir_180.png"" style= ""width:200px""alt=""img"">
                            </div>
                        </div>","-91","","0","","","","images/map10_PiYG_scaleRev_orientMir_180.png","sad","1","10","10","PiYG","orientMir","scaleRev","180","",""
"","","","","","html-slider-response","137","261183","0.0-133.0","pnq0th3qu7","63","NaN","<div style=""width:500px;"">
                            <p style=""font-size:50px; font-weight:bold;""
                            >sad</p>
                            <div style=""width:240px; margin: auto;"">
                                <img src=""images/map23_vanimo_scaleRev_orientDef_180.png"" style= ""width:200px""alt=""img"">
                            </div>
                        </div>","-22","","0","","","","images/map23_vanimo_scaleRev_orientDef_180.png","sad","1","23","23","vanimo","orientDef","scaleRev","180","",""
"","","","","","html-slider-response","138","262513","0.0-134.0","pnq0th3qu7","63","NaN","<div style=""width:500px;"">
                            <p style=""font-size:50px; font-weight:bold;""
                            >sad</p>
                            <div style=""width:240px; margin: auto;"">
                                <img src=""images/map13_RdBu_scaleRev_orientDef_000.png"" style= ""width:200px""alt=""img"">
                            </div>
                        </div>","14","","0","","","","images/map13_RdBu_scaleRev_orientDef_000.png","sad","1","13","13","RdBu","orientDef","scaleRev","000","",""
"","","","","","html-slider-response","139","263884","0.0-135.0","pnq0th3qu7","63","NaN","<div style=""width:500px;"">
                            <p style=""font-size:50px; font-weight:bold;""
                            >sad</p>
                            <div style=""width:240px; margin: auto;"">
                                <img src=""images/map12_BrBG_scaleRev_orientDef_180.png"" style= ""width:200px""alt=""img"">
                            </div>
                        </div>","107","","0","","","","images/map12_BrBG_scaleRev_orientDef_180.png","sad","1","12","12","BrBG","orientDef","scaleRev","180","",""
"","","","","","html-slider-response","140","265376","0.0-136.0","pnq0th3qu7","63","NaN","<div style=""width:500px;"">
                            <p style=""font-size:50px; font-weight:bold;""
                            >sad</p>
                            <div style=""width:240px; margin: auto;"">
                                <img src=""images/map02_Oranges_scaleDef_orientDef_090.png"" style= ""width:200px""alt=""img"">
                            </div>
                        </div>","-66","","0","","","","images/map02_Oranges_scaleDef_orientDef_090.png","sad","1","02","02","Oranges","orientDef","scaleDef","090","",""
"","","","","","html-button-response","141","267342","0.0-137.0","pnq0th3qu7","63","1463","<p>You are doing great!<br></br> You are halway done with the current block. When you are ready to continue, click the 'Continue' button.</p>","0","","","","","","","","","","","","","","","",""
"","","","","","html-slider-response","142","268642","0.0-138.0","pnq0th3qu7","63","NaN","<div style=""width:500px;"">
                            <p style=""font-size:50px; font-weight:bold;""
                            >sad</p>
                            <div style=""width:240px; margin: auto;"">
                                <img src=""images/map02_YlOrBr_scaleDef_orientMir_090.png"" style= ""width:200px""alt=""img"">
                            </div>
                        </div>","-61","","0","","","","images/map02_YlOrBr_scaleDef_orientMir_090.png","sad","1","02","02","YlOrBr","orientMir","scaleDef","090","",""
"","","","","","html-slider-response","143","269958","0.0-139.0","pnq0th3qu7","63","NaN","<div style=""width:500px;"">
                            <p style=""font-size:50px; font-weight:bold;""
                            >sad</p>
                            <div style=""width:240px; margin: auto;"">
                                <img src=""images/map26_magma_scaleDef_orientMir_090.png"" style= ""width:200px""alt=""img"">
                            </div>
                        </div>","-96","","0","","","","images/map26_magma_scaleDef_orientMir_090.png","sad","1","26","26","magma","orientMir","scaleDef","090","",""
"","","","","","html-slider-response","144","271305","0.0-140.0","pnq0th3qu7","63","NaN","<div style=""width:500px;"">
                            <p style=""font-size:50px; font-weight:bold;""
                            >sad</p>
                            <div style=""width:240px; margin: auto;"">
                                <img src=""images/map15_bwr_scaleDef_orientDef_090.png"" style= ""width:200px""alt=""img"">
                            </div>
                        </div>","-154","","0","","","","images/map15_bwr_scaleDef_orientDef_090.png","sad","1","15","15","bwr","orientDef","scaleDef","090","",""
"","","","","","html-slider-response","145","272878","0.0-141.0","pnq0th3qu7","63","NaN","<div style=""width:500px;"">
                            <p style=""font-size:50px; font-weight:bold;""
                            >sad</p>
                            <div style=""width:240px; margin: auto;"">
                                <img src=""images/map07_PuBu_scaleDef_orientDef_270.png"" style= ""width:200px""alt=""img"">
                            </div>
                        </div>","28","","0","","","","images/map07_PuBu_scaleDef_orientDef_270.png","sad","1","07","07","PuBu","orientDef","scaleDef","270","",""
"","","","","","html-slider-response","146","274355","0.0-142.0","pnq0th3qu7","63","NaN","<div style=""width:500px;"">
                            <p style=""font-size:50px; font-weight:bold;""
                            >sad</p>
                            <div style=""width:240px; margin: auto;"">
                                <img src=""images/map10_PiYG_scaleDef_orientMir_090.png"" style= ""width:200px""alt=""img"">
                            </div>
                        </div>","-48","","0","","","","images/map10_PiYG_scaleDef_orientMir_090.png","sad","1","10","10","PiYG","orientMir","scaleDef","090","",""
"","","","","","html-slider-response","147","276458","0.0-143.0","pnq0th3qu7","63","NaN","<div style=""width:500px;"">
                            <p style=""font-size:50px; font-weight:bold;""
                            >sad</p>
                            <div style=""width:240px; margin: auto;"">
                                <img src=""images/map27_Greens_scaleDef_orientMir_270.png"" style= ""width:200px""alt=""img"">
                            </div>
                        </div>","2","","0","","","","images/map27_Greens_scaleDef_orientMir_270.png","sad","1","27","27","Greens","orientMir","scaleDef","270","",""
"","","","","","html-slider-response","148","277894","0.0-144.0","pnq0th3qu7","63","NaN","<div style=""width:500px;"">
                            <p style=""font-size:50px; font-weight:bold;""
                            >sad</p>
                            <div style=""width:240px; margin: auto;"">
                                <img src=""images/map23_gist_earth_scaleDef_orientDef_270.png"" style= ""width:200px""alt=""img"">
                            </div>
                        </div>","39","","0","","","","images/map23_gist_earth_scaleDef_orientDef_270.png","sad","1","23","23","gist","scaleDef","earth","orientDef","",""
"","","","","","html-slider-response","149","279435","0.0-145.0","pnq0th3qu7","63","NaN","<div style=""width:500px;"">
                            <p style=""font-size:50px; font-weight:bold;""
                            >sad</p>
                            <div style=""width:240px; margin: auto;"">
                                <img src=""images/map12_RdBu_scaleDef_orientMir_270.png"" style= ""width:200px""alt=""img"">
                            </div>
                        </div>","-80","","0","","","","images/map12_RdBu_scaleDef_orientMir_270.png","sad","1","12","12","RdBu","orientMir","scaleDef","270","",""
"","","","","","html-slider-response","150","281208","0.0-146.0","pnq0th3qu7","63","NaN","<div style=""width:500px;"">
                            <p style=""font-size:50px; font-weight:bold;""
                            >sad</p>
                            <div style=""width:240px; margin: auto;"">
                                <img src=""images/map26_plasma_scaleRev_orientDef_180.png"" style= ""width:200px""alt=""img"">
                            </div>
                        </div>","-150","","0","","","","images/map26_plasma_scaleRev_orientDef_180.png","sad","1","26","26","plasma","orientDef","scaleRev","180","",""
"","","","","","html-slider-response","151","282709","0.0-147.0","pnq0th3qu7","63","NaN","<div style=""width:500px;"">
                            <p style=""font-size:50px; font-weight:bold;""
                            >sad</p>
                            <div style=""width:240px; margin: auto;"">
                                <img src=""images/map05_RdPu_scaleDef_orientMir_090.png"" style= ""width:200px""alt=""img"">
                            </div>
                        </div>","-95","","0","","","","images/map05_RdPu_scaleDef_orientMir_090.png","sad","1","05","05","RdPu","orientMir","scaleDef","090","",""
"","","","","","html-slider-response","152","284008","0.0-148.0","pnq0th3qu7","63","NaN","<div style=""width:500px;"">
                            <p style=""font-size:50px; font-weight:bold;""
                            >sad</p>
                            <div style=""width:240px; margin: auto;"">
                                <img src=""images/map05_RdPu_scaleRev_orientMir_180.png"" style= ""width:200px""alt=""img"">
                            </div>
                        </div>","-34","","0","","","","images/map05_RdPu_scaleRev_orientMir_180.png","sad","1","05","05","RdPu","orientMir","scaleRev","180","",""
"","","","","","html-slider-response","153","285508","0.0-149.0","pnq0th3qu7","63","NaN","<div style=""width:500px;"">
                            <p style=""font-size:50px; font-weight:bold;""
                            >sad</p>
                            <div style=""width:240px; margin: auto;"">
                                <img src=""images/map26_magma_scaleRev_orientMir_180.png"" style= ""width:200px""alt=""img"">
                            </div>
                        </div>","-107","","0","","","","images/map26_magma_scaleRev_orientMir_180.png","sad","1","26","26","magma","orientMir","scaleRev","180","",""
"","","","","","html-slider-response","154","287001","0.0-150.0","pnq0th3qu7","63","NaN","<div style=""width:500px;"">
                            <p style=""font-size:50px; font-weight:bold;""
                            >sad</p>
                            <div style=""width:240px; margin: auto;"">
                                <img src=""images/map15_berlin_scaleDef_orientMir_090.png"" style= ""width:200px""alt=""img"">
                            </div>
                        </div>","-90","","0","","","","images/map15_berlin_scaleDef_orientMir_090.png","sad","1","15","15","berlin","orientMir","scaleDef","090","",""
"","","","","","html-slider-response","155","288629","0.0-151.0","pnq0th3qu7","63","NaN","<div style=""width:500px;"">
                            <p style=""font-size:50px; font-weight:bold;""
                            >sad</p>
                            <div style=""width:240px; margin: auto;"">
                                <img src=""images/map02_Reds_scaleRev_orientMir_000.png"" style= ""width:200px""alt=""img"">
                            </div>
                        </div>","-140","","0","","","","images/map02_Reds_scaleRev_orientMir_000.png","sad","1","02","02","Reds","orientMir","scaleRev","000","",""
"","","","","","html-slider-response","156","290299","0.0-152.0","pnq0th3qu7","63","NaN","<div style=""width:500px;"">
                            <p style=""font-size:50px; font-weight:bold;""
                            >sad</p>
                            <div style=""width:240px; margin: auto;"">
                                <img src=""images/map10_YlGn_scaleDef_orientDef_270.png"" style= ""width:200px""alt=""img"">
                            </div>
                        </div>","-65","","0","","","","images/map10_YlGn_scaleDef_orientDef_270.png","sad","1","10","10","YlGn","orientDef","scaleDef","270","",""
"","","","","","html-slider-response","157","291614","0.0-153.0","pnq0th3qu7","63","NaN","<div style=""width:500px;"">
                            <p style=""font-size:50px; font-weight:bold;""
                            >sad</p>
                            <div style=""width:240px; margin: auto;"">
                                <img src=""images/map02_Oranges_scaleRev_orientDef_180.png"" style= ""width:200px""alt=""img"">
                            </div>
                        </div>","-21","","0","","","","images/map02_Oranges_scaleRev_orientDef_180.png","sad","1","02","02","Oranges","orientDef","scaleRev","180","",""
"","","","","","html-slider-response","158","293040","0.0-154.0","pnq0th3qu7","63","NaN","<div style=""width:500px;"">
                            <p style=""font-size:50px; font-weight:bold;""
                            >sad</p>
                            <div style=""width:240px; margin: auto;"">
                                <img src=""images/map15_coolwarm_scaleRev_orientDef_000.png"" style= ""width:200px""alt=""img"">
                            </div>
