"success","timeout","failed_images","failed_audio","failed_video","trial_type","trial_index","time_elapsed","internal_node_id","subject_id","condition_num","rt","stimulus","response","question_order","slider_start","practiceTrial","practiceTrialNum","correct","image_path","concept","repetition","map_id","map_num","scale_name","orientation_code","mapping_code","rotation_code","ishihara_plate","correct_response"
"true","false","[]","[]","[]","preload","0","678","0.0-0.0","po2dqarmvv","21","","","","","","","","","","","","","","","","","","",""
"","","","","","html-button-response","1","11690","0.0-1.0","po2dqarmvv","21","11011","Welcome to our experiment!<p>At the bottom of this screen, you will see a button that says ""Begin Experiment"".<br>Please only click that button when you are ready to complete the 30 minute experiment in one sitting.</p><p> Once you click that button, it will not be possible to restart the experiment.","0","","","","","","","","","","","","","","","",""
"true","","","","","fullscreen","2","13569","0.0-2.0","po2dqarmvv","21","870","","","","","","","","","","","","","","","","","",""
"","","","","","survey-multi-select","3","15972","0.0-3.0","po2dqarmvv","21","2402","","{""Consent"":[""<strong>I consent</strong>""]}","[0]","","","","","","","","","","","","","","",""
"","","","","","html-button-response","4","16923","0.0-4.0","po2dqarmvv","21","949","Welcome! <p> This experiment involves two parts: demographic information, followed by the experimental task.<p> It will take about 30 minutes to complete both parts.","0","","","","","","","","","","","","","","","",""
"","","","","","survey-text","5","32970","0.0-5.0","po2dqarmvv","21","16046","","{""Age"":""19"",""Gender"":""female"",""Race/ethnicity"":""white"",""Languages"":""english, lithuanian, russian, spanish\n""}","","","","","","","","","","","","","","","",""
"","","","","","html-slider-response","6","34062","0.0-6.0","po2dqarmvv","21","1091","<div style='text-align:left; font-size:20px; line-height:25px; width: 1000px;'>
                                During this experiment you will be asked to rate how much you associate maps with                    different concepts.<br> Below, you can see some examples of the maps you will be asked to rate. Above the maps
                    is the list of concepts.<br>You will be asked                    to rate how much you associate each map with each concept on a scale from 'not at all' to 'very much' like the
                    one below. <br><br>
                    Now, please look at the list of concepts and maps. For each concept, think about the map you associate 'very
                    much' with the concept.<br>                     When you see that map during the experiment, please rate it near the 'very much' endpoint of the
                    scale.<br>Now, please think about which map you associate 'not at all'                     with each concept. When you see that map during the experiment, please rate it near the 'not at all' endpoint
                    of the scale.<br>
                    Please use the full range of the scale. That is, if a map is somewhat associated with the concept, you would
                    click partway between the middle point and right side of the scale.                    You will be asked to rate each map for a given concept before moving on to the next concept.<br>Press the
                    'Continue' button for instructions on how to use the slider.                    <br>
                </div>

                <div style=""width: 500px; margin: 0 auto;"">
                    <!-- Centered text paragraphs -->
                    <div style=""text-align: center; width: 500px;"">
                        <p style=""font-size:25px; line-height:15px;"">
                            sad&nbsp;&nbsp;&nbsp;&nbsp;
                            happy&nbsp;&nbsp;&nbsp;&nbsp;
                            disgust&nbsp;&nbsp;&nbsp;&nbsp;
                            fearful&nbsp;&nbsp;&nbsp;&nbsp;
                            angry
                        </p>
                        <!-- <p style=""font-size:20px; line-height:15px;"">happy</p>
                        <p style=""font-size:20px;line-height:15px;"">disgust</p>
                        <p style=""font-size:20px;line-height:15px;"">fearful</p>
                        <p style=""font-size:20px;line-height:15px;"">angry</p> -->
                    </div>
            

                    <!-- Grid section -->
                   <div style=""display: flex; justify-content: center; padding-top: 15px;"">
                    <div style=""display: grid; grid-template-columns: repeat(10, 55px); grid-gap: 5px; width: auto;"">
                        <img src=""images/map05_berlin_scaleDef_orientDef_270.png"" alt=""map"" style=""width: 100%;""><img src=""images/map23_BuGn_scaleDef_orientMir_270.png"" alt=""map"" style=""width: 100%;""><img src=""images/map10_plasma_scaleRev_orientDef_000.png"" alt=""map"" style=""width: 100%;""><img src=""images/map13_YlOrBr_scaleDef_orientDef_270.png"" alt=""map"" style=""width: 100%;""><img src=""images/map10_inferno_scaleDef_orientDef_090.png"" alt=""map"" style=""width: 100%;""><img src=""images/map23_PuBu_scaleRev_orientDef_180.png"" alt=""map"" style=""width: 100%;""><img src=""images/map02_RdYlGn_scaleDef_orientDef_090.png"" alt=""map"" style=""width: 100%;""><img src=""images/map12_Purples_scaleRev_orientDef_180.png"" alt=""map"" style=""width: 100%;""><img src=""images/map07_gist_earth_scaleDef_orientDef_090.png"" alt=""map"" style=""width: 100%;""><img src=""images/map15_RdPu_scaleRev_orientMir_000.png"" alt=""map"" style=""width: 100%;""><img src=""images/map05_vanimo_scaleDef_orientMir_270.png"" alt=""map"" style=""width: 100%;""><img src=""images/map27_RdBu_scaleDef_orientMir_090.png"" alt=""map"" style=""width: 100%;""><img src=""images/map15_BuPu_scaleDef_orientMir_090.png"" alt=""map"" style=""width: 100%;""><img src=""images/map26_PRGn_scaleDef_orientMir_090.png"" alt=""map"" style=""width: 100%;""><img src=""images/map13_YlOrRd_scaleDef_orientMir_090.png"" alt=""map"" style=""width: 100%;""><img src=""images/map05_seismic_scaleDef_orientDef_090.png"" alt=""map"" style=""width: 100%;""><img src=""images/map13_OrRd_scaleDef_orientMir_270.png"" alt=""map"" style=""width: 100%;""><img src=""images/map26_BrBG_scaleDef_orientMir_270.png"" alt=""map"" style=""width: 100%;""><img src=""images/map27_PuOr_scaleDef_orientDef_090.png"" alt=""map"" style=""width: 100%;""><img src=""images/map10_magma_scaleDef_orientDef_270.png"" alt=""map"" style=""width: 100%;""><img src=""images/map26_YlGn_scaleDef_orientDef_090.png"" alt=""map"" style=""width: 100%;""><img src=""images/map26_PiYG_scaleRev_orientMir_000.png"" alt=""map"" style=""width: 100%;""><img src=""images/map05_managua_scaleRev_orientMir_180.png"" alt=""map"" style=""width: 100%;""><img src=""images/map02_bwr_scaleDef_orientMir_270.png"" alt=""map"" style=""width: 100%;""><img src=""images/map12_Blues_scaleDef_orientDef_270.png"" alt=""map"" style=""width: 100%;""><img src=""images/map10_cividis_scaleDef_orientMir_090.png"" alt=""map"" style=""width: 100%;""><img src=""images/map07_turbo_scaleRev_orientMir_000.png"" alt=""map"" style=""width: 100%;""><img src=""images/map02_RdYlBu_scaleRev_orientDef_000.png"" alt=""map"" style=""width: 100%;""><img src=""images/map07_viridis_scaleDef_orientMir_090.png"" alt=""map"" style=""width: 100%;""><img src=""images/map27_RdGy_scaleRev_orientMir_000.png"" alt=""map"" style=""width: 100%;""><img src=""images/map12_Oranges_scaleDef_orientMir_270.png"" alt=""map"" style=""width: 100%;""><img src=""images/map23_GnBu_scaleRev_orientDef_000.png"" alt=""map"" style=""width: 100%;""><img src=""images/map23_PuBuGn_scaleRev_orientMir_180.png"" alt=""map"" style=""width: 100%;""><img src=""images/map12_Greens_scaleDef_orientMir_090.png"" alt=""map"" style=""width: 100%;""><img src=""images/map15_PuRd_scaleRev_orientDef_180.png"" alt=""map"" style=""width: 100%;""><img src=""images/map23_YlGnBu_scaleDef_orientDef_270.png"" alt=""map"" style=""width: 100%;""><img src=""images/map02_coolwarm_scaleDef_orientMir_090.png"" alt=""map"" style=""width: 100%;""><img src=""images/map02_Spectral_scaleRev_orientMir_000.png"" alt=""map"" style=""width: 100%;""><img src=""images/map13_Reds_scaleRev_orientDef_180.png"" alt=""map"" style=""width: 100%;""><img src=""images/map10_Greys_scaleDef_orientMir_270.png"" alt=""map"" style=""width: 100%;"">
                    </div>
                </div>

                    <!-- Clear floats -->
                    <div style=""clear: both;""></div>
                </div>
                            ","null","","0","true","","","","","","","","","","","","",""
"","","","","","html-button-response","7","35211","0.0-7.0","po2dqarmvv","21","1149","<div style=""width:800px;""><p style=""text-align:left"">To move the slider, click and drag your cursor to the location of the scale where you would like to make your rating and then let go. When you let go of the slider, your response will be recorded and the next trial will begin. <br>
                    We are interested in your initial impressions of each map for the given concept, so please go with your first intuition. <br>
                    Before you begin the experiment, there will be four training trials for you to practice using the scale. <br>
                     When you are ready to start the training trials, please click ""Continue"".</p><br></div>","0","","","","","","","","","","","","","","","",""
"","","","","","html-slider-response","8","36763","0.0-8.0-0.0","po2dqarmvv","21","NaN","<div style=""width:500px;"">
                                    <p style=""font-size:25px;"">Please move the slider all the way to the <br> right endpoint of the scale</p>

                                    </div>
                                </div>","200","","0","true","0","true","","","","","","","","","","",""
"","","","","","html-button-response","9","38051","0.0-8.0-1.0","po2dqarmvv","21","780","<p align='center'><b>Good job!</b> Click on 'Continue' to proceed.</p>","0","","","","","","","","","","","","","","","",""
"","","","","","html-slider-response","10","38641","0.0-9.0-0.0","po2dqarmvv","21","NaN","<div style=""width:500px;"">
                                    <p style=""font-size:25px;"">Please move the slider all the way to the <br> left endpoint of the scale</p>

                                    </div>
                                </div>","-200","","0","true","1","true","","","","","","","","","","",""
"","","","","","html-button-response","11","39602","0.0-9.0-1.0","po2dqarmvv","21","457","<p align='center'><b>Good job!</b> Click on 'Continue' to proceed.</p>","0","","","","","","","","","","","","","","","",""
"","","","","","html-slider-response","12","40606","0.0-10.0-0.0","po2dqarmvv","21","NaN","<div style=""width:500px;"">
                                    <p style=""font-size:25px;"">Please move the slider halfway between the center and right endpoint of the scale</p>

                                    </div>
                                </div>","106","","0","true","2","true","","","","","","","","","","",""
"","","","","","html-button-response","13","41626","0.0-10.0-1.0","po2dqarmvv","21","519","<p align='center'><b>Good job!</b> Click on 'Continue' to proceed.</p>","0","","","","","","","","","","","","","","","",""
"","","","","","html-slider-response","14","42409","0.0-11.0-0.0","po2dqarmvv","21","NaN","<div style=""width:500px;"">
                                    <p style=""font-size:25px;"">Please move the slider halfway between the center and left endpoint of the scale</p>

                                    </div>
                                </div>","-113","","0","true","3","false","","","","","","","","","","",""
"","","","","","html-button-response","15","43125","0.0-11.0-1.0","po2dqarmvv","21","210","<p align='center'><b>Not quite!</b> The slider was not placed near the instructed located. Click on 'Continue' to try again. </p>","0","","","","","","","","","","","","","","","",""
"","","","","","html-slider-response","16","44178","0.0-11.1-0.1","po2dqarmvv","21","NaN","<div style=""width:500px;"">
                                    <p style=""font-size:25px;"">Please move the slider halfway between the center and left endpoint of the scale</p>

                                    </div>
                                </div>","-102","","0","true","3","true","","","","","","","","","","",""
"","","","","","html-button-response","17","45160","0.0-11.1-1.1","po2dqarmvv","21","478","<p align='center'><b>Good job!</b> Click on 'Continue' to proceed.</p>","0","","","","","","","","","","","","","","","",""
"","","","","","html-button-response","18","45575","0.0-12.0","po2dqarmvv","21","414","<p>Great job! You've completed the practice trials. Now you will begin the main task.</p>","0","","","","","","","","","","","","","","","",""
"","","","","","html-button-response","19","46691","0.0-13.0","po2dqarmvv","21","1116","<p>In this block of trials, you will be asked to rate how much you associate each map with:</p > <p style = 'font-size:150%; font-weight: bold'>sad</p><br></br>","0","","","","","","","","","","","","","","","",""
"","","","","","html-slider-response","20","47945","0.0-14.0","po2dqarmvv","21","NaN","<div style=""width:500px;"">
                            <p style=""font-size:50px; font-weight:bold;""
                            >sad</p>
                            <div style=""width:240px; margin: auto;"">
                                <img src=""images/map05_seismic_scaleDef_orientDef_090.png"" style= ""width:200px""alt=""img"">
                            </div>
                        </div>","-148","","0","","","","images/map05_seismic_scaleDef_orientDef_090.png","sad","1","05","05","seismic","orientDef","scaleDef","090","",""
"","","","","","html-slider-response","21","49335","0.0-15.0","po2dqarmvv","21","NaN","<div style=""width:500px;"">
                            <p style=""font-size:50px; font-weight:bold;""
                            >sad</p>
                            <div style=""width:240px; margin: auto;"">
                                <img src=""images/map27_PuOr_scaleDef_orientDef_090.png"" style= ""width:200px""alt=""img"">
                            </div>
                        </div>","-147","","0","","","","images/map27_PuOr_scaleDef_orientDef_090.png","sad","1","27","27","PuOr","orientDef","scaleDef","090","",""
"","","","","","html-slider-response","22","50244","0.0-16.0","po2dqarmvv","21","NaN","<div style=""width:500px;"">
                            <p style=""font-size:50px; font-weight:bold;""
                            >sad</p>
                            <div style=""width:240px; margin: auto;"">
                                <img src=""images/map07_vanimo_scaleRev_orientDef_000.png"" style= ""width:200px""alt=""img"">
                            </div>
                        </div>","-164","","0","","","","images/map07_vanimo_scaleRev_orientDef_000.png","sad","1","07","07","vanimo","orientDef","scaleRev","000","",""
"","","","","","html-slider-response","23","51518","0.0-17.0","po2dqarmvv","21","NaN","<div style=""width:500px;"">
                            <p style=""font-size:50px; font-weight:bold;""
                            >sad</p>
                            <div style=""width:240px; margin: auto;"">
                                <img src=""images/map23_PuBu_scaleRev_orientDef_180.png"" style= ""width:200px""alt=""img"">
                            </div>
                        </div>","157","","0","","","","images/map23_PuBu_scaleRev_orientDef_180.png","sad","1","23","23","PuBu","orientDef","scaleRev","180","",""
"","","","","","html-slider-response","24","52624","0.0-18.0","po2dqarmvv","21","NaN","<div style=""width:500px;"">
                            <p style=""font-size:50px; font-weight:bold;""
                            >sad</p>
                            <div style=""width:240px; margin: auto;"">
                                <img src=""images/map05_bwr_scaleRev_orientDef_000.png"" style= ""width:200px""alt=""img"">
                            </div>
                        </div>","-154","","0","","","","images/map05_bwr_scaleRev_orientDef_000.png","sad","1","05","05","bwr","orientDef","scaleRev","000","",""
"","","","","","html-slider-response","25","53607","0.0-19.0","po2dqarmvv","21","NaN","<div style=""width:500px;"">
                            <p style=""font-size:50px; font-weight:bold;""
                            >sad</p>
                            <div style=""width:240px; margin: auto;"">
                                <img src=""images/map27_BrBG_scaleRev_orientDef_000.png"" style= ""width:200px""alt=""img"">
                            </div>
                        </div>","-163","","0","","","","images/map27_BrBG_scaleRev_orientDef_000.png","sad","1","27","27","BrBG","orientDef","scaleRev","000","",""
"","","","","","html-slider-response","26","54641","0.0-20.0","po2dqarmvv","21","NaN","<div style=""width:500px;"">
                            <p style=""font-size:50px; font-weight:bold;""
                            >sad</p>
                            <div style=""width:240px; margin: auto;"">
                                <img src=""images/map26_BuGn_scaleRev_orientDef_000.png"" style= ""width:200px""alt=""img"">
                            </div>
                        </div>","-157","","0","","","","images/map26_BuGn_scaleRev_orientDef_000.png","sad","1","26","26","BuGn","orientDef","scaleRev","000","",""
"","","","","","html-slider-response","27","55740","0.0-21.0","po2dqarmvv","21","NaN","<div style=""width:500px;"">
                            <p style=""font-size:50px; font-weight:bold;""
                            >sad</p>
                            <div style=""width:240px; margin: auto;"">
                                <img src=""images/map27_RdYlBu_scaleDef_orientMir_270.png"" style= ""width:200px""alt=""img"">
                            </div>
                        </div>","-160","","0","","","","images/map27_RdYlBu_scaleDef_orientMir_270.png","sad","1","27","27","RdYlBu","orientMir","scaleDef","270","",""
"","","","","","html-slider-response","28","56786","0.0-22.0","po2dqarmvv","21","NaN","<div style=""width:500px;"">
                            <p style=""font-size:50px; font-weight:bold;""
                            >sad</p>
                            <div style=""width:240px; margin: auto;"">
                                <img src=""images/map26_PRGn_scaleRev_orientMir_180.png"" style= ""width:200px""alt=""img"">
                            </div>
                        </div>","-150","","0","","","","images/map26_PRGn_scaleRev_orientMir_180.png","sad","1","26","26","PRGn","orientMir","scaleRev","180","",""
"","","","","","html-slider-response","29","58055","0.0-23.0","po2dqarmvv","21","NaN","<div style=""width:500px;"">
                            <p style=""font-size:50px; font-weight:bold;""
                            >sad</p>
                            <div style=""width:240px; margin: auto;"">
                                <img src=""images/map10_Greys_scaleDef_orientMir_270.png"" style= ""width:200px""alt=""img"">
                            </div>
                        </div>","167","","0","","","","images/map10_Greys_scaleDef_orientMir_270.png","sad","1","10","10","Greys","orientMir","scaleDef","270","",""
"","","","","","html-slider-response","30","59140","0.0-24.0","po2dqarmvv","21","NaN","<div style=""width:500px;"">
                            <p style=""font-size:50px; font-weight:bold;""
                            >sad</p>
                            <div style=""width:240px; margin: auto;"">
                                <img src=""images/map02_RdYlBu_scaleRev_orientDef_000.png"" style= ""width:200px""alt=""img"">
                            </div>
                        </div>","-157","","0","","","","images/map02_RdYlBu_scaleRev_orientDef_000.png","sad","1","02","02","RdYlBu","orientDef","scaleRev","000","",""
"","","","","","html-slider-response","31","60025","0.0-25.0","po2dqarmvv","21","NaN","<div style=""width:500px;"">
                            <p style=""font-size:50px; font-weight:bold;""
                            >sad</p>
                            <div style=""width:240px; margin: auto;"">
                                <img src=""images/map02_bwr_scaleDef_orientMir_270.png"" style= ""width:200px""alt=""img"">
                            </div>
                        </div>","-138","","0","","","","images/map02_bwr_scaleDef_orientMir_270.png","sad","1","02","02","bwr","orientMir","scaleDef","270","",""
"","","","","","html-slider-response","32","61113","0.0-26.0","po2dqarmvv","21","NaN","<div style=""width:500px;"">
                            <p style=""font-size:50px; font-weight:bold;""
                            >sad</p>
                            <div style=""width:240px; margin: auto;"">
                                <img src=""images/map23_PuBuGn_scaleDef_orientMir_090.png"" style= ""width:200px""alt=""img"">
                            </div>
                        </div>","170","","0","","","","images/map23_PuBuGn_scaleDef_orientMir_090.png","sad","1","23","23","PuBuGn","orientMir","scaleDef","090","",""
"","","","","","html-slider-response","33","62006","0.0-27.0","po2dqarmvv","21","NaN","<div style=""width:500px;"">
                            <p style=""font-size:50px; font-weight:bold;""
                            >sad</p>
                            <div style=""width:240px; margin: auto;"">
                                <img src=""images/map02_Spectral_scaleDef_orientDef_270.png"" style= ""width:200px""alt=""img"">
                            </div>
                        </div>","-182","","0","","","","images/map02_Spectral_scaleDef_orientDef_270.png","sad","1","02","02","Spectral","orientDef","scaleDef","270","",""
"","","","","","html-slider-response","34","63459","0.0-28.0","po2dqarmvv","21","NaN","<div style=""width:500px;"">
                            <p style=""font-size:50px; font-weight:bold;""
                            >sad</p>
                            <div style=""width:240px; margin: auto;"">
                                <img src=""images/map05_seismic_scaleRev_orientDef_180.png"" style= ""width:200px""alt=""img"">
                            </div>
                        </div>","-162","","0","","","","images/map05_seismic_scaleRev_orientDef_180.png","sad","1","05","05","seismic","orientDef","scaleRev","180","",""
"","","","","","html-slider-response","35","64540","0.0-29.0","po2dqarmvv","21","NaN","<div style=""width:500px;"">
                            <p style=""font-size:50px; font-weight:bold;""
                            >sad</p>
                            <div style=""width:240px; margin: auto;"">
                                <img src=""images/map10_inferno_scaleDef_orientDef_090.png"" style= ""width:200px""alt=""img"">
                            </div>
                        </div>","-123","","0","","","","images/map10_inferno_scaleDef_orientDef_090.png","sad","1","10","10","inferno","orientDef","scaleDef","090","",""
"","","","","","html-slider-response","36","65675","0.0-30.0","po2dqarmvv","21","NaN","<div style=""width:500px;"">
                            <p style=""font-size:50px; font-weight:bold;""
                            >sad</p>
                            <div style=""width:240px; margin: auto;"">
                                <img src=""images/map23_GnBu_scaleRev_orientDef_000.png"" style= ""width:200px""alt=""img"">
                            </div>
                        </div>","134","","0","","","","images/map23_GnBu_scaleRev_orientDef_000.png","sad","1","23","23","GnBu","orientDef","scaleRev","000","",""
"","","","","","html-slider-response","37","66840","0.0-31.0","po2dqarmvv","21","NaN","<div style=""width:500px;"">
                            <p style=""font-size:50px; font-weight:bold;""
                            >sad</p>
                            <div style=""width:240px; margin: auto;"">
                                <img src=""images/map23_PuBu_scaleDef_orientDef_090.png"" style= ""width:200px""alt=""img"">
                            </div>
                        </div>","145","","0","","","","images/map23_PuBu_scaleDef_orientDef_090.png","sad","1","23","23","PuBu","orientDef","scaleDef","090","",""
"","","","","","html-slider-response","38","67990","0.0-32.0","po2dqarmvv","21","NaN","<div style=""width:500px;"">
                            <p style=""font-size:50px; font-weight:bold;""
                            >sad</p>
                            <div style=""width:240px; margin: auto;"">
                                <img src=""images/map15_GnBu_scaleDef_orientMir_270.png"" style= ""width:200px""alt=""img"">
                            </div>
                        </div>","157","","0","","","","images/map15_GnBu_scaleDef_orientMir_270.png","sad","1","15","15","GnBu","orientMir","scaleDef","270","",""
"","","","","","html-slider-response","39","69074","0.0-33.0","po2dqarmvv","21","NaN","<div style=""width:500px;"">
                            <p style=""font-size:50px; font-weight:bold;""
                            >sad</p>
                            <div style=""width:240px; margin: auto;"">
                                <img src=""images/map12_Blues_scaleRev_orientMir_000.png"" style= ""width:200px""alt=""img"">
                            </div>
                        </div>","135","","0","","","","images/map12_Blues_scaleRev_orientMir_000.png","sad","1","12","12","Blues","orientMir","scaleRev","000","",""
"","","","","","html-slider-response","40","70057","0.0-34.0","po2dqarmvv","21","NaN","<div style=""width:500px;"">
                            <p style=""font-size:50px; font-weight:bold;""
                            >sad</p>
                            <div style=""width:240px; margin: auto;"">
                                <img src=""images/map07_gist_earth_scaleDef_orientDef_090.png"" style= ""width:200px""alt=""img"">
                            </div>
                        </div>","-130","","0","","","","images/map07_gist_earth_scaleDef_orientDef_090.png","sad","1","07","07","gist","scaleDef","earth","orientDef","",""
"","","","","","html-slider-response","41","71147","0.0-35.0","po2dqarmvv","21","NaN","<div style=""width:500px;"">
                            <p style=""font-size:50px; font-weight:bold;""
                            >sad</p>
                            <div style=""width:240px; margin: auto;"">
                                <img src=""images/map12_Purples_scaleDef_orientDef_090.png"" style= ""width:200px""alt=""img"">
                            </div>
                        </div>","106","","0","","","","images/map12_Purples_scaleDef_orientDef_090.png","sad","1","12","12","Purples","orientDef","scaleDef","090","",""
"","","","","","html-slider-response","42","72189","0.0-36.0","po2dqarmvv","21","NaN","<div style=""width:500px;"">
                            <p style=""font-size:50px; font-weight:bold;""
                            >sad</p>
                            <div style=""width:240px; margin: auto;"">
                                <img src=""images/map26_PiYG_scaleDef_orientDef_270.png"" style= ""width:200px""alt=""img"">
                            </div>
                        </div>","-154","","0","","","","images/map26_PiYG_scaleDef_orientDef_270.png","sad","1","26","26","PiYG","orientDef","scaleDef","270","",""
"","","","","","html-slider-response","43","73590","0.0-37.0","po2dqarmvv","21","NaN","<div style=""width:500px;"">
                            <p style=""font-size:50px; font-weight:bold;""
                            >sad</p>
                            <div style=""width:240px; margin: auto;"">
                                <img src=""images/map05_berlin_scaleDef_orientDef_270.png"" style= ""width:200px""alt=""img"">
                            </div>
                        </div>","-120","","0","","","","images/map05_berlin_scaleDef_orientDef_270.png","sad","1","05","05","berlin","orientDef","scaleDef","270","",""
"","","","","","html-slider-response","44","74660","0.0-38.0","po2dqarmvv","21","NaN","<div style=""width:500px;"">
                            <p style=""font-size:50px; font-weight:bold;""
                            >sad</p>
                            <div style=""width:240px; margin: auto;"">
                                <img src=""images/map13_OrRd_scaleDef_orientMir_270.png"" style= ""width:200px""alt=""img"">
                            </div>
                        </div>","-138","","0","","","","images/map13_OrRd_scaleDef_orientMir_270.png","sad","1","13","13","OrRd","orientMir","scaleDef","270","",""
"","","","","","html-slider-response","45","75639","0.0-39.0","po2dqarmvv","21","NaN","<div style=""width:500px;"">
                            <p style=""font-size:50px; font-weight:bold;""
                            >sad</p>
                            <div style=""width:240px; margin: auto;"">
                                <img src=""images/map10_magma_scaleDef_orientDef_270.png"" style= ""width:200px""alt=""img"">
                            </div>
                        </div>","-150","","0","","","","images/map10_magma_scaleDef_orientDef_270.png","sad","1","10","10","magma","orientDef","scaleDef","270","",""
"","","","","","html-slider-response","46","76665","0.0-40.0","po2dqarmvv","21","NaN","<div style=""width:500px;"">
                            <p style=""font-size:50px; font-weight:bold;""
                            >sad</p>
                            <div style=""width:240px; margin: auto;"">
                                <img src=""images/map26_YlGn_scaleDef_orientDef_090.png"" style= ""width:200px""alt=""img"">
                            </div>
                        </div>","-150","","0","","","","images/map26_YlGn_scaleDef_orientDef_090.png","sad","1","26","26","YlGn","orientDef","scaleDef","090","",""
"","","","","","html-slider-response","47","77639","0.0-41.0","po2dqarmvv","21","NaN","<div style=""width:500px;"">
                            <p style=""font-size:50px; font-weight:bold;""
                            >sad</p>
                            <div style=""width:240px; margin: auto;"">
                                <img src=""images/map07_turbo_scaleDef_orientDef_270.png"" style= ""width:200px""alt=""img"">
                            </div>
                        </div>","-152","","0","","","","images/map07_turbo_scaleDef_orientDef_270.png","sad","1","07","07","turbo","orientDef","scaleDef","270","",""
"","","","","","html-slider-response","48","78663","0.0-42.0","po2dqarmvv","21","NaN","<div style=""width:500px;"">
                            <p style=""font-size:50px; font-weight:bold;""
                            >sad</p>
                            <div style=""width:240px; margin: auto;"">
                                <img src=""images/map13_YlOrBr_scaleDef_orientDef_270.png"" style= ""width:200px""alt=""img"">
                            </div>
                        </div>","-150","","0","","","","images/map13_YlOrBr_scaleDef_orientDef_270.png","sad","1","13","13","YlOrBr","orientDef","scaleDef","270","",""
"","","","","","html-slider-response","49","79657","0.0-43.0","po2dqarmvv","21","NaN","<div style=""width:500px;"">
                            <p style=""font-size:50px; font-weight:bold;""
                            >sad</p>
                            <div style=""width:240px; margin: auto;"">
                                <img src=""images/map26_PiYG_scaleRev_orientMir_000.png"" style= ""width:200px""alt=""img"">
                            </div>
                        </div>","-132","","0","","","","images/map26_PiYG_scaleRev_orientMir_000.png","sad","1","26","26","PiYG","orientMir","scaleRev","000","",""
"","","","","","html-slider-response","50","80793","0.0-44.0","po2dqarmvv","21","NaN","<div style=""width:500px;"">
                            <p style=""font-size:50px; font-weight:bold;""
                            >sad</p>
                            <div style=""width:240px; margin: auto;"">
                                <img src=""images/map15_BuPu_scaleDef_orientMir_090.png"" style= ""width:200px""alt=""img"">
                            </div>
                        </div>","174","","0","","","","images/map15_BuPu_scaleDef_orientMir_090.png","sad","1","15","15","BuPu","orientMir","scaleDef","090","",""
"","","","","","html-slider-response","51","82293","0.0-45.0","po2dqarmvv","21","NaN","<div style=""width:500px;"">
                            <p style=""font-size:50px; font-weight:bold;""
                            >sad</p>
                            <div style=""width:240px; margin: auto;"">
                                <img src=""images/map12_Greys_scaleRev_orientDef_000.png"" style= ""width:200px""alt=""img"">
                            </div>
                        </div>","163","","0","","","","images/map12_Greys_scaleRev_orientDef_000.png","sad","1","12","12","Greys","orientDef","scaleRev","000","",""
"","","","","","html-slider-response","52","83518","0.0-46.0","po2dqarmvv","21","NaN","<div style=""width:500px;"">
                            <p style=""font-size:50px; font-weight:bold;""
                            >sad</p>
                            <div style=""width:240px; margin: auto;"">
                                <img src=""images/map23_YlGnBu_scaleDef_orientDef_270.png"" style= ""width:200px""alt=""img"">
                            </div>
                        </div>","132","","0","","","","images/map23_YlGnBu_scaleDef_orientDef_270.png","sad","1","23","23","YlGnBu","orientDef","scaleDef","270","",""
"","","","","","html-slider-response","53","84623","0.0-47.0","po2dqarmvv","21","NaN","<div style=""width:500px;"">
                            <p style=""font-size:50px; font-weight:bold;""
                            >sad</p>
                            <div style=""width:240px; margin: auto;"">
                                <img src=""images/map05_managua_scaleRev_orientMir_180.png"" style= ""width:200px""alt=""img"">
                            </div>
                        </div>","-198","","0","","","","images/map05_managua_scaleRev_orientMir_180.png","sad","1","05","05","managua","orientMir","scaleRev","180","",""
"","","","","","html-slider-response","54","85656","0.0-48.0","po2dqarmvv","21","NaN","<div style=""width:500px;"">
                            <p style=""font-size:50px; font-weight:bold;""
                            >sad</p>
                            <div style=""width:240px; margin: auto;"">
                                <img src=""images/map07_turbo_scaleRev_orientMir_000.png"" style= ""width:200px""alt=""img"">
                            </div>
                        </div>","-136","","0","","","","images/map07_turbo_scaleRev_orientMir_000.png","sad","1","07","07","turbo","orientMir","scaleRev","000","",""
"","","","","","html-slider-response","55","86494","0.0-49.0","po2dqarmvv","21","NaN","<div style=""width:500px;"">
                            <p style=""font-size:50px; font-weight:bold;""
                            >sad</p>
                            <div style=""width:240px; margin: auto;"">
                                <img src=""images/map10_magma_scaleRev_orientMir_000.png"" style= ""width:200px""alt=""img"">
                            </div>
                        </div>","-177","","0","","","","images/map10_magma_scaleRev_orientMir_000.png","sad","1","10","10","magma","orientMir","scaleRev","000","",""
"","","","","","html-slider-response","56","87556","0.0-50.0","po2dqarmvv","21","NaN","<div style=""width:500px;"">
                            <p style=""font-size:50px; font-weight:bold;""
                            >sad</p>
                            <div style=""width:240px; margin: auto;"">
                                <img src=""images/map26_PRGn_scaleDef_orientMir_090.png"" style= ""width:200px""alt=""img"">
                            </div>
                        </div>","-137","","0","","","","images/map26_PRGn_scaleDef_orientMir_090.png","sad","1","26","26","PRGn","orientMir","scaleDef","090","",""
"","","","","","html-slider-response","57","88557","0.0-51.0","po2dqarmvv","21","NaN","<div style=""width:500px;"">
                            <p style=""font-size:50px; font-weight:bold;""
                            >sad</p>
                            <div style=""width:240px; margin: auto;"">
                                <img src=""images/map02_Spectral_scaleRev_orientMir_000.png"" style= ""width:200px""alt=""img"">
                            </div>
                        </div>","-142","","0","","","","images/map02_Spectral_scaleRev_orientMir_000.png","sad","1","02","02","Spectral","orientMir","scaleRev","000","",""
"","","","","","html-slider-response","58","89740","0.0-52.0","po2dqarmvv","21","NaN","<div style=""width:500px;"">
                            <p style=""font-size:50px; font-weight:bold;""
                            >sad</p>
                            <div style=""width:240px; margin: auto;"">
                                <img src=""images/map02_RdYlGn_scaleRev_orientDef_180.png"" style= ""width:200px""alt=""img"">
                            </div>
                        </div>","-154","","0","","","","images/map02_RdYlGn_scaleRev_orientDef_180.png","sad","1","02","02","RdYlGn","orientDef","scaleRev","180","",""
"","","","","","html-slider-response","59","91060","0.0-53.0","po2dqarmvv","21","NaN","<div style=""width:500px;"">
                            <p style=""font-size:50px; font-weight:bold;""
                            >sad</p>
                            <div style=""width:240px; margin: auto;"">
                                <img src=""images/map23_YlGnBu_scaleRev_orientMir_000.png"" style= ""width:200px""alt=""img"">
                            </div>
                        </div>","125","","0","","","","images/map23_YlGnBu_scaleRev_orientMir_000.png","sad","1","23","23","YlGnBu","orientMir","scaleRev","000","",""
"","","","","","html-button-response","60","93540","0.0-54.0","po2dqarmvv","21","1971","<p>You are doing great!<br></br> You are halway done with the current block. When you are ready to continue, click the 'Continue' button.</p>","0","","","","","","","","","","","","","","","",""
"","","","","","html-slider-response","61","94356","0.0-55.0","po2dqarmvv","21","NaN","<div style=""width:500px;"">
                            <p style=""font-size:50px; font-weight:bold;""
                            >sad</p>
                            <div style=""width:240px; margin: auto;"">
                                <img src=""images/map12_Oranges_scaleDef_orientMir_270.png"" style= ""width:200px""alt=""img"">
                            </div>
                        </div>","-200","","0","","","","images/map12_Oranges_scaleDef_orientMir_270.png","sad","1","12","12","Oranges","orientMir","scaleDef","270","",""
"","","","","","html-slider-response","62","95405","0.0-56.0","po2dqarmvv","21","NaN","<div style=""width:500px;"">
                            <p style=""font-size:50px; font-weight:bold;""
                            >sad</p>
                            <div style=""width:240px; margin: auto;"">
                                <img src=""images/map15_PuRd_scaleDef_orientDef_090.png"" style= ""width:200px""alt=""img"">
                            </div>
                        </div>","-182","","0","","","","images/map15_PuRd_scaleDef_orientDef_090.png","sad","1","15","15","PuRd","orientDef","scaleDef","090","",""
"","","","","","html-slider-response","63","96380","0.0-57.0","po2dqarmvv","21","NaN","<div style=""width:500px;"">
                            <p style=""font-size:50px; font-weight:bold;""
                            >sad</p>
                            <div style=""width:240px; margin: auto;"">
                                <img src=""images/map10_cividis_scaleDef_orientMir_090.png"" style= ""width:200px""alt=""img"">
                            </div>
                        </div>","-177","","0","","","","images/map10_cividis_scaleDef_orientMir_090.png","sad","1","10","10","cividis","orientMir","scaleDef","090","",""
"","","","","","html-slider-response","64","97371","0.0-58.0","po2dqarmvv","21","NaN","<div style=""width:500px;"">
                            <p style=""font-size:50px; font-weight:bold;""
                            >sad</p>
                            <div style=""width:240px; margin: auto;"">
                                <img src=""images/map15_PuRd_scaleRev_orientDef_180.png"" style= ""width:200px""alt=""img"">
                            </div>
                        </div>","-177","","0","","","","images/map15_PuRd_scaleRev_orientDef_180.png","sad","1","15","15","PuRd","orientDef","scaleRev","180","",""
"","","","","","html-slider-response","65","98648","0.0-59.0","po2dqarmvv","21","NaN","<div style=""width:500px;"">
                            <p style=""font-size:50px; font-weight:bold;""
                            >sad</p>
                            <div style=""width:240px; margin: auto;"">
                                <img src=""images/map23_PuBuGn_scaleRev_orientMir_180.png"" style= ""width:200px""alt=""img"">
                            </div>
                        </div>","200","","0","","","","images/map23_PuBuGn_scaleRev_orientMir_180.png","sad","1","23","23","PuBuGn","orientMir","scaleRev","180","",""
"","","","","","html-slider-response","66","99760","0.0-60.0","po2dqarmvv","21","NaN","<div style=""width:500px;"">
                            <p style=""font-size:50px; font-weight:bold;""
                            >sad</p>
                            <div style=""width:240px; margin: auto;"">
                                <img src=""images/map07_gist_earth_scaleRev_orientDef_180.png"" style= ""width:200px""alt=""img"">
                            </div>
                        </div>","-122","","0","","","","images/map07_gist_earth_scaleRev_orientDef_180.png","sad","1","07","07","gist","scaleRev","earth","orientDef","",""
"","","","","","html-slider-response","67","100682","0.0-61.0","po2dqarmvv","21","NaN","<div style=""width:500px;"">
                            <p style=""font-size:50px; font-weight:bold;""
                            >sad</p>
                            <div style=""width:240px; margin: auto;"">
                                <img src=""images/map10_cividis_scaleRev_orientMir_180.png"" style= ""width:200px""alt=""img"">
                            </div>
                        </div>","-200","","0","","","","images/map10_cividis_scaleRev_orientMir_180.png","sad","1","10","10","cividis","orientMir","scaleRev","180","",""
"","","","","","html-slider-response","68","101805","0.0-62.0","po2dqarmvv","21","NaN","<div style=""width:500px;"">
                            <p style=""font-size:50px; font-weight:bold;""
                            >sad</p>
                            <div style=""width:240px; margin: auto;"">
                                <img src=""images/map10_inferno_scaleRev_orientDef_180.png"" style= ""width:200px""alt=""img"">
                            </div>
                        </div>","-160","","0","","","","images/map10_inferno_scaleRev_orientDef_180.png","sad","1","10","10","inferno","orientDef","scaleRev","180","",""
"","","","","","html-slider-response","69","102744","0.0-63.0","po2dqarmvv","21","NaN","<div style=""width:500px;"">
                            <p style=""font-size:50px; font-weight:bold;""
                            >sad</p>
                            <div style=""width:240px; margin: auto;"">
                                <img src=""images/map07_plasma_scaleDef_orientMir_270.png"" style= ""width:200px""alt=""img"">
                            </div>
                        </div>","-200","","0","","","","images/map07_plasma_scaleDef_orientMir_270.png","sad","1","07","07","plasma","orientMir","scaleDef","270","",""
"","","","","","html-slider-response","70","103672","0.0-64.0","po2dqarmvv","21","NaN","<div style=""width:500px;"">
                            <p style=""font-size:50px; font-weight:bold;""
                            >sad</p>
                            <div style=""width:240px; margin: auto;"">
                                <img src=""images/map27_PuOr_scaleRev_orientDef_180.png"" style= ""width:200px""alt=""img"">
                            </div>
                        </div>","-200","","0","","","","images/map27_PuOr_scaleRev_orientDef_180.png","sad","1","27","27","PuOr","orientDef","scaleRev","180","",""
"","","","","","html-slider-response","71","104860","0.0-65.0","po2dqarmvv","21","NaN","<div style=""width:500px;"">
                            <p style=""font-size:50px; font-weight:bold;""
                            >sad</p>
                            <div style=""width:240px; margin: auto;"">
                                <img src=""images/map12_Blues_scaleDef_orientDef_270.png"" style= ""width:200px""alt=""img"">
                            </div>
                        </div>","200","","0","","","","images/map12_Blues_scaleDef_orientDef_270.png","sad","1","12","12","Blues","orientDef","scaleDef","270","",""
"","","","","","html-slider-response","72","105774","0.0-66.0","po2dqarmvv","21","NaN","<div style=""width:500px;"">
                            <p style=""font-size:50px; font-weight:bold;""
                            >sad</p>
                            <div style=""width:240px; margin: auto;"">
                                <img src=""images/map23_BuGn_scaleDef_orientMir_270.png"" style= ""width:200px""alt=""img"">
                            </div>
                        </div>","-192","","0","","","","images/map23_BuGn_scaleDef_orientMir_270.png","sad","1","23","23","BuGn","orientMir","scaleDef","270","",""
"","","","","","html-slider-response","73","106655","0.0-67.0","po2dqarmvv","21","NaN","<div style=""width:500px;"">
                            <p style=""font-size:50px; font-weight:bold;""
                            >sad</p>
                            <div style=""width:240px; margin: auto;"">
                                <img src=""images/map13_YlOrRd_scaleRev_orientMir_180.png"" style= ""width:200px""alt=""img"">
                            </div>
                        </div>","-200","","0","","","","images/map13_YlOrRd_scaleRev_orientMir_180.png","sad","1","13","13","YlOrRd","orientMir","scaleRev","180","",""
"","","","","","html-slider-response","74","107704","0.0-68.0","po2dqarmvv","21","NaN","<div style=""width:500px;"">
                            <p style=""font-size:50px; font-weight:bold;""
                            >sad</p>
                            <div style=""width:240px; margin: auto;"">
                                <img src=""images/map05_managua_scaleDef_orientMir_090.png"" style= ""width:200px""alt=""img"">
                            </div>
                        </div>","-186","","0","","","","images/map05_managua_scaleDef_orientMir_090.png","sad","1","05","05","managua","orientMir","scaleDef","090","",""
"","","","","","html-slider-response","75","108871","0.0-69.0","po2dqarmvv","21","NaN","<div style=""width:500px;"">
                            <p style=""font-size:50px; font-weight:bold;""
                            >sad</p>
                            <div style=""width:240px; margin: auto;"">
                                <img src=""images/map05_berlin_scaleRev_orientMir_000.png"" style= ""width:200px""alt=""img"">
                            </div>
                        </div>","138","","0","","","","images/map05_berlin_scaleRev_orientMir_000.png","sad","1","05","05","berlin","orientMir","scaleRev","000","",""
"","","","","","html-slider-response","76","109787","0.0-70.0","po2dqarmvv","21","NaN","<div style=""width:500px;"">
                            <p style=""font-size:50px; font-weight:bold;""
                            >sad</p>
                            <div style=""width:240px; margin: auto;"">
                                <img src=""images/map15_BuPu_scaleRev_orientMir_180.png"" style= ""width:200px""alt=""img"">
                            </div>
                        </div>","-189","","0","","","","images/map15_BuPu_scaleRev_orientMir_180.png","sad","1","15","15","BuPu","orientMir","scaleRev","180","",""
"","","","","","html-slider-response","77","111813","0.0-71.0","po2dqarmvv","21","NaN","<div style=""width:500px;"">
                            <p style=""font-size:50px; font-weight:bold;""
                            >sad</p>
                            <div style=""width:240px; margin: auto;"">
                                <img src=""images/map15_RdPu_scaleRev_orientMir_000.png"" style= ""width:200px""alt=""img"">
                            </div>
                        </div>","-200","","0","","","","images/map15_RdPu_scaleRev_orientMir_000.png","sad","1","15","15","RdPu","orientMir","scaleRev","000","",""
"","","","","","html-slider-response","78","113072","0.0-72.0","po2dqarmvv","21","NaN","<div style=""width:500px;"">
                            <p style=""font-size:50px; font-weight:bold;""
                            >sad</p>
                            <div style=""width:240px; margin: auto;"">
                                <img src=""images/map05_vanimo_scaleDef_orientMir_270.png"" style= ""width:200px""alt=""img"">
                            </div>
                        </div>","-178","","0","","","","images/map05_vanimo_scaleDef_orientMir_270.png","sad","1","05","05","vanimo","orientMir","scaleDef","270","",""
"","","","","","html-slider-response","79","114576","0.0-73.0","po2dqarmvv","21","NaN","<div style=""width:500px;"">
                            <p style=""font-size:50px; font-weight:bold;""
                            >sad</p>
                            <div style=""width:240px; margin: auto;"">
                                <img src=""images/map27_RdGy_scaleDef_orientDef_270.png"" style= ""width:200px""alt=""img"">
                            </div>
                        </div>","117","","0","","","","images/map27_RdGy_scaleDef_orientDef_270.png","sad","1","27","27","RdGy","orientDef","scaleDef","270","",""
"","","","","","html-slider-response","80","115521","0.0-74.0","po2dqarmvv","21","NaN","<div style=""width:500px;"">
                            <p style=""font-size:50px; font-weight:bold;""
                            >sad</p>
                            <div style=""width:240px; margin: auto;"">
                                <img src=""images/map13_Reds_scaleRev_orientDef_180.png"" style= ""width:200px""alt=""img"">
                            </div>
                        </div>","-160","","0","","","","images/map13_Reds_scaleRev_orientDef_180.png","sad","1","13","13","Reds","orientDef","scaleRev","180","",""
"","","","","","html-slider-response","81","116606","0.0-75.0","po2dqarmvv","21","NaN","<div style=""width:500px;"">
                            <p style=""font-size:50px; font-weight:bold;""
                            >sad</p>
                            <div style=""width:240px; margin: auto;"">
                                <img src=""images/map10_plasma_scaleRev_orientDef_000.png"" style= ""width:200px""alt=""img"">
                            </div>
                        </div>","-200","","0","","","","images/map10_plasma_scaleRev_orientDef_000.png","sad","1","10","10","plasma","orientDef","scaleRev","000","",""
"","","","","","html-slider-response","82","117588","0.0-76.0","po2dqarmvv","21","NaN","<div style=""width:500px;"">
                            <p style=""font-size:50px; font-weight:bold;""
                            >sad</p>
                            <div style=""width:240px; margin: auto;"">
                                <img src=""images/map02_RdYlGn_scaleDef_orientDef_090.png"" style= ""width:200px""alt=""img"">
                            </div>
                        </div>","-180","","0","","","","images/map02_RdYlGn_scaleDef_orientDef_090.png","sad","1","02","02","RdYlGn","orientDef","scaleDef","090","",""
"","","","","","html-slider-response","83","119138","0.0-77.0","po2dqarmvv","21","NaN","<div style=""width:500px;"">
                            <p style=""font-size:50px; font-weight:bold;""
                            >sad</p>
                            <div style=""width:240px; margin: auto;"">
                                <img src=""images/map02_coolwarm_scaleRev_orientMir_180.png"" style= ""width:200px""alt=""img"">
                            </div>
                        </div>","-186","","0","","","","images/map02_coolwarm_scaleRev_orientMir_180.png","sad","1","02","02","coolwarm","orientMir","scaleRev","180","",""
"","","","","","html-slider-response","84","120191","0.0-78.0","po2dqarmvv","21","NaN","<div style=""width:500px;"">
                            <p style=""font-size:50px; font-weight:bold;""
                            >sad</p>
                            <div style=""width:240px; margin: auto;"">
                                <img src=""images/map26_YlGn_scaleRev_orientDef_180.png"" style= ""width:200px""alt=""img"">
                            </div>
                        </div>","-198","","0","","","","images/map26_YlGn_scaleRev_orientDef_180.png","sad","1","26","26","YlGn","orientDef","scaleRev","180","",""
"","","","","","html-slider-response","85","121242","0.0-79.0","po2dqarmvv","21","NaN","<div style=""width:500px;"">
                            <p style=""font-size:50px; font-weight:bold;""
                            >sad</p>
                            <div style=""width:240px; margin: auto;"">
                                <img src=""images/map07_viridis_scaleDef_orientMir_090.png"" style= ""width:200px""alt=""img"">
                            </div>
                        </div>","-200","","0","","","","images/map07_viridis_scaleDef_orientMir_090.png","sad","1","07","07","viridis","orientMir","scaleDef","090","",""
"","","","","","html-slider-response","86","122292","0.0-80.0","po2dqarmvv","21","NaN","<div style=""width:500px;"">
                            <p style=""font-size:50px; font-weight:bold;""
                            >sad</p>
                            <div style=""width:240px; margin: auto;"">
                                <img src=""images/map27_RdBu_scaleDef_orientMir_090.png"" style= ""width:200px""alt=""img"">
                            </div>
                        </div>","-175","","0","","","","images/map27_RdBu_scaleDef_orientMir_090.png","sad","1","27","27","RdBu","orientMir","scaleDef","090","",""
"","","","","","html-slider-response","87","123378","0.0-81.0","po2dqarmvv","21","NaN","<div style=""width:500px;"">
                            <p style=""font-size:50px; font-weight:bold;""
                            >sad</p>
                            <div style=""width:240px; margin: auto;"">
                                <img src=""images/map13_Reds_scaleDef_orientDef_090.png"" style= ""width:200px""alt=""img"">
                            </div>
                        </div>","-170","","0","","","","images/map13_Reds_scaleDef_orientDef_090.png","sad","1","13","13","Reds","orientDef","scaleDef","090","",""
"","","","","","html-slider-response","88","124403","0.0-82.0","po2dqarmvv","21","NaN","<div style=""width:500px;"">
                            <p style=""font-size:50px; font-weight:bold;""
                            >sad</p>
                            <div style=""width:240px; margin: auto;"">
                                <img src=""images/map07_viridis_scaleRev_orientMir_180.png"" style= ""width:200px""alt=""img"">
                            </div>
                        </div>","-197","","0","","","","images/map07_viridis_scaleRev_orientMir_180.png","sad","1","07","07","viridis","orientMir","scaleRev","180","",""
"","","","","","html-slider-response","89","125403","0.0-83.0","po2dqarmvv","21","NaN","<div style=""width:500px;"">
                            <p style=""font-size:50px; font-weight:bold;""
                            >sad</p>
                            <div style=""width:240px; margin: auto;"">
                                <img src=""images/map13_YlOrBr_scaleRev_orientMir_000.png"" style= ""width:200px""alt=""img"">
                            </div>
                        </div>","-200","","0","","","","images/map13_YlOrBr_scaleRev_orientMir_000.png","sad","1","13","13","YlOrBr","orientMir","scaleRev","000","",""
"","","","","","html-slider-response","90","126547","0.0-84.0","po2dqarmvv","21","NaN","<div style=""width:500px;"">
                            <p style=""font-size:50px; font-weight:bold;""
                            >sad</p>
                            <div style=""width:240px; margin: auto;"">
                                <img src=""images/map02_coolwarm_scaleDef_orientMir_090.png"" style= ""width:200px""alt=""img"">
                            </div>
                        </div>","-200","","0","","","","images/map02_coolwarm_scaleDef_orientMir_090.png","sad","1","02","02","coolwarm","orientMir","scaleDef","090","",""
"","","","","","html-slider-response","91","127486","0.0-85.0","po2dqarmvv","21","NaN","<div style=""width:500px;"">
                            <p style=""font-size:50px; font-weight:bold;""
                            >sad</p>
                            <div style=""width:240px; margin: auto;"">
                                <img src=""images/map27_RdGy_scaleRev_orientMir_000.png"" style= ""width:200px""alt=""img"">
                            </div>
                        </div>","-200","","0","","","","images/map27_RdGy_scaleRev_orientMir_000.png","sad","1","27","27","RdGy","orientMir","scaleRev","000","",""
"","","","","","html-slider-response","92","128547","0.0-86.0","po2dqarmvv","21","NaN","<div style=""width:500px;"">
                            <p style=""font-size:50px; font-weight:bold;""
                            >sad</p>
                            <div style=""width:240px; margin: auto;"">
                                <img src=""images/map12_Greens_scaleDef_orientMir_090.png"" style= ""width:200px""alt=""img"">
                            </div>
                        </div>","-178","","0","","","","images/map12_Greens_scaleDef_orientMir_090.png","sad","1","12","12","Greens","orientMir","scaleDef","090","",""
"","","","","","html-slider-response","93","129422","0.0-87.0","po2dqarmvv","21","NaN","<div style=""width:500px;"">
                            <p style=""font-size:50px; font-weight:bold;""
                            >sad</p>
                            <div style=""width:240px; margin: auto;"">
                                <img src=""images/map13_YlOrRd_scaleDef_orientMir_090.png"" style= ""width:200px""alt=""img"">
                            </div>
                        </div>","-200","","0","","","","images/map13_YlOrRd_scaleDef_orientMir_090.png","sad","1","13","13","YlOrRd","orientMir","scaleDef","090","",""
"","","","","","html-slider-response","94","130420","0.0-88.0","po2dqarmvv","21","NaN","<div style=""width:500px;"">
                            <p style=""font-size:50px; font-weight:bold;""
                            >sad</p>
                            <div style=""width:240px; margin: auto;"">
                                <img src=""images/map15_RdPu_scaleDef_orientDef_270.png"" style= ""width:200px""alt=""img"">
                            </div>
                        </div>","-200","","0","","","","images/map15_RdPu_scaleDef_orientDef_270.png","sad","1","15","15","RdPu","orientDef","scaleDef","270","",""
"","","","","","html-slider-response","95","131270","0.0-89.0","po2dqarmvv","21","NaN","<div style=""width:500px;"">
                            <p style=""font-size:50px; font-weight:bold;""
                            >sad</p>
                            <div style=""width:240px; margin: auto;"">
                                <img src=""images/map15_OrRd_scaleRev_orientDef_000.png"" style= ""width:200px""alt=""img"">
                            </div>
                        </div>","-200","","0","","","","images/map15_OrRd_scaleRev_orientDef_000.png","sad","1","15","15","OrRd","orientDef","scaleRev","000","",""
"","","","","","html-slider-response","96","132153","0.0-90.0","po2dqarmvv","21","NaN","<div style=""width:500px;"">
                            <p style=""font-size:50px; font-weight:bold;""
                            >sad</p>
                            <div style=""width:240px; margin: auto;"">
                                <img src=""images/map12_Greens_scaleRev_orientMir_180.png"" style= ""width:200px""alt=""img"">
                            </div>
                        </div>","-200","","0","","","","images/map12_Greens_scaleRev_orientMir_180.png","sad","1","12","12","Greens","orientMir","scaleRev","180","",""
"","","","","","html-slider-response","97","133036","0.0-91.0","po2dqarmvv","21","NaN","<div style=""width:500px;"">
                            <p style=""font-size:50px; font-weight:bold;""
                            >sad</p>
                            <div style=""width:240px; margin: auto;"">
                                <img src=""images/map26_BrBG_scaleDef_orientMir_270.png"" style= ""width:200px""alt=""img"">
                            </div>
                        </div>","-194","","0","","","","images/map26_BrBG_scaleDef_orientMir_270.png","sad","1","26","26","BrBG","orientMir","scaleDef","270","",""
"","","","","","html-slider-response","98","133909","0.0-92.0","po2dqarmvv","21","NaN","<div style=""width:500px;"">
                            <p style=""font-size:50px; font-weight:bold;""
                            >sad</p>
                            <div style=""width:240px; margin: auto;"">
                                <img src=""images/map27_RdBu_scaleRev_orientMir_180.png"" style= ""width:200px""alt=""img"">
                            </div>
                        </div>","-200","","0","","","","images/map27_RdBu_scaleRev_orientMir_180.png","sad","1","27","27","RdBu","orientMir","scaleRev","180","",""
"","","","","","html-slider-response","99","135030","0.0-93.0","po2dqarmvv","21","NaN","<div style=""width:500px;"">
                            <p style=""font-size:50px; font-weight:bold;""
                            >sad</p>
                            <div style=""width:240px; margin: auto;"">
                                <img src=""images/map12_Purples_scaleRev_orientDef_180.png"" style= ""width:200px""alt=""img"">
                            </div>
                        </div>","169","","0","","","","images/map12_Purples_scaleRev_orientDef_180.png","sad","1","12","12","Purples","orientDef","scaleRev","180","",""
"","","","","","html-slider-response","100","136087","0.0-94.0","po2dqarmvv","21","NaN","<div style=""width:500px;"">
                            <p style=""font-size:50px; font-weight:bold;""
                            >sad</p>
                            <div style=""width:240px; margin: auto;"">
                                <img src=""images/map13_Oranges_scaleRev_orientDef_000.png"" style= ""width:200px""alt=""img"">
                            </div>
                        </div>","-200","","0","","","","images/map13_Oranges_scaleRev_orientDef_000.png","sad","1","13","13","Oranges","orientDef","scaleRev","000","",""
"","","","","","html-button-response","101","137860","0.0-95.0","po2dqarmvv","21","1259","<p>Great Job! You've finished block 1.<br></br> You have 4 block(s) left to go.<br></br></p>","0","","","","","","","","","","","","","","","",""
"","","","","","html-button-response","102","138354","0.0-96.0","po2dqarmvv","21","493","<p>In this block of trials, you will be asked to rate how much you associate each map with:</p > <p style = 'font-size:150%; font-weight: bold'>happy</p><br></br>","0","","","","","","","","","","","","","","","",""
"","","","","","html-slider-response","103","139046","0.0-97.0","po2dqarmvv","21","NaN","<div style=""width:500px;"">
                            <p style=""font-size:50px; font-weight:bold;""
                            >happy</p>
                            <div style=""width:240px; margin: auto;"">
                                <img src=""images/map13_YlOrBr_scaleDef_orientDef_270.png"" style= ""width:200px""alt=""img"">
                            </div>
                        </div>","200","","0","","","","images/map13_YlOrBr_scaleDef_orientDef_270.png","happy","1","13","13","YlOrBr","orientDef","scaleDef","270","",""
"","","","","","html-slider-response","104","140181","0.0-98.0","po2dqarmvv","21","NaN","<div style=""width:500px;"">
                            <p style=""font-size:50px; font-weight:bold;""
                            >happy</p>
                            <div style=""width:240px; margin: auto;"">
                                <img src=""images/map26_BrBG_scaleDef_orientMir_270.png"" style= ""width:200px""alt=""img"">
                            </div>
                        </div>","-154","","0","","","","images/map26_BrBG_scaleDef_orientMir_270.png","happy","1","26","26","BrBG","orientMir","scaleDef","270","",""
"","","","","","html-slider-response","105","141489","0.0-99.0","po2dqarmvv","21","NaN","<div style=""width:500px;"">
                            <p style=""font-size:50px; font-weight:bold;""
                            >happy</p>
                            <div style=""width:240px; margin: auto;"">
                                <img src=""images/map07_viridis_scaleDef_orientMir_090.png"" style= ""width:200px""alt=""img"">
                            </div>
                        </div>","-170","","0","","","","images/map07_viridis_scaleDef_orientMir_090.png","happy","1","07","07","viridis","orientMir","scaleDef","090","",""
"","","","","","html-slider-response","106","142624","0.0-100.0","po2dqarmvv","21","NaN","<div style=""width:500px;"">
                            <p style=""font-size:50px; font-weight:bold;""
                            >happy</p>
                            <div style=""width:240px; margin: auto;"">
                                <img src=""images/map15_BuPu_scaleRev_orientMir_180.png"" style= ""width:200px""alt=""img"">
                            </div>
                        </div>","-147","","0","","","","images/map15_BuPu_scaleRev_orientMir_180.png","happy","1","15","15","BuPu","orientMir","scaleRev","180","",""
"","","","","","html-slider-response","107","143696","0.0-101.0","po2dqarmvv","21","NaN","<div style=""width:500px;"">
                            <p style=""font-size:50px; font-weight:bold;""
                            >happy</p>
                            <div style=""width:240px; margin: auto;"">
                                <img src=""images/map05_managua_scaleRev_orientMir_180.png"" style= ""width:200px""alt=""img"">
                            </div>
                        </div>","-169","","0","","","","images/map05_managua_scaleRev_orientMir_180.png","happy","1","05","05","managua","orientMir","scaleRev","180","",""
"","","","","","html-slider-response","108","144936","0.0-102.0","po2dqarmvv","21","NaN","<div style=""width:500px;"">
                            <p style=""font-size:50px; font-weight:bold;""
                            >happy</p>
                            <div style=""width:240px; margin: auto;"">
                                <img src=""images/map15_OrRd_scaleRev_orientDef_000.png"" style= ""width:200px""alt=""img"">
                            </div>
                        </div>","200","","0","","","","images/map15_OrRd_scaleRev_orientDef_000.png","happy","1","15","15","OrRd","orientDef","scaleRev","000","",""
"","","","","","html-slider-response","109","146103","0.0-103.0","po2dqarmvv","21","NaN","<div style=""width:500px;"">
                            <p style=""font-size:50px; font-weight:bold;""
                            >happy</p>
                            <div style=""width:240px; margin: auto;"">
                                <img src=""images/map23_PuBu_scaleDef_orientDef_090.png"" style= ""width:200px""alt=""img"">
                            </div>
                        </div>","-146","","0","","","","images/map23_PuBu_scaleDef_orientDef_090.png","happy","1","23","23","PuBu","orientDef","scaleDef","090","",""
"","","","","","html-slider-response","110","147219","0.0-104.0","po2dqarmvv","21","NaN","<div style=""width:500px;"">
                            <p style=""font-size:50px; font-weight:bold;""
                            >happy</p>
                            <div style=""width:240px; margin: auto;"">
                                <img src=""images/map12_Oranges_scaleDef_orientMir_270.png"" style= ""width:200px""alt=""img"">
                            </div>
                        </div>","184","","0","","","","images/map12_Oranges_scaleDef_orientMir_270.png","happy","1","12","12","Oranges","orientMir","scaleDef","270","",""
"","","","","","html-slider-response","111","148169","0.0-105.0","po2dqarmvv","21","NaN","<div style=""width:500px;"">
                            <p style=""font-size:50px; font-weight:bold;""
                            >happy</p>
                            <div style=""width:240px; margin: auto;"">
                                <img src=""images/map27_RdBu_scaleRev_orientMir_180.png"" style= ""width:200px""alt=""img"">
                            </div>
                        </div>","-176","","0","","","","images/map27_RdBu_scaleRev_orientMir_180.png","happy","1","27","27","RdBu","orientMir","scaleRev","180","",""
"","","","","","html-slider-response","112","149580","0.0-106.0","po2dqarmvv","21","NaN","<div style=""width:500px;"">
                            <p style=""font-size:50px; font-weight:bold;""
                            >happy</p>
                            <div style=""width:240px; margin: auto;"">
                                <img src=""images/map15_PuRd_scaleDef_orientDef_090.png"" style= ""width:200px""alt=""img"">
                            </div>
                        </div>","-142","","0","","","","images/map15_PuRd_scaleDef_orientDef_090.png","happy","1","15","15","PuRd","orientDef","scaleDef","090","",""
"","","","","","html-slider-response","113","150577","0.0-107.0","po2dqarmvv","21","NaN","<div style=""width:500px;"">
                            <p style=""font-size:50px; font-weight:bold;""
                            >happy</p>
                            <div style=""width:240px; margin: auto;"">
                                <img src=""images/map26_YlGn_scaleDef_orientDef_090.png"" style= ""width:200px""alt=""img"">
                            </div>
                        </div>","-184","","0","","","","images/map26_YlGn_scaleDef_orientDef_090.png","happy","1","26","26","YlGn","orientDef","scaleDef","090","",""
"","","","","","html-slider-response","114","151512","0.0-108.0","po2dqarmvv","21","NaN","<div style=""width:500px;"">
                            <p style=""font-size:50px; font-weight:bold;""
                            >happy</p>
                            <div style=""width:240px; margin: auto;"">
                                <img src=""images/map15_RdPu_scaleDef_orientDef_270.png"" style= ""width:200px""alt=""img"">
                            </div>
                        </div>","-194","","0","","","","images/map15_RdPu_scaleDef_orientDef_270.png","happy","1","15","15","RdPu","orientDef","scaleDef","270","",""
"","","","","","html-slider-response","115","152602","0.0-109.0","po2dqarmvv","21","NaN","<div style=""width:500px;"">
                            <p style=""font-size:50px; font-weight:bold;""
                            >happy</p>
                            <div style=""width:240px; margin: auto;"">
                                <img src=""images/map23_PuBuGn_scaleRev_orientMir_180.png"" style= ""width:200px""alt=""img"">
                            </div>
                        </div>","-173","","0","","","","images/map23_PuBuGn_scaleRev_orientMir_180.png","happy","1","23","23","PuBuGn","orientMir","scaleRev","180","",""
"","","","","","html-slider-response","116","153519","0.0-110.0","po2dqarmvv","21","NaN","<div style=""width:500px;"">
                            <p style=""font-size:50px; font-weight:bold;""
                            >happy</p>
                            <div style=""width:240px; margin: auto;"">
                                <img src=""images/map12_Blues_scaleRev_orientMir_000.png"" style= ""width:200px""alt=""img"">
                            </div>
                        </div>","-200","","0","","","","images/map12_Blues_scaleRev_orientMir_000.png","happy","1","12","12","Blues","orientMir","scaleRev","000","",""
"","","","","","html-slider-response","117","154521","0.0-111.0","po2dqarmvv","21","NaN","<div style=""width:500px;"">
                            <p style=""font-size:50px; font-weight:bold;""
                            >happy</p>
                            <div style=""width:240px; margin: auto;"">
                                <img src=""images/map26_PiYG_scaleRev_orientMir_000.png"" style= ""width:200px""alt=""img"">
                            </div>
                        </div>","-200","","0","","","","images/map26_PiYG_scaleRev_orientMir_000.png","happy","1","26","26","PiYG","orientMir","scaleRev","000","",""
"","","","","","html-slider-response","118","155476","0.0-112.0","po2dqarmvv","21","NaN","<div style=""width:500px;"">
                            <p style=""font-size:50px; font-weight:bold;""
                            >happy</p>
                            <div style=""width:240px; margin: auto;"">
                                <img src=""images/map27_RdYlBu_scaleDef_orientMir_270.png"" style= ""width:200px""alt=""img"">
                            </div>
                        </div>","-154","","0","","","","images/map27_RdYlBu_scaleDef_orientMir_270.png","happy","1","27","27","RdYlBu","orientMir","scaleDef","270","",""
"","","","","","html-slider-response","119","156536","0.0-113.0","po2dqarmvv","21","NaN","<div style=""width:500px;"">
                            <p style=""font-size:50px; font-weight:bold;""
                            >happy</p>
                            <div style=""width:240px; margin: auto;"">
                                <img src=""images/map10_cividis_scaleDef_orientMir_090.png"" style= ""width:200px""alt=""img"">
                            </div>
                        </div>","-138","","0","","","","images/map10_cividis_scaleDef_orientMir_090.png","happy","1","10","10","cividis","orientMir","scaleDef","090","",""
"","","","","","html-slider-response","120","157553","0.0-114.0","po2dqarmvv","21","NaN","<div style=""width:500px;"">
                            <p style=""font-size:50px; font-weight:bold;""
                            >happy</p>
                            <div style=""width:240px; margin: auto;"">
                                <img src=""images/map07_turbo_scaleDef_orientDef_270.png"" style= ""width:200px""alt=""img"">
                            </div>
                        </div>","-199","","0","","","","images/map07_turbo_scaleDef_orientDef_270.png","happy","1","07","07","turbo","orientDef","scaleDef","270","",""
"","","","","","html-slider-response","121","158535","0.0-115.0","po2dqarmvv","21","NaN","<div style=""width:500px;"">
                            <p style=""font-size:50px; font-weight:bold;""
                            >happy</p>
                            <div style=""width:240px; margin: auto;"">
                                <img src=""images/map05_seismic_scaleRev_orientDef_180.png"" style= ""width:200px""alt=""img"">
                            </div>
                        </div>","-115","","0","","","","images/map05_seismic_scaleRev_orientDef_180.png","happy","1","05","05","seismic","orientDef","scaleRev","180","",""
"","","","","","html-slider-response","122","159402","0.0-116.0","po2dqarmvv","21","NaN","<div style=""width:500px;"">
                            <p style=""font-size:50px; font-weight:bold;""
                            >happy</p>
                            <div style=""width:240px; margin: auto;"">
                                <img src=""images/map07_plasma_scaleDef_orientMir_270.png"" style= ""width:200px""alt=""img"">
                            </div>
                        </div>","-119","","0","","","","images/map07_plasma_scaleDef_orientMir_270.png","happy","1","07","07","plasma","orientMir","scaleDef","270","",""
"","","","","","html-slider-response","123","160335","0.0-117.0","po2dqarmvv","21","NaN","<div style=""width:500px;"">
                            <p style=""font-size:50px; font-weight:bold;""
                            >happy</p>
                            <div style=""width:240px; margin: auto;"">
                                <img src=""images/map26_PiYG_scaleDef_orientDef_270.png"" style= ""width:200px""alt=""img"">
                            </div>
                        </div>","-131","","0","","","","images/map26_PiYG_scaleDef_orientDef_270.png","happy","1","26","26","PiYG","orientDef","scaleDef","270","",""
"","","","","","html-slider-response","124","161218","0.0-118.0","po2dqarmvv","21","NaN","<div style=""width:500px;"">
                            <p style=""font-size:50px; font-weight:bold;""
                            >happy</p>
                            <div style=""width:240px; margin: auto;"">
                                <img src=""images/map15_PuRd_scaleRev_orientDef_180.png"" style= ""width:200px""alt=""img"">
                            </div>
                        </div>","-153","","0","","","","images/map15_PuRd_scaleRev_orientDef_180.png","happy","1","15","15","PuRd","orientDef","scaleRev","180","",""
"","","","","","html-slider-response","125","162160","0.0-119.0","po2dqarmvv","21","NaN","<div style=""width:500px;"">
                            <p style=""font-size:50px; font-weight:bold;""
                            >happy</p>
                            <div style=""width:240px; margin: auto;"">
                                <img src=""images/map07_turbo_scaleRev_orientMir_000.png"" style= ""width:200px""alt=""img"">
                            </div>
                        </div>","-151","","0","","","","images/map07_turbo_scaleRev_orientMir_000.png","happy","1","07","07","turbo","orientMir","scaleRev","000","",""
"","","","","","html-slider-response","126","165185","0.0-120.0","po2dqarmvv","21","NaN","<div style=""width:500px;"">
                            <p style=""font-size:50px; font-weight:bold;""
                            >happy</p>
                            <div style=""width:240px; margin: auto;"">
                                <img src=""images/map02_RdYlGn_scaleDef_orientDef_090.png"" style= ""width:200px""alt=""img"">
                            </div>
                        </div>","-71","","0","","","","images/map02_RdYlGn_scaleDef_orientDef_090.png","happy","1","02","02","RdYlGn","orientDef","scaleDef","090","",""
"","","","","","html-slider-response","127","166489","0.0-121.0","po2dqarmvv","21","NaN","<div style=""width:500px;"">
                            <p style=""font-size:50px; font-weight:bold;""
                            >happy</p>
                            <div style=""width:240px; margin: auto;"">
                                <img src=""images/map27_RdGy_scaleRev_orientMir_000.png"" style= ""width:200px""alt=""img"">
                            </div>
                        </div>","-146","","0","","","","images/map27_RdGy_scaleRev_orientMir_000.png","happy","1","27","27","RdGy","orientMir","scaleRev","000","",""
"","","","","","html-slider-response","128","167892","0.0-122.0","po2dqarmvv","21","NaN","<div style=""width:500px;"">
                            <p style=""font-size:50px; font-weight:bold;""
                            >happy</p>
                            <div style=""width:240px; margin: auto;"">
                                <img src=""images/map26_PRGn_scaleRev_orientMir_180.png"" style= ""width:200px""alt=""img"">
                            </div>
                        </div>","-86","","0","","","","images/map26_PRGn_scaleRev_orientMir_180.png","happy","1","26","26","PRGn","orientMir","scaleRev","180","",""
"","","","","","html-slider-response","129","169350","0.0-123.0","po2dqarmvv","21","NaN","<div style=""width:500px;"">
                            <p style=""font-size:50px; font-weight:bold;""
                            >happy</p>
                            <div style=""width:240px; margin: auto;"">
                                <img src=""images/map13_YlOrRd_scaleRev_orientMir_180.png"" style= ""width:200px""alt=""img"">
                            </div>
                        </div>","153","","0","","","","images/map13_YlOrRd_scaleRev_orientMir_180.png","happy","1","13","13","YlOrRd","orientMir","scaleRev","180","",""
"","","","","","html-slider-response","130","170455","0.0-124.0","po2dqarmvv","21","NaN","<div style=""width:500px;"">
                            <p style=""font-size:50px; font-weight:bold;""
                            >happy</p>
                            <div style=""width:240px; margin: auto;"">
                                <img src=""images/map07_gist_earth_scaleDef_orientDef_090.png"" style= ""width:200px""alt=""img"">
                            </div>
                        </div>","-120","","0","","","","images/map07_gist_earth_scaleDef_orientDef_090.png","happy","1","07","07","gist","scaleDef","earth","orientDef","",""
"","","","","","html-slider-response","131","171651","0.0-125.0","po2dqarmvv","21","NaN","<div style=""width:500px;"">
                            <p style=""font-size:50px; font-weight:bold;""
                            >happy</p>
                            <div style=""width:240px; margin: auto;"">
                                <img src=""images/map27_RdBu_scaleDef_orientMir_090.png"" style= ""width:200px""alt=""img"">
                            </div>
                        </div>","-122","","0","","","","images/map27_RdBu_scaleDef_orientMir_090.png","happy","1","27","27","RdBu","orientMir","scaleDef","090","",""
"","","","","","html-slider-response","132","172610","0.0-126.0","po2dqarmvv","21","NaN","<div style=""width:500px;"">
                            <p style=""font-size:50px; font-weight:bold;""
                            >happy</p>
                            <div style=""width:240px; margin: auto;"">
                                <img src=""images/map02_RdYlBu_scaleRev_orientDef_000.png"" style= ""width:200px""alt=""img"">
                            </div>
                        </div>","-135","","0","","","","images/map02_RdYlBu_scaleRev_orientDef_000.png","happy","1","02","02","RdYlBu","orientDef","scaleRev","000","",""
"","","","","","html-slider-response","133","173638","0.0-127.0","po2dqarmvv","21","NaN","<div style=""width:500px;"">
                            <p style=""font-size:50px; font-weight:bold;""
                            >happy</p>
                            <div style=""width:240px; margin: auto;"">
                                <img src=""images/map07_vanimo_scaleRev_orientDef_000.png"" style= ""width:200px""alt=""img"">
                            </div>
                        </div>","-150","","0","","","","images/map07_vanimo_scaleRev_orientDef_000.png","happy","1","07","07","vanimo","orientDef","scaleRev","000","",""
"","","","","","html-slider-response","134","174718","0.0-128.0","po2dqarmvv","21","NaN","<div style=""width:500px;"">
                            <p style=""font-size:50px; font-weight:bold;""
                            >happy</p>
                            <div style=""width:240px; margin: auto;"">
                                <img src=""images/map05_berlin_scaleRev_orientMir_000.png"" style= ""width:200px""alt=""img"">
                            </div>
                        </div>","-135","","0","","","","images/map05_berlin_scaleRev_orientMir_000.png","happy","1","05","05","berlin","orientMir","scaleRev","000","",""
"","","","","","html-slider-response","135","175902","0.0-129.0","po2dqarmvv","21","NaN","<div style=""width:500px;"">
                            <p style=""font-size:50px; font-weight:bold;""
                            >happy</p>
                            <div style=""width:240px; margin: auto;"">
                                <img src=""images/map23_PuBu_scaleRev_orientDef_180.png"" style= ""width:200px""alt=""img"">
                            </div>
                        </div>","-148","","0","","","","images/map23_PuBu_scaleRev_orientDef_180.png","happy","1","23","23","PuBu","orientDef","scaleRev","180","",""
"","","","","","html-slider-response","136","176737","0.0-130.0","po2dqarmvv","21","NaN","<div style=""width:500px;"">
                            <p style=""font-size:50px; font-weight:bold;""
                            >happy</p>
                            <div style=""width:240px; margin: auto;"">
                                <img src=""images/map13_OrRd_scaleDef_orientMir_270.png"" style= ""width:200px""alt=""img"">
                            </div>
                        </div>","-160","","0","","","","images/map13_OrRd_scaleDef_orientMir_270.png","happy","1","13","13","OrRd","orientMir","scaleDef","270","",""
"","","","","","html-slider-response","137","177754","0.0-131.0","po2dqarmvv","21","NaN","<div style=""width:500px;"">
                            <p style=""font-size:50px; font-weight:bold;""
                            >happy</p>
                            <div style=""width:240px; margin: auto;"">
                                <img src=""images/map02_bwr_scaleDef_orientMir_270.png"" style= ""width:200px""alt=""img"">
                            </div>
                        </div>","-128","","0","","","","images/map02_bwr_scaleDef_orientMir_270.png","happy","1","02","02","bwr","orientMir","scaleDef","270","",""
"","","","","","html-slider-response","138","179274","0.0-132.0","po2dqarmvv","21","NaN","<div style=""width:500px;"">
                            <p style=""font-size:50px; font-weight:bold;""
                            >happy</p>
                            <div style=""width:240px; margin: auto;"">
                                <img src=""images/map12_Greys_scaleRev_orientDef_000.png"" style= ""width:200px""alt=""img"">
                            </div>
                        </div>","-112","","0","","","","images/map12_Greys_scaleRev_orientDef_000.png","happy","1","12","12","Greys","orientDef","scaleRev","000","",""
"","","","","","html-slider-response","139","180461","0.0-133.0","po2dqarmvv","21","NaN","<div style=""width:500px;"">
                            <p style=""font-size:50px; font-weight:bold;""
                            >happy</p>
                            <div style=""width:240px; margin: auto;"">
                                <img src=""images/map15_GnBu_scaleDef_orientMir_270.png"" style= ""width:200px""alt=""img"">
                            </div>
                        </div>","-146","","0","","","","images/map15_GnBu_scaleDef_orientMir_270.png","happy","1","15","15","GnBu","orientMir","scaleDef","270","",""
"","","","","","html-slider-response","140","181569","0.0-134.0","po2dqarmvv","21","NaN","<div style=""width:500px;"">
                            <p style=""font-size:50px; font-weight:bold;""
                            >happy</p>
                            <div style=""width:240px; margin: auto;"">
                                <img src=""images/map27_PuOr_scaleRev_orientDef_180.png"" style= ""width:200px""alt=""img"">
                            </div>
                        </div>","-200","","0","","","","images/map27_PuOr_scaleRev_orientDef_180.png","happy","1","27","27","PuOr","orientDef","scaleRev","180","",""
"","","","","","html-slider-response","141","182617","0.0-135.0","po2dqarmvv","21","NaN","<div style=""width:500px;"">
                            <p style=""font-size:50px; font-weight:bold;""
                            >happy</p>
                            <div style=""width:240px; margin: auto;"">
                                <img src=""images/map15_BuPu_scaleDef_orientMir_090.png"" style= ""width:200px""alt=""img"">
                            </div>
                        </div>","-188","","0","","","","images/map15_BuPu_scaleDef_orientMir_090.png","happy","1","15","15","BuPu","orientMir","scaleDef","090","",""
"","","","","","html-slider-response","142","183896","0.0-136.0","po2dqarmvv","21","NaN","<div style=""width:500px;"">
                            <p style=""font-size:50px; font-weight:bold;""
                            >happy</p>
                            <div style=""width:240px; margin: auto;"">
                                <img src=""images/map13_Reds_scaleRev_orientDef_180.png"" style= ""width:200px""alt=""img"">
                            </div>
                        </div>","190","","0","","","","images/map13_Reds_scaleRev_orientDef_180.png","happy","1","13","13","Reds","orientDef","scaleRev","180","",""
"","","","","","html-button-response","143","186122","0.0-137.0","po2dqarmvv","21","1722","<p>You are doing great!<br></br> You are halway done with the current block. When you are ready to continue, click the 'Continue' button.</p>","0","","","","","","","","","","","","","","","",""
"","","","","","html-slider-response","144","187005","0.0-138.0","po2dqarmvv","21","NaN","<div style=""width:500px;"">
                            <p style=""font-size:50px; font-weight:bold;""
                            >happy</p>
                            <div style=""width:240px; margin: auto;"">
                                <img src=""images/map12_Blues_scaleDef_orientDef_270.png"" style= ""width:200px""alt=""img"">
                            </div>
                        </div>","-200","","0","","","","images/map12_Blues_scaleDef_orientDef_270.png","happy","1","12","12","Blues","orientDef","scaleDef","270","",""
"","","","","","html-slider-response","145","188484","0.0-139.0","po2dqarmvv","21","NaN","<div style=""width:500px;"">
                            <p style=""font-size:50px; font-weight:bold;""
                            >happy</p>
                            <div style=""width:240px; margin: auto;"">
                                <img src=""images/map27_BrBG_scaleRev_orientDef_000.png"" style= ""width:200px""alt=""img"">
                            </div>
                        </div>","-174","","0","","","","images/map27_BrBG_scaleRev_orientDef_000.png","happy","1","27","27","BrBG","orientDef","scaleRev","000","",""
"","","","","","html-slider-response","146","189487","0.0-140.0","po2dqarmvv","21","NaN","<div style=""width:500px;"">
                            <p style=""font-size:50px; font-weight:bold;""
                            >happy</p>
                            <div style=""width:240px; margin: auto;"">
                                <img src=""images/map02_coolwarm_scaleDef_orientMir_090.png"" style= ""width:200px""alt=""img"">
                            </div>
                        </div>","-200","","0","","","","images/map02_coolwarm_scaleDef_orientMir_090.png","happy","1","02","02","coolwarm","orientMir","scaleDef","090","",""
"","","","","","html-slider-response","147","190500","0.0-141.0","po2dqarmvv","21","NaN","<div style=""width:500px;"">
                            <p style=""font-size:50px; font-weight:bold;""
                            >happy</p>
                            <div style=""width:240px; margin: auto;"">
                                <img src=""images/map12_Purples_scaleRev_orientDef_180.png"" style= ""width:200px""alt=""img"">
                            </div>
                        </div>","-190","","0","","","","images/map12_Purples_scaleRev_orientDef_180.png","happy","1","12","12","Purples","orientDef","scaleRev","180","",""
"","","","","","html-slider-response","148","191588","0.0-142.0","po2dqarmvv","21","NaN","<div style=""width:500px;"">
                            <p style=""font-size:50px; font-weight:bold;""
                            >happy</p>
                            <div style=""width:240px; margin: auto;"">
                                <img src=""images/map23_PuBuGn_scaleDef_orientMir_090.png"" style= ""width:200px""alt=""img"">
                            </div>
                        </div>","-169","","0","","","","images/map23_PuBuGn_scaleDef_orientMir_090.png","happy","1","23","23","PuBuGn","orientMir","scaleDef","090","",""
"","","","","","html-slider-response","149","192706","0.0-143.0","po2dqarmvv","21","NaN","<div style=""width:500px;"">
                            <p style=""font-size:50px; font-weight:bold;""
                            >happy</p>
                            <div style=""width:240px; margin: auto;"">
                                <img src=""images/map05_seismic_scaleDef_orientDef_090.png"" style= ""width:200px""alt=""img"">
                            </div>
                        </div>","-198","","0","","","","images/map05_seismic_scaleDef_orientDef_090.png","happy","1","05","05","seismic","orientDef","scaleDef","090","",""
"","","","","","html-slider-response","150","194129","0.0-144.0","po2dqarmvv","21","NaN","<div style=""width:500px;"">
                            <p style=""font-size:50px; font-weight:bold;""
                            >happy</p>
                            <div style=""width:240px; margin: auto;"">
                                <img src=""images/map13_YlOrRd_scaleDef_orientMir_090.png"" style= ""width:200px""alt=""img"">
                            </div>
                        </div>","194","","0","","","","images/map13_YlOrRd_scaleDef_orientMir_090.png","happy","1","13","13","YlOrRd","orientMir","scaleDef","090","",""
"","","","","","html-slider-response","151","195173","0.0-145.0","po2dqarmvv","21","NaN","<div style=""width:500px;"">
                            <p style=""font-size:50px; font-weight:bold;""
                            >happy</p>
                            <div style=""width:240px; margin: auto;"">
                                <img src=""images/map05_managua_scaleDef_orientMir_090.png"" style= ""width:200px""alt=""img"">
                            </div>
                        </div>","-200","","0","","","","images/map05_managua_scaleDef_orientMir_090.png","happy","1","05","05","managua","orientMir","scaleDef","090","",""
"","","","","","html-slider-response","152","196188","0.0-146.0","po2dqarmvv","21","NaN","<div style=""width:500px;"">
                            <p style=""font-size:50px; font-weight:bold;""
                            >happy</p>
                            <div style=""width:240px; margin: auto;"">
                                <img src=""images/map07_gist_earth_scaleRev_orientDef_180.png"" style= ""width:200px""alt=""img"">
                            </div>
                        </div>","-200","","0","","","","images/map07_gist_earth_scaleRev_orientDef_180.png","happy","1","07","07","gist","scaleRev","earth","orientDef","",""
"","","","","","html-slider-response","153","197350","0.0-147.0","po2dqarmvv","21","NaN","<div style=""width:500px;"">
                            <p style=""font-size:50px; font-weight:bold;""
                            >happy</p>
                            <div style=""width:240px; margin: auto;"">
                                <img src=""images/map27_RdGy_scaleDef_orientDef_270.png"" style= ""width:200px""alt=""img"">
                            </div>
                        </div>","-200","","0","","","","images/map27_RdGy_scaleDef_orientDef_270.png","happy","1","27","27","RdGy","orientDef","scaleDef","270","",""
"","","","","","html-slider-response","154","198356","0.0-148.0","po2dqarmvv","21","NaN","<div style=""width:500px;"">
                            <p style=""font-size:50px; font-weight:bold;""
                            >happy</p>
                            <div style=""width:240px; margin: auto;"">
                                <img src=""images/map10_magma_scaleDef_orientDef_270.png"" style= ""width:200px""alt=""img"">
                            </div>
                        </div>","-200","","0","","","","images/map10_magma_scaleDef_orientDef_270.png","happy","1","10","10","magma","orientDef","scaleDef","270","",""
"","","","","","html-slider-response","155","199522","0.0-149.0","po2dqarmvv","21","NaN","<div style=""width:500px;"">
                            <p style=""font-size:50px; font-weight:bold;""
                            >happy</p>
                            <div style=""width:240px; margin: auto;"">
                                <img src=""images/map02_Spectral_scaleDef_orientDef_270.png"" style= ""width:200px""alt=""img"">
                            </div>
                        </div>","-200","","0","","","","images/map02_Spectral_scaleDef_orientDef_270.png","happy","1","02","02","Spectral","orientDef","scaleDef","270","",""
"","","","","","html-slider-response","156","200506","0.0-150.0","po2dqarmvv","21","NaN","<div style=""width:500px;"">
                            <p style=""font-size:50px; font-weight:bold;""
                            >happy</p>
                            <div style=""width:240px; margin: auto;"">
                                <img src=""images/map07_viridis_scaleRev_orientMir_180.png"" style= ""width:200px""alt=""img"">
                            </div>
                        </div>","-200","","0","","","","images/map07_viridis_scaleRev_orientMir_180.png","happy","1","07","07","viridis","orientMir","scaleRev","180","",""
"","","","","","html-slider-response","157","201533","0.0-151.0","po2dqarmvv","21","NaN","<div style=""width:500px;"">
                            <p style=""font-size:50px; font-weight:bold;""
                            >happy</p>
                            <div style=""width:240px; margin: auto;"">
                                <img src=""images/map10_cividis_scaleRev_orientMir_180.png"" style= ""width:200px""alt=""img"">
                            </div>
                        </div>","-170","","0","","","","images/map10_cividis_scaleRev_orientMir_180.png","happy","1","10","10","cividis","orientMir","scaleRev","180","",""
"","","","","","html-slider-response","158","202753","0.0-152.0","po2dqarmvv","21","NaN","<div style=""width:500px;"">
                            <p style=""font-size:50px; font-weight:bold;""
                            >happy</p>
                            <div style=""width:240px; margin: auto;"">
                                <img src=""images/map10_plasma_scaleRev_orientDef_000.png"" style= ""width:200px""alt=""img"">
                            </div>
                        </div>","-167","","0","","","","images/map10_plasma_scaleRev_orientDef_000.png","happy","1","10","10","plasma","orientDef","scaleRev","000","",""
"","","","","","html-slider-response","159","203688","0.0-153.0","po2dqarmvv","21","NaN","<div style=""width:500px;"">
                            <p style=""font-size:50px; font-weight:bold;""
                            >happy</p>
                            <div style=""width:240px; margin: auto;"">
