"success","timeout","failed_images","failed_audio","failed_video","trial_type","trial_index","time_elapsed","internal_node_id","subject_id","condition_num","rt","stimulus","response","question_order","slider_start","practiceTrial","practiceTrialNum","correct","image_path","concept","repetition","map_id","map_num","scale_name","orientation_code","mapping_code","rotation_code","ishihara_plate","correct_response"
"true","false","[]","[]","[]","preload","0","2416","0.0-0.0","qq53fj4u3q","17","","","","","","","","","","","","","","","","","","",""
"","","","","","html-button-response","1","11223","0.0-1.0","qq53fj4u3q","17","8804","Welcome to our experiment!<p>At the bottom of this screen, you will see a button that says ""Begin Experiment"".<br>Please only click that button when you are ready to complete the 30 minute experiment in one sitting.</p><p> Once you click that button, it will not be possible to restart the experiment.","0","","","","","","","","","","","","","","","",""
"true","","","","","fullscreen","2","20407","0.0-2.0","qq53fj4u3q","17","8181","","","","","","","","","","","","","","","","","",""
"","","","","","survey-multi-select","3","25242","0.0-3.0","qq53fj4u3q","17","4831","","{""Consent"":[""<strong>I consent</strong>""]}","[0]","","","","","","","","","","","","","","",""
"","","","","","html-button-response","4","28088","0.0-4.0","qq53fj4u3q","17","2844","Welcome! <p> This experiment involves two parts: demographic information, followed by the experimental task.<p> It will take about 30 minutes to complete both parts.","0","","","","","","","","","","","","","","","",""
"","","","","","survey-text","5","41458","0.0-5.0","qq53fj4u3q","17","13358","","{""Age"":""19"",""Gender"":""Female"",""Race/ethnicity"":""White"",""Languages"":""English\nA bit of Spanish""}","","","","","","","","","","","","","","","",""
"","","","","","html-slider-response","6","83923","0.0-6.0","qq53fj4u3q","17","42461","<div style='text-align:left; font-size:20px; line-height:25px; width: 1000px;'>
                                During this experiment you will be asked to rate how much you associate maps with                    different concepts.<br> Below, you can see some examples of the maps you will be asked to rate. Above the maps
                    is the list of concepts.<br>You will be asked                    to rate how much you associate each map with each concept on a scale from 'not at all' to 'very much' like the
                    one below. <br><br>
                    Now, please look at the list of concepts and maps. For each concept, think about the map you associate 'very
                    much' with the concept.<br>                     When you see that map during the experiment, please rate it near the 'very much' endpoint of the
                    scale.<br>Now, please think about which map you associate 'not at all'                     with each concept. When you see that map during the experiment, please rate it near the 'not at all' endpoint
                    of the scale.<br>
                    Please use the full range of the scale. That is, if a map is somewhat associated with the concept, you would
                    click partway between the middle point and right side of the scale.                    You will be asked to rate each map for a given concept before moving on to the next concept.<br>Press the
                    'Continue' button for instructions on how to use the slider.                    <br>
                </div>

                <div style=""width: 500px; margin: 0 auto;"">
                    <!-- Centered text paragraphs -->
                    <div style=""text-align: center; width: 500px;"">
                        <p style=""font-size:25px; line-height:15px;"">
                            fearful&nbsp;&nbsp;&nbsp;&nbsp;
                            happy&nbsp;&nbsp;&nbsp;&nbsp;
                            disgust&nbsp;&nbsp;&nbsp;&nbsp;
                            angry&nbsp;&nbsp;&nbsp;&nbsp;
                            sad
                        </p>
                        <!-- <p style=""font-size:20px; line-height:15px;"">happy</p>
                        <p style=""font-size:20px;line-height:15px;"">disgust</p>
                        <p style=""font-size:20px;line-height:15px;"">angry</p>
                        <p style=""font-size:20px;line-height:15px;"">sad</p> -->
                    </div>
            

                    <!-- Grid section -->
                   <div style=""display: flex; justify-content: center; padding-top: 15px;"">
                    <div style=""display: grid; grid-template-columns: repeat(10, 55px); grid-gap: 5px; width: auto;"">
                        <img src=""images/map26_PRGn_scaleRev_orientDef_180.png"" alt=""map"" style=""width: 100%;""><img src=""images/map10_magma_scaleRev_orientDef_000.png"" alt=""map"" style=""width: 100%;""><img src=""images/map23_PuBuGn_scaleRev_orientDef_180.png"" alt=""map"" style=""width: 100%;""><img src=""images/map15_PuBu_scaleRev_orientMir_180.png"" alt=""map"" style=""width: 100%;""><img src=""images/map15_GnBu_scaleRev_orientMir_000.png"" alt=""map"" style=""width: 100%;""><img src=""images/map05_vanimo_scaleDef_orientDef_270.png"" alt=""map"" style=""width: 100%;""><img src=""images/map02_coolwarm_scaleDef_orientDef_090.png"" alt=""map"" style=""width: 100%;""><img src=""images/map05_berlin_scaleRev_orientDef_000.png"" alt=""map"" style=""width: 100%;""><img src=""images/map27_RdGy_scaleRev_orientDef_000.png"" alt=""map"" style=""width: 100%;""><img src=""images/map05_gist_earth_scaleDef_orientMir_090.png"" alt=""map"" style=""width: 100%;""><img src=""images/map07_turbo_scaleRev_orientDef_000.png"" alt=""map"" style=""width: 100%;""><img src=""images/map26_BrBG_scaleDef_orientDef_270.png"" alt=""map"" style=""width: 100%;""><img src=""images/map10_Greys_scaleRev_orientMir_000.png"" alt=""map"" style=""width: 100%;""><img src=""images/map23_YlGn_scaleDef_orientMir_090.png"" alt=""map"" style=""width: 100%;""><img src=""images/map02_seismic_scaleDef_orientMir_090.png"" alt=""map"" style=""width: 100%;""><img src=""images/map10_cividis_scaleRev_orientDef_180.png"" alt=""map"" style=""width: 100%;""><img src=""images/map12_YlOrBr_scaleDef_orientMir_270.png"" alt=""map"" style=""width: 100%;""><img src=""images/map13_PuRd_scaleDef_orientMir_090.png"" alt=""map"" style=""width: 100%;""><img src=""images/map05_managua_scaleDef_orientDef_090.png"" alt=""map"" style=""width: 100%;""><img src=""images/map02_bwr_scaleRev_orientMir_000.png"" alt=""map"" style=""width: 100%;""><img src=""images/map12_Oranges_scaleDef_orientDef_270.png"" alt=""map"" style=""width: 100%;""><img src=""images/map07_inferno_scaleDef_orientMir_090.png"" alt=""map"" style=""width: 100%;""><img src=""images/map27_RdBu_scaleRev_orientDef_180.png"" alt=""map"" style=""width: 100%;""><img src=""images/map12_Greens_scaleRev_orientDef_180.png"" alt=""map"" style=""width: 100%;""><img src=""images/map26_PiYG_scaleRev_orientDef_000.png"" alt=""map"" style=""width: 100%;""><img src=""images/map12_Blues_scaleRev_orientDef_000.png"" alt=""map"" style=""width: 100%;""><img src=""images/map12_Reds_scaleDef_orientMir_090.png"" alt=""map"" style=""width: 100%;""><img src=""images/map15_BuPu_scaleRev_orientDef_180.png"" alt=""map"" style=""width: 100%;""><img src=""images/map10_Purples_scaleDef_orientMir_090.png"" alt=""map"" style=""width: 100%;""><img src=""images/map13_YlOrRd_scaleDef_orientDef_090.png"" alt=""map"" style=""width: 100%;""><img src=""images/map27_RdYlBu_scaleDef_orientDef_270.png"" alt=""map"" style=""width: 100%;""><img src=""images/map27_RdYlGn_scaleRev_orientMir_180.png"" alt=""map"" style=""width: 100%;""><img src=""images/map23_YlGnBu_scaleRev_orientDef_000.png"" alt=""map"" style=""width: 100%;""><img src=""images/map02_Spectral_scaleRev_orientDef_000.png"" alt=""map"" style=""width: 100%;""><img src=""images/map13_OrRd_scaleDef_orientDef_270.png"" alt=""map"" style=""width: 100%;""><img src=""images/map26_PuOr_scaleRev_orientMir_180.png"" alt=""map"" style=""width: 100%;""><img src=""images/map23_BuGn_scaleDef_orientDef_270.png"" alt=""map"" style=""width: 100%;""><img src=""images/map15_RdPu_scaleRev_orientDef_000.png"" alt=""map"" style=""width: 100%;""><img src=""images/map07_plasma_scaleDef_orientDef_270.png"" alt=""map"" style=""width: 100%;""><img src=""images/map07_viridis_scaleRev_orientDef_180.png"" alt=""map"" style=""width: 100%;"">
                    </div>
                </div>

                    <!-- Clear floats -->
                    <div style=""clear: both;""></div>
                </div>
                            ","-16","","0","true","","","","","","","","","","","","",""
"","","","","","html-button-response","7","85805","0.0-7.0","qq53fj4u3q","17","1881","<div style=""width:800px;""><p style=""text-align:left"">To move the slider, click and drag your cursor to the location of the scale where you would like to make your rating and then let go. When you let go of the slider, your response will be recorded and the next trial will begin. <br>
                    We are interested in your initial impressions of each map for the given concept, so please go with your first intuition. <br>
                    Before you begin the experiment, there will be four training trials for you to practice using the scale. <br>
                     When you are ready to start the training trials, please click ""Continue"".</p><br></div>","0","","","","","","","","","","","","","","","",""
"","","","","","html-slider-response","8","87998","0.0-8.0-0.0","qq53fj4u3q","17","NaN","<div style=""width:500px;"">
                                    <p style=""font-size:25px;"">Please move the slider all the way to the <br> right endpoint of the scale</p>

                                    </div>
                                </div>","200","","0","true","0","true","","","","","","","","","","",""
"","","","","","html-button-response","9","89254","0.0-8.0-1.0","qq53fj4u3q","17","754","<p align='center'><b>Good job!</b> Click on 'Continue' to proceed.</p>","0","","","","","","","","","","","","","","","",""
"","","","","","html-slider-response","10","91198","0.0-9.0-0.0","qq53fj4u3q","17","NaN","<div style=""width:500px;"">
                                    <p style=""font-size:25px;"">Please move the slider all the way to the <br> left endpoint of the scale</p>

                                    </div>
                                </div>","-200","","0","true","1","true","","","","","","","","","","",""
"","","","","","html-button-response","11","92389","0.0-9.0-1.0","qq53fj4u3q","17","689","<p align='center'><b>Good job!</b> Click on 'Continue' to proceed.</p>","0","","","","","","","","","","","","","","","",""
"","","","","","html-slider-response","12","95100","0.0-10.0-0.0","qq53fj4u3q","17","NaN","<div style=""width:500px;"">
                                    <p style=""font-size:25px;"">Please move the slider halfway between the center and right endpoint of the scale</p>

                                    </div>
                                </div>","106","","0","true","2","true","","","","","","","","","","",""
"","","","","","html-button-response","13","96255","0.0-10.0-1.0","qq53fj4u3q","17","653","<p align='center'><b>Good job!</b> Click on 'Continue' to proceed.</p>","0","","","","","","","","","","","","","","","",""
"","","","","","html-slider-response","14","97698","0.0-11.0-0.0","qq53fj4u3q","17","NaN","<div style=""width:500px;"">
                                    <p style=""font-size:25px;"">Please move the slider halfway between the center and left endpoint of the scale</p>

                                    </div>
                                </div>","-100","","0","true","3","true","","","","","","","","","","",""
"","","","","","html-button-response","15","98820","0.0-11.0-1.0","qq53fj4u3q","17","620","<p align='center'><b>Good job!</b> Click on 'Continue' to proceed.</p>","0","","","","","","","","","","","","","","","",""
"","","","","","html-button-response","16","99753","0.0-12.0","qq53fj4u3q","17","932","<p>Great job! You've completed the practice trials. Now you will begin the main task.</p>","0","","","","","","","","","","","","","","","",""
"","","","","","html-button-response","17","102488","0.0-13.0","qq53fj4u3q","17","2734","<p>In this block of trials, you will be asked to rate how much you associate each map with:</p > <p style = 'font-size:150%; font-weight: bold'>fearful</p><br></br>","0","","","","","","","","","","","","","","","",""
"","","","","","html-slider-response","18","104665","0.0-14.0","qq53fj4u3q","17","NaN","<div style=""width:500px;"">
                            <p style=""font-size:50px; font-weight:bold;""
                            >fearful</p>
                            <div style=""width:240px; margin: auto;"">
                                <img src=""images/map13_PuRd_scaleDef_orientMir_090.png"" style= ""width:200px""alt=""img"">
                            </div>
                        </div>","68","","0","","","","images/map13_PuRd_scaleDef_orientMir_090.png","fearful","1","13","13","PuRd","orientMir","scaleDef","090","",""
"","","","","","html-slider-response","19","109747","0.0-15.0","qq53fj4u3q","17","NaN","<div style=""width:500px;"">
                            <p style=""font-size:50px; font-weight:bold;""
                            >fearful</p>
                            <div style=""width:240px; margin: auto;"">
                                <img src=""images/map05_gist_earth_scaleDef_orientMir_090.png"" style= ""width:200px""alt=""img"">
                            </div>
                        </div>","54","","0","","","","images/map05_gist_earth_scaleDef_orientMir_090.png","fearful","1","05","05","gist","scaleDef","earth","orientMir","",""
"","","","","","html-slider-response","20","115364","0.0-16.0","qq53fj4u3q","17","NaN","<div style=""width:500px;"">
                            <p style=""font-size:50px; font-weight:bold;""
                            >fearful</p>
                            <div style=""width:240px; margin: auto;"">
                                <img src=""images/map26_RdGy_scaleDef_orientMir_270.png"" style= ""width:200px""alt=""img"">
                            </div>
                        </div>","50","","0","","","","images/map26_RdGy_scaleDef_orientMir_270.png","fearful","1","26","26","RdGy","orientMir","scaleDef","270","",""
"","","","","","html-slider-response","21","117164","0.0-17.0","qq53fj4u3q","17","NaN","<div style=""width:500px;"">
                            <p style=""font-size:50px; font-weight:bold;""
                            >fearful</p>
                            <div style=""width:240px; margin: auto;"">
                                <img src=""images/map07_viridis_scaleDef_orientDef_090.png"" style= ""width:200px""alt=""img"">
                            </div>
                        </div>","-58","","0","","","","images/map07_viridis_scaleDef_orientDef_090.png","fearful","1","07","07","viridis","orientDef","scaleDef","090","",""
"","","","","","html-slider-response","22","118981","0.0-18.0","qq53fj4u3q","17","NaN","<div style=""width:500px;"">
                            <p style=""font-size:50px; font-weight:bold;""
                            >fearful</p>
                            <div style=""width:240px; margin: auto;"">
                                <img src=""images/map02_coolwarm_scaleDef_orientDef_090.png"" style= ""width:200px""alt=""img"">
                            </div>
                        </div>","-71","","0","","","","images/map02_coolwarm_scaleDef_orientDef_090.png","fearful","1","02","02","coolwarm","orientDef","scaleDef","090","",""
"","","","","","html-slider-response","23","121347","0.0-19.0","qq53fj4u3q","17","NaN","<div style=""width:500px;"">
                            <p style=""font-size:50px; font-weight:bold;""
                            >fearful</p>
                            <div style=""width:240px; margin: auto;"">
                                <img src=""images/map10_Greys_scaleDef_orientDef_270.png"" style= ""width:200px""alt=""img"">
                            </div>
                        </div>","42","","0","","","","images/map10_Greys_scaleDef_orientDef_270.png","fearful","1","10","10","Greys","orientDef","scaleDef","270","",""
"","","","","","html-slider-response","24","123130","0.0-20.0","qq53fj4u3q","17","NaN","<div style=""width:500px;"">
                            <p style=""font-size:50px; font-weight:bold;""
                            >fearful</p>
                            <div style=""width:240px; margin: auto;"">
                                <img src=""images/map27_RdGy_scaleRev_orientDef_000.png"" style= ""width:200px""alt=""img"">
                            </div>
                        </div>","29","","0","","","","images/map27_RdGy_scaleRev_orientDef_000.png","fearful","1","27","27","RdGy","orientDef","scaleRev","000","",""
"","","","","","html-slider-response","25","125397","0.0-21.0","qq53fj4u3q","17","NaN","<div style=""width:500px;"">
                            <p style=""font-size:50px; font-weight:bold;""
                            >fearful</p>
                            <div style=""width:240px; margin: auto;"">
                                <img src=""images/map12_Oranges_scaleDef_orientDef_270.png"" style= ""width:200px""alt=""img"">
                            </div>
                        </div>","54","","0","","","","images/map12_Oranges_scaleDef_orientDef_270.png","fearful","1","12","12","Oranges","orientDef","scaleDef","270","",""
"","","","","","html-slider-response","26","127214","0.0-22.0","qq53fj4u3q","17","NaN","<div style=""width:500px;"">
                            <p style=""font-size:50px; font-weight:bold;""
                            >fearful</p>
                            <div style=""width:240px; margin: auto;"">
                                <img src=""images/map15_YlGnBu_scaleDef_orientMir_270.png"" style= ""width:200px""alt=""img"">
                            </div>
                        </div>","-24","","0","","","","images/map15_YlGnBu_scaleDef_orientMir_270.png","fearful","1","15","15","YlGnBu","orientMir","scaleDef","270","",""
"","","","","","html-slider-response","27","129048","0.0-23.0","qq53fj4u3q","17","NaN","<div style=""width:500px;"">
                            <p style=""font-size:50px; font-weight:bold;""
                            >fearful</p>
                            <div style=""width:240px; margin: auto;"">
                                <img src=""images/map12_YlOrBr_scaleDef_orientMir_270.png"" style= ""width:200px""alt=""img"">
                            </div>
                        </div>","42","","0","","","","images/map12_YlOrBr_scaleDef_orientMir_270.png","fearful","1","12","12","YlOrBr","orientMir","scaleDef","270","",""
"","","","","","html-slider-response","28","131016","0.0-24.0","qq53fj4u3q","17","NaN","<div style=""width:500px;"">
                            <p style=""font-size:50px; font-weight:bold;""
                            >fearful</p>
                            <div style=""width:240px; margin: auto;"">
                                <img src=""images/map15_BuPu_scaleRev_orientDef_180.png"" style= ""width:200px""alt=""img"">
                            </div>
                        </div>","71","","0","","","","images/map15_BuPu_scaleRev_orientDef_180.png","fearful","1","15","15","BuPu","orientDef","scaleRev","180","",""
"","","","","","html-slider-response","29","133197","0.0-25.0","qq53fj4u3q","17","NaN","<div style=""width:500px;"">
                            <p style=""font-size:50px; font-weight:bold;""
                            >fearful</p>
                            <div style=""width:240px; margin: auto;"">
                                <img src=""images/map07_inferno_scaleRev_orientMir_180.png"" style= ""width:200px""alt=""img"">
                            </div>
                        </div>","91","","0","","","","images/map07_inferno_scaleRev_orientMir_180.png","fearful","1","07","07","inferno","orientMir","scaleRev","180","",""
"","","","","","html-slider-response","30","134880","0.0-26.0","qq53fj4u3q","17","NaN","<div style=""width:500px;"">
                            <p style=""font-size:50px; font-weight:bold;""
                            >fearful</p>
                            <div style=""width:240px; margin: auto;"">
                                <img src=""images/map15_PuBu_scaleRev_orientMir_180.png"" style= ""width:200px""alt=""img"">
                            </div>
                        </div>","-35","","0","","","","images/map15_PuBu_scaleRev_orientMir_180.png","fearful","1","15","15","PuBu","orientMir","scaleRev","180","",""
"","","","","","html-slider-response","31","136997","0.0-27.0","qq53fj4u3q","17","NaN","<div style=""width:500px;"">
                            <p style=""font-size:50px; font-weight:bold;""
                            >fearful</p>
                            <div style=""width:240px; margin: auto;"">
                                <img src=""images/map02_bwr_scaleDef_orientDef_270.png"" style= ""width:200px""alt=""img"">
                            </div>
                        </div>","-52","","0","","","","images/map02_bwr_scaleDef_orientDef_270.png","fearful","1","02","02","bwr","orientDef","scaleDef","270","",""
"","","","","","html-slider-response","32","138664","0.0-28.0","qq53fj4u3q","17","NaN","<div style=""width:500px;"">
                            <p style=""font-size:50px; font-weight:bold;""
                            >fearful</p>
                            <div style=""width:240px; margin: auto;"">
                                <img src=""images/map15_RdPu_scaleRev_orientDef_000.png"" style= ""width:200px""alt=""img"">
                            </div>
                        </div>","-34","","0","","","","images/map15_RdPu_scaleRev_orientDef_000.png","fearful","1","15","15","RdPu","orientDef","scaleRev","000","",""
"","","","","","html-slider-response","33","140383","0.0-29.0","qq53fj4u3q","17","NaN","<div style=""width:500px;"">
                            <p style=""font-size:50px; font-weight:bold;""
                            >fearful</p>
                            <div style=""width:240px; margin: auto;"">
                                <img src=""images/map23_BuGn_scaleRev_orientMir_000.png"" style= ""width:200px""alt=""img"">
                            </div>
                        </div>","-17","","0","","","","images/map23_BuGn_scaleRev_orientMir_000.png","fearful","1","23","23","BuGn","orientMir","scaleRev","000","",""
"","","","","","html-slider-response","34","142014","0.0-30.0","qq53fj4u3q","17","NaN","<div style=""width:500px;"">
                            <p style=""font-size:50px; font-weight:bold;""
                            >fearful</p>
                            <div style=""width:240px; margin: auto;"">
                                <img src=""images/map10_Greys_scaleRev_orientMir_000.png"" style= ""width:200px""alt=""img"">
                            </div>
                        </div>","77","","0","","","","images/map10_Greys_scaleRev_orientMir_000.png","fearful","1","10","10","Greys","orientMir","scaleRev","000","",""
"","","","","","html-slider-response","35","144915","0.0-31.0","qq53fj4u3q","17","NaN","<div style=""width:500px;"">
                            <p style=""font-size:50px; font-weight:bold;""
                            >fearful</p>
                            <div style=""width:240px; margin: auto;"">
                                <img src=""images/map23_YlGn_scaleDef_orientMir_090.png"" style= ""width:200px""alt=""img"">
                            </div>
                        </div>","43","","0","","","","images/map23_YlGn_scaleDef_orientMir_090.png","fearful","1","23","23","YlGn","orientMir","scaleDef","090","",""
"","","","","","html-slider-response","36","146582","0.0-32.0","qq53fj4u3q","17","NaN","<div style=""width:500px;"">
                            <p style=""font-size:50px; font-weight:bold;""
                            >fearful</p>
                            <div style=""width:240px; margin: auto;"">
                                <img src=""images/map05_berlin_scaleRev_orientDef_000.png"" style= ""width:200px""alt=""img"">
                            </div>
                        </div>","96","","0","","","","images/map05_berlin_scaleRev_orientDef_000.png","fearful","1","05","05","berlin","orientDef","scaleRev","000","",""
"","","","","","html-slider-response","37","148263","0.0-33.0","qq53fj4u3q","17","NaN","<div style=""width:500px;"">
                            <p style=""font-size:50px; font-weight:bold;""
                            >fearful</p>
                            <div style=""width:240px; margin: auto;"">
                                <img src=""images/map26_BrBG_scaleDef_orientDef_270.png"" style= ""width:200px""alt=""img"">
                            </div>
                        </div>","37","","0","","","","images/map26_BrBG_scaleDef_orientDef_270.png","fearful","1","26","26","BrBG","orientDef","scaleDef","270","",""
"","","","","","html-slider-response","38","149950","0.0-34.0","qq53fj4u3q","17","NaN","<div style=""width:500px;"">
                            <p style=""font-size:50px; font-weight:bold;""
                            >fearful</p>
                            <div style=""width:240px; margin: auto;"">
                                <img src=""images/map07_viridis_scaleRev_orientDef_180.png"" style= ""width:200px""alt=""img"">
                            </div>
                        </div>","-24","","0","","","","images/map07_viridis_scaleRev_orientDef_180.png","fearful","1","07","07","viridis","orientDef","scaleRev","180","",""
"","","","","","html-slider-response","39","151765","0.0-35.0","qq53fj4u3q","17","NaN","<div style=""width:500px;"">
                            <p style=""font-size:50px; font-weight:bold;""
                            >fearful</p>
                            <div style=""width:240px; margin: auto;"">
                                <img src=""images/map27_RdBu_scaleDef_orientDef_090.png"" style= ""width:200px""alt=""img"">
                            </div>
                        </div>","-47","","0","","","","images/map27_RdBu_scaleDef_orientDef_090.png","fearful","1","27","27","RdBu","orientDef","scaleDef","090","",""
"","","","","","html-slider-response","40","153480","0.0-36.0","qq53fj4u3q","17","NaN","<div style=""width:500px;"">
                            <p style=""font-size:50px; font-weight:bold;""
                            >fearful</p>
                            <div style=""width:240px; margin: auto;"">
                                <img src=""images/map05_managua_scaleDef_orientDef_090.png"" style= ""width:200px""alt=""img"">
                            </div>
                        </div>","86","","0","","","","images/map05_managua_scaleDef_orientDef_090.png","fearful","1","05","05","managua","orientDef","scaleDef","090","",""
"","","","","","html-slider-response","41","155265","0.0-37.0","qq53fj4u3q","17","NaN","<div style=""width:500px;"">
                            <p style=""font-size:50px; font-weight:bold;""
                            >fearful</p>
                            <div style=""width:240px; margin: auto;"">
                                <img src=""images/map23_YlGn_scaleRev_orientMir_180.png"" style= ""width:200px""alt=""img"">
                            </div>
                        </div>","24","","0","","","","images/map23_YlGn_scaleRev_orientMir_180.png","fearful","1","23","23","YlGn","orientMir","scaleRev","180","",""
"","","","","","html-slider-response","42","157048","0.0-38.0","qq53fj4u3q","17","NaN","<div style=""width:500px;"">
                            <p style=""font-size:50px; font-weight:bold;""
                            >fearful</p>
                            <div style=""width:240px; margin: auto;"">
                                <img src=""images/map13_YlOrRd_scaleRev_orientDef_180.png"" style= ""width:200px""alt=""img"">
                            </div>
                        </div>","73","","0","","","","images/map13_YlOrRd_scaleRev_orientDef_180.png","fearful","1","13","13","YlOrRd","orientDef","scaleRev","180","",""
"","","","","","html-slider-response","43","159246","0.0-39.0","qq53fj4u3q","17","NaN","<div style=""width:500px;"">
                            <p style=""font-size:50px; font-weight:bold;""
                            >fearful</p>
                            <div style=""width:240px; margin: auto;"">
                                <img src=""images/map10_cividis_scaleRev_orientDef_180.png"" style= ""width:200px""alt=""img"">
                            </div>
                        </div>","48","","0","","","","images/map10_cividis_scaleRev_orientDef_180.png","fearful","1","10","10","cividis","orientDef","scaleRev","180","",""
"","","","","","html-slider-response","44","161197","0.0-40.0","qq53fj4u3q","17","NaN","<div style=""width:500px;"">
                            <p style=""font-size:50px; font-weight:bold;""
                            >fearful</p>
                            <div style=""width:240px; margin: auto;"">
                                <img src=""images/map05_gist_earth_scaleRev_orientMir_180.png"" style= ""width:200px""alt=""img"">
                            </div>
                        </div>","58","","0","","","","images/map05_gist_earth_scaleRev_orientMir_180.png","fearful","1","05","05","gist","scaleRev","earth","orientMir","",""
"","","","","","html-slider-response","45","163432","0.0-41.0","qq53fj4u3q","17","NaN","<div style=""width:500px;"">
                            <p style=""font-size:50px; font-weight:bold;""
                            >fearful</p>
                            <div style=""width:240px; margin: auto;"">
                                <img src=""images/map12_Greens_scaleDef_orientDef_090.png"" style= ""width:200px""alt=""img"">
                            </div>
                        </div>","30","","0","","","","images/map12_Greens_scaleDef_orientDef_090.png","fearful","1","12","12","Greens","orientDef","scaleDef","090","",""
"","","","","","html-slider-response","46","165065","0.0-42.0","qq53fj4u3q","17","NaN","<div style=""width:500px;"">
                            <p style=""font-size:50px; font-weight:bold;""
                            >fearful</p>
                            <div style=""width:240px; margin: auto;"">
                                <img src=""images/map15_GnBu_scaleRev_orientMir_000.png"" style= ""width:200px""alt=""img"">
                            </div>
                        </div>","-66","","0","","","","images/map15_GnBu_scaleRev_orientMir_000.png","fearful","1","15","15","GnBu","orientMir","scaleRev","000","",""
"","","","","","html-slider-response","47","167064","0.0-43.0","qq53fj4u3q","17","NaN","<div style=""width:500px;"">
                            <p style=""font-size:50px; font-weight:bold;""
                            >fearful</p>
                            <div style=""width:240px; margin: auto;"">
                                <img src=""images/map10_Purples_scaleDef_orientMir_090.png"" style= ""width:200px""alt=""img"">
                            </div>
                        </div>","-109","","0","","","","images/map10_Purples_scaleDef_orientMir_090.png","fearful","1","10","10","Purples","orientMir","scaleDef","090","",""
"","","","","","html-slider-response","48","169714","0.0-44.0","qq53fj4u3q","17","NaN","<div style=""width:500px;"">
                            <p style=""font-size:50px; font-weight:bold;""
                            >fearful</p>
                            <div style=""width:240px; margin: auto;"">
                                <img src=""images/map12_Blues_scaleRev_orientDef_000.png"" style= ""width:200px""alt=""img"">
                            </div>
                        </div>","-53","","0","","","","images/map12_Blues_scaleRev_orientDef_000.png","fearful","1","12","12","Blues","orientDef","scaleRev","000","",""
"","","","","","html-slider-response","49","171697","0.0-45.0","qq53fj4u3q","17","NaN","<div style=""width:500px;"">
                            <p style=""font-size:50px; font-weight:bold;""
                            >fearful</p>
                            <div style=""width:240px; margin: auto;"">
                                <img src=""images/map12_Reds_scaleRev_orientMir_180.png"" style= ""width:200px""alt=""img"">
                            </div>
                        </div>","61","","0","","","","images/map12_Reds_scaleRev_orientMir_180.png","fearful","1","12","12","Reds","orientMir","scaleRev","180","",""
"","","","","","html-slider-response","50","173780","0.0-46.0","qq53fj4u3q","17","NaN","<div style=""width:500px;"">
                            <p style=""font-size:50px; font-weight:bold;""
                            >fearful</p>
                            <div style=""width:240px; margin: auto;"">
                                <img src=""images/map02_coolwarm_scaleRev_orientDef_180.png"" style= ""width:200px""alt=""img"">
                            </div>
                        </div>","-51","","0","","","","images/map02_coolwarm_scaleRev_orientDef_180.png","fearful","1","02","02","coolwarm","orientDef","scaleRev","180","",""
"","","","","","html-slider-response","51","175946","0.0-47.0","qq53fj4u3q","17","NaN","<div style=""width:500px;"">
                            <p style=""font-size:50px; font-weight:bold;""
                            >fearful</p>
                            <div style=""width:240px; margin: auto;"">
                                <img src=""images/map13_OrRd_scaleRev_orientMir_000.png"" style= ""width:200px""alt=""img"">
                            </div>
                        </div>","88","","0","","","","images/map13_OrRd_scaleRev_orientMir_000.png","fearful","1","13","13","OrRd","orientMir","scaleRev","000","",""
"","","","","","html-slider-response","52","177697","0.0-48.0","qq53fj4u3q","17","NaN","<div style=""width:500px;"">
                            <p style=""font-size:50px; font-weight:bold;""
                            >fearful</p>
                            <div style=""width:240px; margin: auto;"">
                                <img src=""images/map07_plasma_scaleDef_orientDef_270.png"" style= ""width:200px""alt=""img"">
                            </div>
                        </div>","-94","","0","","","","images/map07_plasma_scaleDef_orientDef_270.png","fearful","1","07","07","plasma","orientDef","scaleDef","270","",""
"","","","","","html-slider-response","53","185880","0.0-49.0","qq53fj4u3q","17","NaN","<div style=""width:500px;"">
                            <p style=""font-size:50px; font-weight:bold;""
                            >fearful</p>
                            <div style=""width:240px; margin: auto;"">
                                <img src=""images/map15_PuBu_scaleDef_orientMir_090.png"" style= ""width:200px""alt=""img"">
                            </div>
                        </div>","-112","","0","","","","images/map15_PuBu_scaleDef_orientMir_090.png","fearful","1","15","15","PuBu","orientMir","scaleDef","090","",""
"","","","","","html-slider-response","54","187397","0.0-50.0","qq53fj4u3q","17","NaN","<div style=""width:500px;"">
                            <p style=""font-size:50px; font-weight:bold;""
                            >fearful</p>
                            <div style=""width:240px; margin: auto;"">
                                <img src=""images/map13_RdPu_scaleDef_orientMir_270.png"" style= ""width:200px""alt=""img"">
                            </div>
                        </div>","-46","","0","","","","images/map13_RdPu_scaleDef_orientMir_270.png","fearful","1","13","13","RdPu","orientMir","scaleDef","270","",""
"","","","","","html-slider-response","55","190930","0.0-51.0","qq53fj4u3q","17","NaN","<div style=""width:500px;"">
                            <p style=""font-size:50px; font-weight:bold;""
                            >fearful</p>
                            <div style=""width:240px; margin: auto;"">
                                <img src=""images/map13_PuRd_scaleRev_orientMir_180.png"" style= ""width:200px""alt=""img"">
                            </div>
                        </div>","-61","","0","","","","images/map13_PuRd_scaleRev_orientMir_180.png","fearful","1","13","13","PuRd","orientMir","scaleRev","180","",""
"","","","","","html-slider-response","56","192565","0.0-52.0","qq53fj4u3q","17","NaN","<div style=""width:500px;"">
                            <p style=""font-size:50px; font-weight:bold;""
                            >fearful</p>
                            <div style=""width:240px; margin: auto;"">
                                <img src=""images/map23_PiYG_scaleDef_orientMir_270.png"" style= ""width:200px""alt=""img"">
                            </div>
                        </div>","-86","","0","","","","images/map23_PiYG_scaleDef_orientMir_270.png","fearful","1","23","23","PiYG","orientMir","scaleDef","270","",""
"","","","","","html-slider-response","57","196264","0.0-53.0","qq53fj4u3q","17","NaN","<div style=""width:500px;"">
                            <p style=""font-size:50px; font-weight:bold;""
                            >fearful</p>
                            <div style=""width:240px; margin: auto;"">
                                <img src=""images/map12_Oranges_scaleRev_orientMir_000.png"" style= ""width:200px""alt=""img"">
                            </div>
                        </div>","38","","0","","","","images/map12_Oranges_scaleRev_orientMir_000.png","fearful","1","12","12","Oranges","orientMir","scaleRev","000","",""
"","","","","","html-button-response","58","200336","0.0-54.0","qq53fj4u3q","17","3570","<p>You are doing great!<br></br> You are halway done with the current block. When you are ready to continue, click the 'Continue' button.</p>","0","","","","","","","","","","","","","","","",""
"","","","","","html-slider-response","59","201596","0.0-55.0","qq53fj4u3q","17","NaN","<div style=""width:500px;"">
                            <p style=""font-size:50px; font-weight:bold;""
                            >fearful</p>
                            <div style=""width:240px; margin: auto;"">
                                <img src=""images/map05_vanimo_scaleDef_orientDef_270.png"" style= ""width:200px""alt=""img"">
                            </div>
                        </div>","-65","","0","","","","images/map05_vanimo_scaleDef_orientDef_270.png","fearful","1","05","05","vanimo","orientDef","scaleDef","270","",""
"","","","","","html-slider-response","60","203081","0.0-56.0","qq53fj4u3q","17","NaN","<div style=""width:500px;"">
                            <p style=""font-size:50px; font-weight:bold;""
                            >fearful</p>
                            <div style=""width:240px; margin: auto;"">
                                <img src=""images/map26_PRGn_scaleRev_orientDef_180.png"" style= ""width:200px""alt=""img"">
                            </div>
                        </div>","-97","","0","","","","images/map26_PRGn_scaleRev_orientDef_180.png","fearful","1","26","26","PRGn","orientDef","scaleRev","180","",""
"","","","","","html-slider-response","61","204663","0.0-57.0","qq53fj4u3q","17","NaN","<div style=""width:500px;"">
                            <p style=""font-size:50px; font-weight:bold;""
                            >fearful</p>
                            <div style=""width:240px; margin: auto;"">
                                <img src=""images/map02_seismic_scaleDef_orientMir_090.png"" style= ""width:200px""alt=""img"">
                            </div>
                        </div>","14","","0","","","","images/map02_seismic_scaleDef_orientMir_090.png","fearful","1","02","02","seismic","orientMir","scaleDef","090","",""
"","","","","","html-slider-response","62","206248","0.0-58.0","qq53fj4u3q","17","NaN","<div style=""width:500px;"">
                            <p style=""font-size:50px; font-weight:bold;""
                            >fearful</p>
                            <div style=""width:240px; margin: auto;"">
                                <img src=""images/map07_magma_scaleDef_orientMir_270.png"" style= ""width:200px""alt=""img"">
                            </div>
                        </div>","58","","0","","","","images/map07_magma_scaleDef_orientMir_270.png","fearful","1","07","07","magma","orientMir","scaleDef","270","",""
"","","","","","html-slider-response","63","207598","0.0-59.0","qq53fj4u3q","17","NaN","<div style=""width:500px;"">
                            <p style=""font-size:50px; font-weight:bold;""
                            >fearful</p>
                            <div style=""width:240px; margin: auto;"">
                                <img src=""images/map02_Spectral_scaleRev_orientDef_000.png"" style= ""width:200px""alt=""img"">
                            </div>
                        </div>","-82","","0","","","","images/map02_Spectral_scaleRev_orientDef_000.png","fearful","1","02","02","Spectral","orientDef","scaleRev","000","",""
"","","","","","html-slider-response","64","209230","0.0-60.0","qq53fj4u3q","17","NaN","<div style=""width:500px;"">
                            <p style=""font-size:50px; font-weight:bold;""
                            >fearful</p>
                            <div style=""width:240px; margin: auto;"">
                                <img src=""images/map27_Spectral_scaleDef_orientMir_270.png"" style= ""width:200px""alt=""img"">
                            </div>
                        </div>","-87","","0","","","","images/map27_Spectral_scaleDef_orientMir_270.png","fearful","1","27","27","Spectral","orientMir","scaleDef","270","",""
"","","","","","html-slider-response","65","210531","0.0-61.0","qq53fj4u3q","17","NaN","<div style=""width:500px;"">
                            <p style=""font-size:50px; font-weight:bold;""
                            >fearful</p>
                            <div style=""width:240px; margin: auto;"">
                                <img src=""images/map27_RdYlBu_scaleDef_orientDef_270.png"" style= ""width:200px""alt=""img"">
                            </div>
                        </div>","-38","","0","","","","images/map27_RdYlBu_scaleDef_orientDef_270.png","fearful","1","27","27","RdYlBu","orientDef","scaleDef","270","",""
"","","","","","html-slider-response","66","212029","0.0-62.0","qq53fj4u3q","17","NaN","<div style=""width:500px;"">
                            <p style=""font-size:50px; font-weight:bold;""
                            >fearful</p>
                            <div style=""width:240px; margin: auto;"">
                                <img src=""images/map13_YlOrBr_scaleRev_orientDef_000.png"" style= ""width:200px""alt=""img"">
                            </div>
                        </div>","58","","0","","","","images/map13_YlOrBr_scaleRev_orientDef_000.png","fearful","1","13","13","YlOrBr","orientDef","scaleRev","000","",""
"","","","","","html-slider-response","67","213446","0.0-63.0","qq53fj4u3q","17","NaN","<div style=""width:500px;"">
                            <p style=""font-size:50px; font-weight:bold;""
                            >fearful</p>
                            <div style=""width:240px; margin: auto;"">
                                <img src=""images/map26_PuOr_scaleRev_orientMir_180.png"" style= ""width:200px""alt=""img"">
                            </div>
                        </div>","-51","","0","","","","images/map26_PuOr_scaleRev_orientMir_180.png","fearful","1","26","26","PuOr","orientMir","scaleRev","180","",""
"","","","","","html-slider-response","68","215312","0.0-64.0","qq53fj4u3q","17","NaN","<div style=""width:500px;"">
                            <p style=""font-size:50px; font-weight:bold;""
                            >fearful</p>
                            <div style=""width:240px; margin: auto;"">
                                <img src=""images/map02_seismic_scaleRev_orientMir_180.png"" style= ""width:200px""alt=""img"">
                            </div>
                        </div>","-31","","0","","","","images/map02_seismic_scaleRev_orientMir_180.png","fearful","1","02","02","seismic","orientMir","scaleRev","180","",""
"","","","","","html-slider-response","69","216962","0.0-65.0","qq53fj4u3q","17","NaN","<div style=""width:500px;"">
                            <p style=""font-size:50px; font-weight:bold;""
                            >fearful</p>
                            <div style=""width:240px; margin: auto;"">
                                <img src=""images/map13_OrRd_scaleDef_orientDef_270.png"" style= ""width:200px""alt=""img"">
                            </div>
                        </div>","83","","0","","","","images/map13_OrRd_scaleDef_orientDef_270.png","fearful","1","13","13","OrRd","orientDef","scaleDef","270","",""
"","","","","","html-slider-response","70","218380","0.0-66.0","qq53fj4u3q","17","NaN","<div style=""width:500px;"">
                            <p style=""font-size:50px; font-weight:bold;""
                            >fearful</p>
                            <div style=""width:240px; margin: auto;"">
                                <img src=""images/map07_plasma_scaleRev_orientMir_000.png"" style= ""width:200px""alt=""img"">
                            </div>
                        </div>","-38","","0","","","","images/map07_plasma_scaleRev_orientMir_000.png","fearful","1","07","07","plasma","orientMir","scaleRev","000","",""
"","","","","","html-slider-response","71","219913","0.0-67.0","qq53fj4u3q","17","NaN","<div style=""width:500px;"">
                            <p style=""font-size:50px; font-weight:bold;""
                            >fearful</p>
                            <div style=""width:240px; margin: auto;"">
                                <img src=""images/map23_PuBuGn_scaleRev_orientDef_180.png"" style= ""width:200px""alt=""img"">
                            </div>
                        </div>","-50","","0","","","","images/map23_PuBuGn_scaleRev_orientDef_180.png","fearful","1","23","23","PuBuGn","orientDef","scaleRev","180","",""
"","","","","","html-slider-response","72","221381","0.0-68.0","qq53fj4u3q","17","NaN","<div style=""width:500px;"">
                            <p style=""font-size:50px; font-weight:bold;""
                            >fearful</p>
                            <div style=""width:240px; margin: auto;"">
                                <img src=""images/map26_PRGn_scaleDef_orientDef_090.png"" style= ""width:200px""alt=""img"">
                            </div>
                        </div>","-50","","0","","","","images/map26_PRGn_scaleDef_orientDef_090.png","fearful","1","26","26","PRGn","orientDef","scaleDef","090","",""
"","","","","","html-slider-response","73","224513","0.0-69.0","qq53fj4u3q","17","NaN","<div style=""width:500px;"">
                            <p style=""font-size:50px; font-weight:bold;""
                            >fearful</p>
                            <div style=""width:240px; margin: auto;"">
                                <img src=""images/map27_RdYlGn_scaleRev_orientMir_180.png"" style= ""width:200px""alt=""img"">
                            </div>
                        </div>","-99","","0","","","","images/map27_RdYlGn_scaleRev_orientMir_180.png","fearful","1","27","27","RdYlGn","orientMir","scaleRev","180","",""
"","","","","","html-slider-response","74","226479","0.0-70.0","qq53fj4u3q","17","NaN","<div style=""width:500px;"">
                            <p style=""font-size:50px; font-weight:bold;""
                            >fearful</p>
                            <div style=""width:240px; margin: auto;"">
                                <img src=""images/map10_Blues_scaleDef_orientMir_270.png"" style= ""width:200px""alt=""img"">
                            </div>
                        </div>","-49","","0","","","","images/map10_Blues_scaleDef_orientMir_270.png","fearful","1","10","10","Blues","orientMir","scaleDef","270","",""
"","","","","","html-slider-response","75","228063","0.0-71.0","qq53fj4u3q","17","NaN","<div style=""width:500px;"">
                            <p style=""font-size:50px; font-weight:bold;""
                            >fearful</p>
                            <div style=""width:240px; margin: auto;"">
                                <img src=""images/map10_Purples_scaleRev_orientMir_180.png"" style= ""width:200px""alt=""img"">
                            </div>
                        </div>","23","","0","","","","images/map10_Purples_scaleRev_orientMir_180.png","fearful","1","10","10","Purples","orientMir","scaleRev","180","",""
"","","","","","html-slider-response","76","229479","0.0-72.0","qq53fj4u3q","17","NaN","<div style=""width:500px;"">
                            <p style=""font-size:50px; font-weight:bold;""
                            >fearful</p>
                            <div style=""width:240px; margin: auto;"">
                                <img src=""images/map26_PiYG_scaleRev_orientDef_000.png"" style= ""width:200px""alt=""img"">
                            </div>
                        </div>","-70","","0","","","","images/map26_PiYG_scaleRev_orientDef_000.png","fearful","1","26","26","PiYG","orientDef","scaleRev","000","",""
"","","","","","html-slider-response","77","230913","0.0-73.0","qq53fj4u3q","17","NaN","<div style=""width:500px;"">
                            <p style=""font-size:50px; font-weight:bold;""
                            >fearful</p>
                            <div style=""width:240px; margin: auto;"">
                                <img src=""images/map15_GnBu_scaleDef_orientDef_270.png"" style= ""width:200px""alt=""img"">
                            </div>
                        </div>","-78","","0","","","","images/map15_GnBu_scaleDef_orientDef_270.png","fearful","1","15","15","GnBu","orientDef","scaleDef","270","",""
"","","","","","html-slider-response","78","232313","0.0-74.0","qq53fj4u3q","17","NaN","<div style=""width:500px;"">
                            <p style=""font-size:50px; font-weight:bold;""
                            >fearful</p>
                            <div style=""width:240px; margin: auto;"">
                                <img src=""images/map23_YlGnBu_scaleRev_orientDef_000.png"" style= ""width:200px""alt=""img"">
                            </div>
                        </div>","-103","","0","","","","images/map23_YlGnBu_scaleRev_orientDef_000.png","fearful","1","23","23","YlGnBu","orientDef","scaleRev","000","",""
"","","","","","html-slider-response","79","234045","0.0-75.0","qq53fj4u3q","17","NaN","<div style=""width:500px;"">
                            <p style=""font-size:50px; font-weight:bold;""
                            >fearful</p>
                            <div style=""width:240px; margin: auto;"">
                                <img src=""images/map27_RdBu_scaleRev_orientDef_180.png"" style= ""width:200px""alt=""img"">
                            </div>
                        </div>","28","","0","","","","images/map27_RdBu_scaleRev_orientDef_180.png","fearful","1","27","27","RdBu","orientDef","scaleRev","180","",""
"","","","","","html-slider-response","80","235512","0.0-76.0","qq53fj4u3q","17","NaN","<div style=""width:500px;"">
                            <p style=""font-size:50px; font-weight:bold;""
                            >fearful</p>
                            <div style=""width:240px; margin: auto;"">
                                <img src=""images/map05_managua_scaleRev_orientDef_180.png"" style= ""width:200px""alt=""img"">
                            </div>
                        </div>","50","","0","","","","images/map05_managua_scaleRev_orientDef_180.png","fearful","1","05","05","managua","orientDef","scaleRev","180","",""
"","","","","","html-slider-response","81","237079","0.0-77.0","qq53fj4u3q","17","NaN","<div style=""width:500px;"">
                            <p style=""font-size:50px; font-weight:bold;""
                            >fearful</p>
                            <div style=""width:240px; margin: auto;"">
                                <img src=""images/map12_Greens_scaleRev_orientDef_180.png"" style= ""width:200px""alt=""img"">
                            </div>
                        </div>","26","","0","","","","images/map12_Greens_scaleRev_orientDef_180.png","fearful","1","12","12","Greens","orientDef","scaleRev","180","",""
"","","","","","html-slider-response","82","239079","0.0-78.0","qq53fj4u3q","17","NaN","<div style=""width:500px;"">
                            <p style=""font-size:50px; font-weight:bold;""
                            >fearful</p>
                            <div style=""width:240px; margin: auto;"">
                                <img src=""images/map27_RdYlGn_scaleDef_orientMir_090.png"" style= ""width:200px""alt=""img"">
                            </div>
                        </div>","-19","","0","","","","images/map27_RdYlGn_scaleDef_orientMir_090.png","fearful","1","27","27","RdYlGn","orientMir","scaleDef","090","",""
"","","","","","html-slider-response","83","240645","0.0-79.0","qq53fj4u3q","17","NaN","<div style=""width:500px;"">
                            <p style=""font-size:50px; font-weight:bold;""
                            >fearful</p>
                            <div style=""width:240px; margin: auto;"">
                                <img src=""images/map12_Reds_scaleDef_orientMir_090.png"" style= ""width:200px""alt=""img"">
                            </div>
                        </div>","80","","0","","","","images/map12_Reds_scaleDef_orientMir_090.png","fearful","1","12","12","Reds","orientMir","scaleDef","090","",""
"","","","","","html-slider-response","84","242562","0.0-80.0","qq53fj4u3q","17","NaN","<div style=""width:500px;"">
                            <p style=""font-size:50px; font-weight:bold;""
                            >fearful</p>
                            <div style=""width:240px; margin: auto;"">
                                <img src=""images/map27_RdYlBu_scaleRev_orientMir_000.png"" style= ""width:200px""alt=""img"">
                            </div>
                        </div>","51","","0","","","","images/map27_RdYlBu_scaleRev_orientMir_000.png","fearful","1","27","27","RdYlBu","orientMir","scaleRev","000","",""
"","","","","","html-slider-response","85","244345","0.0-81.0","qq53fj4u3q","17","NaN","<div style=""width:500px;"">
                            <p style=""font-size:50px; font-weight:bold;""
                            >fearful</p>
                            <div style=""width:240px; margin: auto;"">
                                <img src=""images/map07_inferno_scaleDef_orientMir_090.png"" style= ""width:200px""alt=""img"">
                            </div>
                        </div>","92","","0","","","","images/map07_inferno_scaleDef_orientMir_090.png","fearful","1","07","07","inferno","orientMir","scaleDef","090","",""
"","","","","","html-slider-response","86","245912","0.0-82.0","qq53fj4u3q","17","NaN","<div style=""width:500px;"">
                            <p style=""font-size:50px; font-weight:bold;""
                            >fearful</p>
                            <div style=""width:240px; margin: auto;"">
                                <img src=""images/map23_BuGn_scaleDef_orientDef_270.png"" style= ""width:200px""alt=""img"">
                            </div>
                        </div>","34","","0","","","","images/map23_BuGn_scaleDef_orientDef_270.png","fearful","1","23","23","BuGn","orientDef","scaleDef","270","",""
"","","","","","html-slider-response","87","247529","0.0-83.0","qq53fj4u3q","17","NaN","<div style=""width:500px;"">
                            <p style=""font-size:50px; font-weight:bold;""
                            >fearful</p>
                            <div style=""width:240px; margin: auto;"">
                                <img src=""images/map02_bwr_scaleRev_orientMir_000.png"" style= ""width:200px""alt=""img"">
                            </div>
                        </div>","-48","","0","","","","images/map02_bwr_scaleRev_orientMir_000.png","fearful","1","02","02","bwr","orientMir","scaleRev","000","",""
"","","","","","html-slider-response","88","249062","0.0-84.0","qq53fj4u3q","17","NaN","<div style=""width:500px;"">
                            <p style=""font-size:50px; font-weight:bold;""
                            >fearful</p>
                            <div style=""width:240px; margin: auto;"">
                                <img src=""images/map10_magma_scaleRev_orientDef_000.png"" style= ""width:200px""alt=""img"">
                            </div>
                        </div>","63","","0","","","","images/map10_magma_scaleRev_orientDef_000.png","fearful","1","10","10","magma","orientDef","scaleRev","000","",""
"","","","","","html-slider-response","89","250964","0.0-85.0","qq53fj4u3q","17","NaN","<div style=""width:500px;"">
                            <p style=""font-size:50px; font-weight:bold;""
                            >fearful</p>
                            <div style=""width:240px; margin: auto;"">
                                <img src=""images/map10_cividis_scaleDef_orientDef_090.png"" style= ""width:200px""alt=""img"">
                            </div>
                        </div>","150","","0","","","","images/map10_cividis_scaleDef_orientDef_090.png","fearful","1","10","10","cividis","orientDef","scaleDef","090","",""
"","","","","","html-slider-response","90","252812","0.0-86.0","qq53fj4u3q","17","NaN","<div style=""width:500px;"">
                            <p style=""font-size:50px; font-weight:bold;""
                            >fearful</p>
                            <div style=""width:240px; margin: auto;"">
                                <img src=""images/map13_YlOrRd_scaleDef_orientDef_090.png"" style= ""width:200px""alt=""img"">
                            </div>
                        </div>","142","","0","","","","images/map13_YlOrRd_scaleDef_orientDef_090.png","fearful","1","13","13","YlOrRd","orientDef","scaleDef","090","",""
"","","","","","html-slider-response","91","254695","0.0-87.0","qq53fj4u3q","17","NaN","<div style=""width:500px;"">
                            <p style=""font-size:50px; font-weight:bold;""
                            >fearful</p>
                            <div style=""width:240px; margin: auto;"">
                                <img src=""images/map15_BuPu_scaleDef_orientDef_090.png"" style= ""width:200px""alt=""img"">
                            </div>
                        </div>","54","","0","","","","images/map15_BuPu_scaleDef_orientDef_090.png","fearful","1","15","15","BuPu","orientDef","scaleDef","090","",""
"","","","","","html-slider-response","92","256128","0.0-88.0","qq53fj4u3q","17","NaN","<div style=""width:500px;"">
                            <p style=""font-size:50px; font-weight:bold;""
                            >fearful</p>
                            <div style=""width:240px; margin: auto;"">
                                <img src=""images/map26_BrBG_scaleRev_orientMir_000.png"" style= ""width:200px""alt=""img"">
                            </div>
                        </div>","-59","","0","","","","images/map26_BrBG_scaleRev_orientMir_000.png","fearful","1","26","26","BrBG","orientMir","scaleRev","000","",""
"","","","","","html-slider-response","93","257665","0.0-89.0","qq53fj4u3q","17","NaN","<div style=""width:500px;"">
                            <p style=""font-size:50px; font-weight:bold;""
                            >fearful</p>
                            <div style=""width:240px; margin: auto;"">
                                <img src=""images/map02_berlin_scaleDef_orientMir_270.png"" style= ""width:200px""alt=""img"">
                            </div>
                        </div>","44","","0","","","","images/map02_berlin_scaleDef_orientMir_270.png","fearful","1","02","02","berlin","orientMir","scaleDef","270","",""
"","","","","","html-slider-response","94","259181","0.0-90.0","qq53fj4u3q","17","NaN","<div style=""width:500px;"">
                            <p style=""font-size:50px; font-weight:bold;""
                            >fearful</p>
                            <div style=""width:240px; margin: auto;"">
                                <img src=""images/map05_vanimo_scaleRev_orientMir_000.png"" style= ""width:200px""alt=""img"">
                            </div>
                        </div>","-63","","0","","","","images/map05_vanimo_scaleRev_orientMir_000.png","fearful","1","05","05","vanimo","orientMir","scaleRev","000","",""
"","","","","","html-slider-response","95","260862","0.0-91.0","qq53fj4u3q","17","NaN","<div style=""width:500px;"">
                            <p style=""font-size:50px; font-weight:bold;""
                            >fearful</p>
                            <div style=""width:240px; margin: auto;"">
                                <img src=""images/map07_turbo_scaleRev_orientDef_000.png"" style= ""width:200px""alt=""img"">
                            </div>
                        </div>","22","","0","","","","images/map07_turbo_scaleRev_orientDef_000.png","fearful","1","07","07","turbo","orientDef","scaleRev","000","",""
"","","","","","html-slider-response","96","262595","0.0-92.0","qq53fj4u3q","17","NaN","<div style=""width:500px;"">
                            <p style=""font-size:50px; font-weight:bold;""
                            >fearful</p>
                            <div style=""width:240px; margin: auto;"">
                                <img src=""images/map26_PuOr_scaleDef_orientMir_090.png"" style= ""width:200px""alt=""img"">
                            </div>
                        </div>","44","","0","","","","images/map26_PuOr_scaleDef_orientMir_090.png","fearful","1","26","26","PuOr","orientMir","scaleDef","090","",""
"","","","","","html-slider-response","97","264230","0.0-93.0","qq53fj4u3q","17","NaN","<div style=""width:500px;"">
                            <p style=""font-size:50px; font-weight:bold;""
                            >fearful</p>
                            <div style=""width:240px; margin: auto;"">
                                <img src=""images/map23_PuBuGn_scaleDef_orientDef_090.png"" style= ""width:200px""alt=""img"">
                            </div>
                        </div>","-54","","0","","","","images/map23_PuBuGn_scaleDef_orientDef_090.png","fearful","1","23","23","PuBuGn","orientDef","scaleDef","090","",""
"","","","","","html-slider-response","98","265895","0.0-94.0","qq53fj4u3q","17","NaN","<div style=""width:500px;"">
                            <p style=""font-size:50px; font-weight:bold;""
                            >fearful</p>
                            <div style=""width:240px; margin: auto;"">
                                <img src=""images/map05_turbo_scaleDef_orientMir_270.png"" style= ""width:200px""alt=""img"">
                            </div>
                        </div>","-62","","0","","","","images/map05_turbo_scaleDef_orientMir_270.png","fearful","1","05","05","turbo","orientMir","scaleDef","270","",""
"","","","","","html-button-response","99","306469","0.0-95.0","qq53fj4u3q","17","40072","<p>Great Job! You've finished block 1.<br></br> You have 4 block(s) left to go.<br></br></p>","0","","","","","","","","","","","","","","","",""
"","","","","","html-button-response","100","307418","0.0-96.0","qq53fj4u3q","17","948","<p>In this block of trials, you will be asked to rate how much you associate each map with:</p > <p style = 'font-size:150%; font-weight: bold'>happy</p><br></br>","0","","","","","","","","","","","","","","","",""
"","","","","","html-slider-response","101","308828","0.0-97.0","qq53fj4u3q","17","NaN","<div style=""width:500px;"">
                            <p style=""font-size:50px; font-weight:bold;""
                            >happy</p>
                            <div style=""width:240px; margin: auto;"">
                                <img src=""images/map12_Greens_scaleRev_orientDef_180.png"" style= ""width:200px""alt=""img"">
                            </div>
                        </div>","-102","","0","","","","images/map12_Greens_scaleRev_orientDef_180.png","happy","1","12","12","Greens","orientDef","scaleRev","180","",""
"","","","","","html-slider-response","102","310711","0.0-98.0","qq53fj4u3q","17","NaN","<div style=""width:500px;"">
                            <p style=""font-size:50px; font-weight:bold;""
                            >happy</p>
                            <div style=""width:240px; margin: auto;"">
                                <img src=""images/map27_RdYlBu_scaleDef_orientDef_270.png"" style= ""width:200px""alt=""img"">
                            </div>
                        </div>","105","","0","","","","images/map27_RdYlBu_scaleDef_orientDef_270.png","happy","1","27","27","RdYlBu","orientDef","scaleDef","270","",""
"","","","","","html-slider-response","103","312611","0.0-99.0","qq53fj4u3q","17","NaN","<div style=""width:500px;"">
                            <p style=""font-size:50px; font-weight:bold;""
                            >happy</p>
                            <div style=""width:240px; margin: auto;"">
                                <img src=""images/map07_plasma_scaleDef_orientDef_270.png"" style= ""width:200px""alt=""img"">
                            </div>
                        </div>","34","","0","","","","images/map07_plasma_scaleDef_orientDef_270.png","happy","1","07","07","plasma","orientDef","scaleDef","270","",""
"","","","","","html-slider-response","104","314030","0.0-100.0","qq53fj4u3q","17","NaN","<div style=""width:500px;"">
                            <p style=""font-size:50px; font-weight:bold;""
                            >happy</p>
                            <div style=""width:240px; margin: auto;"">
                                <img src=""images/map27_RdBu_scaleDef_orientDef_090.png"" style= ""width:200px""alt=""img"">
                            </div>
                        </div>","-85","","0","","","","images/map27_RdBu_scaleDef_orientDef_090.png","happy","1","27","27","RdBu","orientDef","scaleDef","090","",""
"","","","","","html-slider-response","105","315678","0.0-101.0","qq53fj4u3q","17","NaN","<div style=""width:500px;"">
                            <p style=""font-size:50px; font-weight:bold;""
                            >happy</p>
                            <div style=""width:240px; margin: auto;"">
                                <img src=""images/map13_YlOrRd_scaleRev_orientDef_180.png"" style= ""width:200px""alt=""img"">
                            </div>
                        </div>","-91","","0","","","","images/map13_YlOrRd_scaleRev_orientDef_180.png","happy","1","13","13","YlOrRd","orientDef","scaleRev","180","",""
"","","","","","html-slider-response","106","317145","0.0-102.0","qq53fj4u3q","17","NaN","<div style=""width:500px;"">
                            <p style=""font-size:50px; font-weight:bold;""
                            >happy</p>
                            <div style=""width:240px; margin: auto;"">
                                <img src=""images/map23_PiYG_scaleDef_orientMir_270.png"" style= ""width:200px""alt=""img"">
                            </div>
                        </div>","-39","","0","","","","images/map23_PiYG_scaleDef_orientMir_270.png","happy","1","23","23","PiYG","orientMir","scaleDef","270","",""
"","","","","","html-slider-response","107","318778","0.0-103.0","qq53fj4u3q","17","NaN","<div style=""width:500px;"">
                            <p style=""font-size:50px; font-weight:bold;""
                            >happy</p>
                            <div style=""width:240px; margin: auto;"">
                                <img src=""images/map07_turbo_scaleRev_orientDef_000.png"" style= ""width:200px""alt=""img"">
                            </div>
                        </div>","49","","0","","","","images/map07_turbo_scaleRev_orientDef_000.png","happy","1","07","07","turbo","orientDef","scaleRev","000","",""
"","","","","","html-slider-response","108","320361","0.0-104.0","qq53fj4u3q","17","NaN","<div style=""width:500px;"">
                            <p style=""font-size:50px; font-weight:bold;""
                            >happy</p>
                            <div style=""width:240px; margin: auto;"">
                                <img src=""images/map07_plasma_scaleRev_orientMir_000.png"" style= ""width:200px""alt=""img"">
                            </div>
                        </div>","57","","0","","","","images/map07_plasma_scaleRev_orientMir_000.png","happy","1","07","07","plasma","orientMir","scaleRev","000","",""
"","","","","","html-slider-response","109","322095","0.0-105.0","qq53fj4u3q","17","NaN","<div style=""width:500px;"">
                            <p style=""font-size:50px; font-weight:bold;""
                            >happy</p>
                            <div style=""width:240px; margin: auto;"">
                                <img src=""images/map10_Purples_scaleDef_orientMir_090.png"" style= ""width:200px""alt=""img"">
                            </div>
                        </div>","-50","","0","","","","images/map10_Purples_scaleDef_orientMir_090.png","happy","1","10","10","Purples","orientMir","scaleDef","090","",""
"","","","","","html-slider-response","110","323695","0.0-106.0","qq53fj4u3q","17","NaN","<div style=""width:500px;"">
                            <p style=""font-size:50px; font-weight:bold;""
                            >happy</p>
                            <div style=""width:240px; margin: auto;"">
                                <img src=""images/map02_bwr_scaleRev_orientMir_000.png"" style= ""width:200px""alt=""img"">
                            </div>
                        </div>","86","","0","","","","images/map02_bwr_scaleRev_orientMir_000.png","happy","1","02","02","bwr","orientMir","scaleRev","000","",""
"","","","","","html-slider-response","111","325577","0.0-107.0","qq53fj4u3q","17","NaN","<div style=""width:500px;"">
                            <p style=""font-size:50px; font-weight:bold;""
                            >happy</p>
                            <div style=""width:240px; margin: auto;"">
                                <img src=""images/map27_RdYlGn_scaleDef_orientMir_090.png"" style= ""width:200px""alt=""img"">
                            </div>
                        </div>","-60","","0","","","","images/map27_RdYlGn_scaleDef_orientMir_090.png","happy","1","27","27","RdYlGn","orientMir","scaleDef","090","",""
"","","","","","html-slider-response","112","327278","0.0-108.0","qq53fj4u3q","17","NaN","<div style=""width:500px;"">
                            <p style=""font-size:50px; font-weight:bold;""
                            >happy</p>
                            <div style=""width:240px; margin: auto;"">
                                <img src=""images/map23_PuBuGn_scaleRev_orientDef_180.png"" style= ""width:200px""alt=""img"">
                            </div>
                        </div>","-110","","0","","","","images/map23_PuBuGn_scaleRev_orientDef_180.png","happy","1","23","23","PuBuGn","orientDef","scaleRev","180","",""
"","","","","","html-slider-response","113","328878","0.0-109.0","qq53fj4u3q","17","NaN","<div style=""width:500px;"">
                            <p style=""font-size:50px; font-weight:bold;""
                            >happy</p>
                            <div style=""width:240px; margin: auto;"">
                                <img src=""images/map13_YlOrRd_scaleDef_orientDef_090.png"" style= ""width:200px""alt=""img"">
                            </div>
                        </div>","65","","0","","","","images/map13_YlOrRd_scaleDef_orientDef_090.png","happy","1","13","13","YlOrRd","orientDef","scaleDef","090","",""
"","","","","","html-slider-response","114","330627","0.0-110.0","qq53fj4u3q","17","NaN","<div style=""width:500px;"">
                            <p style=""font-size:50px; font-weight:bold;""
                            >happy</p>
                            <div style=""width:240px; margin: auto;"">
                                <img src=""images/map26_BrBG_scaleDef_orientDef_270.png"" style= ""width:200px""alt=""img"">
                            </div>
                        </div>","-145","","0","","","","images/map26_BrBG_scaleDef_orientDef_270.png","happy","1","26","26","BrBG","orientDef","scaleDef","270","",""
"","","","","","html-slider-response","115","332778","0.0-111.0","qq53fj4u3q","17","NaN","<div style=""width:500px;"">
                            <p style=""font-size:50px; font-weight:bold;""
                            >happy</p>
                            <div style=""width:240px; margin: auto;"">
                                <img src=""images/map27_RdYlBu_scaleRev_orientMir_000.png"" style= ""width:200px""alt=""img"">
                            </div>
                        </div>","145","","0","","","","images/map27_RdYlBu_scaleRev_orientMir_000.png","happy","1","27","27","RdYlBu","orientMir","scaleRev","000","",""
"","","","","","html-slider-response","116","334980","0.0-112.0","qq53fj4u3q","17","NaN","<div style=""width:500px;"">
                            <p style=""font-size:50px; font-weight:bold;""
                            >happy</p>
                            <div style=""width:240px; margin: auto;"">
                                <img src=""images/map13_PuRd_scaleDef_orientMir_090.png"" style= ""width:200px""alt=""img"">
                            </div>
                        </div>","140","","0","","","","images/map13_PuRd_scaleDef_orientMir_090.png","happy","1","13","13","PuRd","orientMir","scaleDef","090","",""
"","","","","","html-slider-response","117","336579","0.0-113.0","qq53fj4u3q","17","NaN","<div style=""width:500px;"">
                            <p style=""font-size:50px; font-weight:bold;""
                            >happy</p>
                            <div style=""width:240px; margin: auto;"">
                                <img src=""images/map23_YlGnBu_scaleRev_orientDef_000.png"" style= ""width:200px""alt=""img"">
                            </div>
                        </div>","-126","","0","","","","images/map23_YlGnBu_scaleRev_orientDef_000.png","happy","1","23","23","YlGnBu","orientDef","scaleRev","000","",""
"","","","","","html-slider-response","118","337981","0.0-114.0","qq53fj4u3q","17","NaN","<div style=""width:500px;"">
                            <p style=""font-size:50px; font-weight:bold;""
                            >happy</p>
                            <div style=""width:240px; margin: auto;"">
                                <img src=""images/map27_RdBu_scaleRev_orientDef_180.png"" style= ""width:200px""alt=""img"">
                            </div>
                        </div>","-74","","0","","","","images/map27_RdBu_scaleRev_orientDef_180.png","happy","1","27","27","RdBu","orientDef","scaleRev","180","",""
"","","","","","html-slider-response","119","339578","0.0-115.0","qq53fj4u3q","17","NaN","<div style=""width:500px;"">
                            <p style=""font-size:50px; font-weight:bold;""
                            >happy</p>
                            <div style=""width:240px; margin: auto;"">
                                <img src=""images/map05_turbo_scaleDef_orientMir_270.png"" style= ""width:200px""alt=""img"">
                            </div>
                        </div>","180","","0","","","","images/map05_turbo_scaleDef_orientMir_270.png","happy","1","05","05","turbo","orientMir","scaleDef","270","",""
"","","","","","html-slider-response","120","341063","0.0-116.0","qq53fj4u3q","17","NaN","<div style=""width:500px;"">
                            <p style=""font-size:50px; font-weight:bold;""
                            >happy</p>
                            <div style=""width:240px; margin: auto;"">
                                <img src=""images/map23_YlGn_scaleDef_orientMir_090.png"" style= ""width:200px""alt=""img"">
                            </div>
                        </div>","-77","","0","","","","images/map23_YlGn_scaleDef_orientMir_090.png","happy","1","23","23","YlGn","orientMir","scaleDef","090","",""
"","","","","","html-slider-response","121","342494","0.0-117.0","qq53fj4u3q","17","NaN","<div style=""width:500px;"">
                            <p style=""font-size:50px; font-weight:bold;""
                            >happy</p>
                            <div style=""width:240px; margin: auto;"">
                                <img src=""images/map26_PuOr_scaleRev_orientMir_180.png"" style= ""width:200px""alt=""img"">
                            </div>
                        </div>","64","","0","","","","images/map26_PuOr_scaleRev_orientMir_180.png","happy","1","26","26","PuOr","orientMir","scaleRev","180","",""
"","","","","","html-slider-response","122","344063","0.0-118.0","qq53fj4u3q","17","NaN","<div style=""width:500px;"">
                            <p style=""font-size:50px; font-weight:bold;""
                            >happy</p>
                            <div style=""width:240px; margin: auto;"">
                                <img src=""images/map26_BrBG_scaleRev_orientMir_000.png"" style= ""width:200px""alt=""img"">
                            </div>
                        </div>","-67","","0","","","","images/map26_BrBG_scaleRev_orientMir_000.png","happy","1","26","26","BrBG","orientMir","scaleRev","000","",""
"","","","","","html-slider-response","123","345694","0.0-119.0","qq53fj4u3q","17","NaN","<div style=""width:500px;"">
                            <p style=""font-size:50px; font-weight:bold;""
                            >happy</p>
                            <div style=""width:240px; margin: auto;"">
                                <img src=""images/map15_PuBu_scaleDef_orientMir_090.png"" style= ""width:200px""alt=""img"">
                            </div>
                        </div>","-154","","0","","","","images/map15_PuBu_scaleDef_orientMir_090.png","happy","1","15","15","PuBu","orientMir","scaleDef","090","",""
"","","","","","html-slider-response","124","347111","0.0-120.0","qq53fj4u3q","17","NaN","<div style=""width:500px;"">
                            <p style=""font-size:50px; font-weight:bold;""
                            >happy</p>
                            <div style=""width:240px; margin: auto;"">
                                <img src=""images/map07_viridis_scaleRev_orientDef_180.png"" style= ""width:200px""alt=""img"">
                            </div>
                        </div>","-68","","0","","","","images/map07_viridis_scaleRev_orientDef_180.png","happy","1","07","07","viridis","orientDef","scaleRev","180","",""
"","","","","","html-slider-response","125","348411","0.0-121.0","qq53fj4u3q","17","NaN","<div style=""width:500px;"">
                            <p style=""font-size:50px; font-weight:bold;""
                            >happy</p>
                            <div style=""width:240px; margin: auto;"">
                                <img src=""images/map13_OrRd_scaleRev_orientMir_000.png"" style= ""width:200px""alt=""img"">
                            </div>
                        </div>","75","","0","","","","images/map13_OrRd_scaleRev_orientMir_000.png","happy","1","13","13","OrRd","orientMir","scaleRev","000","",""
"","","","","","html-slider-response","126","350077","0.0-122.0","qq53fj4u3q","17","NaN","<div style=""width:500px;"">
                            <p style=""font-size:50px; font-weight:bold;""
                            >happy</p>
                            <div style=""width:240px; margin: auto;"">
                                <img src=""images/map05_berlin_scaleRev_orientDef_000.png"" style= ""width:200px""alt=""img"">
                            </div>
                        </div>","-124","","0","","","","images/map05_berlin_scaleRev_orientDef_000.png","happy","1","05","05","berlin","orientDef","scaleRev","000","",""
"","","","","","html-slider-response","127","351578","0.0-123.0","qq53fj4u3q","17","NaN","<div style=""width:500px;"">
                            <p style=""font-size:50px; font-weight:bold;""
                            >happy</p>
                            <div style=""width:240px; margin: auto;"">
                                <img src=""images/map05_managua_scaleDef_orientDef_090.png"" style= ""width:200px""alt=""img"">
                            </div>
                        </div>","-182","","0","","","","images/map05_managua_scaleDef_orientDef_090.png","happy","1","05","05","managua","orientDef","scaleDef","090","",""
"","","","","","html-slider-response","128","352944","0.0-124.0","qq53fj4u3q","17","NaN","<div style=""width:500px;"">
                            <p style=""font-size:50px; font-weight:bold;""
                            >happy</p>
                            <div style=""width:240px; margin: auto;"">
                                <img src=""images/map23_BuGn_scaleDef_orientDef_270.png"" style= ""width:200px""alt=""img"">
                            </div>
                        </div>","-86","","0","","","","images/map23_BuGn_scaleDef_orientDef_270.png","happy","1","23","23","BuGn","orientDef","scaleDef","270","",""
"","","","","","html-slider-response","129","354627","0.0-125.0","qq53fj4u3q","17","NaN","<div style=""width:500px;"">
                            <p style=""font-size:50px; font-weight:bold;""
                            >happy</p>
                            <div style=""width:240px; margin: auto;"">
                                <img src=""images/map02_Spectral_scaleRev_orientDef_000.png"" style= ""width:200px""alt=""img"">
                            </div>
                        </div>","127","","0","","","","images/map02_Spectral_scaleRev_orientDef_000.png","happy","1","02","02","Spectral","orientDef","scaleRev","000","",""
"","","","","","html-slider-response","130","355896","0.0-126.0","qq53fj4u3q","17","NaN","<div style=""width:500px;"">
                            <p style=""font-size:50px; font-weight:bold;""
                            >happy</p>
                            <div style=""width:240px; margin: auto;"">
                                <img src=""images/map15_PuBu_scaleRev_orientMir_180.png"" style= ""width:200px""alt=""img"">
                            </div>
                        </div>","-81","","0","","","","images/map15_PuBu_scaleRev_orientMir_180.png","happy","1","15","15","PuBu","orientMir","scaleRev","180","",""
"","","","","","html-slider-response","131","357294","0.0-127.0","qq53fj4u3q","17","NaN","<div style=""width:500px;"">
                            <p style=""font-size:50px; font-weight:bold;""
                            >happy</p>
                            <div style=""width:240px; margin: auto;"">
                                <img src=""images/map13_PuRd_scaleRev_orientMir_180.png"" style= ""width:200px""alt=""img"">
                            </div>
                        </div>","85","","0","","","","images/map13_PuRd_scaleRev_orientMir_180.png","happy","1","13","13","PuRd","orientMir","scaleRev","180","",""
"","","","","","html-slider-response","132","359127","0.0-128.0","qq53fj4u3q","17","NaN","<div style=""width:500px;"">
                            <p style=""font-size:50px; font-weight:bold;""
                            >happy</p>
                            <div style=""width:240px; margin: auto;"">
                                <img src=""images/map26_PiYG_scaleRev_orientDef_000.png"" style= ""width:200px""alt=""img"">
                            </div>
                        </div>","-51","","0","","","","images/map26_PiYG_scaleRev_orientDef_000.png","happy","1","26","26","PiYG","orientDef","scaleRev","000","",""
"","","","","","html-slider-response","133","360611","0.0-129.0","qq53fj4u3q","17","NaN","<div style=""width:500px;"">
                            <p style=""font-size:50px; font-weight:bold;""
                            >happy</p>
                            <div style=""width:240px; margin: auto;"">
                                <img src=""images/map26_RdGy_scaleDef_orientMir_270.png"" style= ""width:200px""alt=""img"">
                            </div>
                        </div>","-98","","0","","","","images/map26_RdGy_scaleDef_orientMir_270.png","happy","1","26","26","RdGy","orientMir","scaleDef","270","",""
"","","","","","html-slider-response","134","362861","0.0-130.0","qq53fj4u3q","17","NaN","<div style=""width:500px;"">
                            <p style=""font-size:50px; font-weight:bold;""
                            >happy</p>
                            <div style=""width:240px; margin: auto;"">
                                <img src=""images/map10_cividis_scaleDef_orientDef_090.png"" style= ""width:200px""alt=""img"">
                            </div>
                        </div>","-134","","0","","","","images/map10_cividis_scaleDef_orientDef_090.png","happy","1","10","10","cividis","orientDef","scaleDef","090","",""
"","","","","","html-slider-response","135","364510","0.0-131.0","qq53fj4u3q","17","NaN","<div style=""width:500px;"">
                            <p style=""font-size:50px; font-weight:bold;""
                            >happy</p>
                            <div style=""width:240px; margin: auto;"">
                                <img src=""images/map05_vanimo_scaleDef_orientDef_270.png"" style= ""width:200px""alt=""img"">
                            </div>
                        </div>","-171","","0","","","","images/map05_vanimo_scaleDef_orientDef_270.png","happy","1","05","05","vanimo","orientDef","scaleDef","270","",""
"","","","","","html-slider-response","136","366177","0.0-132.0","qq53fj4u3q","17","NaN","<div style=""width:500px;"">
                            <p style=""font-size:50px; font-weight:bold;""
                            >happy</p>
                            <div style=""width:240px; margin: auto;"">
                                <img src=""images/map07_magma_scaleDef_orientMir_270.png"" style= ""width:200px""alt=""img"">
                            </div>
                        </div>","86","","0","","","","images/map07_magma_scaleDef_orientMir_270.png","happy","1","07","07","magma","orientMir","scaleDef","270","",""
"","","","","","html-slider-response","137","368011","0.0-133.0","qq53fj4u3q","17","NaN","<div style=""width:500px;"">
                            <p style=""font-size:50px; font-weight:bold;""
                            >happy</p>
                            <div style=""width:240px; margin: auto;"">
                                <img src=""images/map10_cividis_scaleRev_orientDef_180.png"" style= ""width:200px""alt=""img"">
                            </div>
                        </div>","-109","","0","","","","images/map10_cividis_scaleRev_orientDef_180.png","happy","1","10","10","cividis","orientDef","scaleRev","180","",""
"","","","","","html-slider-response","138","369361","0.0-134.0","qq53fj4u3q","17","NaN","<div style=""width:500px;"">
                            <p style=""font-size:50px; font-weight:bold;""
                            >happy</p>
                            <div style=""width:240px; margin: auto;"">
                                <img src=""images/map15_YlGnBu_scaleDef_orientMir_270.png"" style= ""width:200px""alt=""img"">
                            </div>
                        </div>","-118","","0","","","","images/map15_YlGnBu_scaleDef_orientMir_270.png","happy","1","15","15","YlGnBu","orientMir","scaleDef","270","",""
"","","","","","html-slider-response","139","370860","0.0-135.0","qq53fj4u3q","17","NaN","<div style=""width:500px;"">
                            <p style=""font-size:50px; font-weight:bold;""
                            >happy</p>
                            <div style=""width:240px; margin: auto;"">
                                <img src=""images/map10_Greys_scaleDef_orientDef_270.png"" style= ""width:200px""alt=""img"">
                            </div>
                        </div>","-200","","0","","","","images/map10_Greys_scaleDef_orientDef_270.png","happy","1","10","10","Greys","orientDef","scaleDef","270","",""
"","","","","","html-slider-response","140","372677","0.0-136.0","qq53fj4u3q","17","NaN","<div style=""width:500px;"">
                            <p style=""font-size:50px; font-weight:bold;""
                            >happy</p>
                            <div style=""width:240px; margin: auto;"">
                                <img src=""images/map02_coolwarm_scaleRev_orientDef_180.png"" style= ""width:200px""alt=""img"">
                            </div>
                        </div>","174","","0","","","","images/map02_coolwarm_scaleRev_orientDef_180.png","happy","1","02","02","coolwarm","orientDef","scaleRev","180","",""
"","","","","","html-button-response","141","374852","0.0-137.0","qq53fj4u3q","17","1673","<p>You are doing great!<br></br> You are halway done with the current block. When you are ready to continue, click the 'Continue' button.</p>","0","","","","","","","","","","","","","","","",""
"","","","","","html-slider-response","142","376278","0.0-138.0","qq53fj4u3q","17","NaN","<div style=""width:500px;"">
                            <p style=""font-size:50px; font-weight:bold;""
                            >happy</p>
                            <div style=""width:240px; margin: auto;"">
                                <img src=""images/map12_Oranges_scaleRev_orientMir_000.png"" style= ""width:200px""alt=""img"">
                            </div>
                        </div>","103","","0","","","","images/map12_Oranges_scaleRev_orientMir_000.png","happy","1","12","12","Oranges","orientMir","scaleRev","000","",""
"","","","","","html-slider-response","143","377479","0.0-139.0","qq53fj4u3q","17","NaN","<div style=""width:500px;"">
                            <p style=""font-size:50px; font-weight:bold;""
                            >happy</p>
                            <div style=""width:240px; margin: auto;"">
                                <img src=""images/map23_BuGn_scaleRev_orientMir_000.png"" style= ""width:200px""alt=""img"">
                            </div>
                        </div>","-134","","0","","","","images/map23_BuGn_scaleRev_orientMir_000.png","happy","1","23","23","BuGn","orientMir","scaleRev","000","",""
"","","","","","html-slider-response","144","379094","0.0-140.0","qq53fj4u3q","17","NaN","<div style=""width:500px;"">
                            <p style=""font-size:50px; font-weight:bold;""
                            >happy</p>
                            <div style=""width:240px; margin: auto;"">
                                <img src=""images/map05_vanimo_scaleRev_orientMir_000.png"" style= ""width:200px""alt=""img"">
                            </div>
                        </div>","-161","","0","","","","images/map05_vanimo_scaleRev_orientMir_000.png","happy","1","05","05","vanimo","orientMir","scaleRev","000","",""
"","","","","","html-slider-response","145","380394","0.0-141.0","qq53fj4u3q","17","NaN","<div style=""width:500px;"">
                            <p style=""font-size:50px; font-weight:bold;""
                            >happy</p>
                            <div style=""width:240px; margin: auto;"">
                                <img src=""images/map10_Greys_scaleRev_orientMir_000.png"" style= ""width:200px""alt=""img"">
                            </div>
                        </div>","-200","","0","","","","images/map10_Greys_scaleRev_orientMir_000.png","happy","1","10","10","Greys","orientMir","scaleRev","000","",""
"","","","","","html-slider-response","146","381910","0.0-142.0","qq53fj4u3q","17","NaN","<div style=""width:500px;"">
                            <p style=""font-size:50px; font-weight:bold;""
                            >happy</p>
                            <div style=""width:240px; margin: auto;"">
                                <img src=""images/map15_RdPu_scaleRev_orientDef_000.png"" style= ""width:200px""alt=""img"">
                            </div>
                        </div>","134","","0","","","","images/map15_RdPu_scaleRev_orientDef_000.png","happy","1","15","15","RdPu","orientDef","scaleRev","000","",""
"","","","","","html-slider-response","147","383394","0.0-143.0","qq53fj4u3q","17","NaN","<div style=""width:500px;"">
                            <p style=""font-size:50px; font-weight:bold;""
                            >happy</p>
                            <div style=""width:240px; margin: auto;"">
                                <img src=""images/map15_GnBu_scaleRev_orientMir_000.png"" style= ""width:200px""alt=""img"">
                            </div>
                        </div>","-152","","0","","","","images/map15_GnBu_scaleRev_orientMir_000.png","happy","1","15","15","GnBu","orientMir","scaleRev","000","",""
"","","","","","html-slider-response","148","384728","0.0-144.0","qq53fj4u3q","17","NaN","<div style=""width:500px;"">
                            <p style=""font-size:50px; font-weight:bold;""
                            >happy</p>
                            <div style=""width:240px; margin: auto;"">
                                <img src=""images/map12_Greens_scaleDef_orientDef_090.png"" style= ""width:200px""alt=""img"">
                            </div>
                        </div>","-100","","0","","","","images/map12_Greens_scaleDef_orientDef_090.png","happy","1","12","12","Greens","orientDef","scaleDef","090","",""
"","","","","","html-slider-response","149","386244","0.0-145.0","qq53fj4u3q","17","NaN","<div style=""width:500px;"">
                            <p style=""font-size:50px; font-weight:bold;""
                            >happy</p>
                            <div style=""width:240px; margin: auto;"">
                                <img src=""images/map15_GnBu_scaleDef_orientDef_270.png"" style= ""width:200px""alt=""img"">
                            </div>
                        </div>","-105","","0","","","","images/map15_GnBu_scaleDef_orientDef_270.png","happy","1","15","15","GnBu","orientDef","scaleDef","270","",""
"","","","","","html-slider-response","150","387744","0.0-146.0","qq53fj4u3q","17","NaN","<div style=""width:500px;"">
                            <p style=""font-size:50px; font-weight:bold;""
                            >happy</p>
                            <div style=""width:240px; margin: auto;"">
                                <img src=""images/map13_RdPu_scaleDef_orientMir_270.png"" style= ""width:200px""alt=""img"">
                            </div>
                        </div>","126","","0","","","","images/map13_RdPu_scaleDef_orientMir_270.png","happy","1","13","13","RdPu","orientMir","scaleDef","270","",""
"","","","","","html-slider-response","151","389110","0.0-147.0","qq53fj4u3q","17","NaN","<div style=""width:500px;"">
                            <p style=""font-size:50px; font-weight:bold;""
                            >happy</p>
                            <div style=""width:240px; margin: auto;"">
                                <img src=""images/map26_PRGn_scaleDef_orientDef_090.png"" style= ""width:200px""alt=""img"">
                            </div>
                        </div>","-94","","0","","","","images/map26_PRGn_scaleDef_orientDef_090.png","happy","1","26","26","PRGn","orientDef","scaleDef","090","",""
"","","","","","html-slider-response","152","390894","0.0-148.0","qq53fj4u3q","17","NaN","<div style=""width:500px;"">
                            <p style=""font-size:50px; font-weight:bold;""
                            >happy</p>
                            <div style=""width:240px; margin: auto;"">
                                <img src=""images/map05_gist_earth_scaleDef_orientMir_090.png"" style= ""width:200px""alt=""img"">
                            </div>
                        </div>","46","","0","","","","images/map05_gist_earth_scaleDef_orientMir_090.png","happy","1","05","05","gist","scaleDef","earth","orientMir","",""
"","","","","","html-slider-response","153","392528","0.0-149.0","qq53fj4u3q","17","NaN","<div style=""width:500px;"">
                            <p style=""font-size:50px; font-weight:bold;""
                            >happy</p>
                            <div style=""width:240px; margin: auto;"">
                                <img src=""images/map12_YlOrBr_scaleDef_orientMir_270.png"" style= ""width:200px""alt=""img"">
                            </div>
                        </div>","200","","0","","","","images/map12_YlOrBr_scaleDef_orientMir_270.png","happy","1","12","12","YlOrBr","orientMir","scaleDef","270","",""
"","","","","","html-slider-response","154","393910","0.0-150.0","qq53fj4u3q","17","NaN","<div style=""width:500px;"">
                            <p style=""font-size:50px; font-weight:bold;""
                            >happy</p>
                            <div style=""width:240px; margin: auto;"">
                                <img src=""images/map10_Blues_scaleDef_orientMir_270.png"" style= ""width:200px""alt=""img"">
                            </div>
                        </div>","-144","","0","","","","images/map10_Blues_scaleDef_orientMir_270.png","happy","1","10","10","Blues","orientMir","scaleDef","270","",""
"","","","","","html-slider-response","155","395544","0.0-151.0","qq53fj4u3q","17","NaN","<div style=""width:500px;"">
                            <p style=""font-size:50px; font-weight:bold;""
                            >happy</p>
                            <div style=""width:240px; margin: auto;"">
                                <img src=""images/map05_managua_scaleRev_orientDef_180.png"" style= ""width:200px""alt=""img"">
                            </div>
                        </div>","70","","0","","","","images/map05_managua_scaleRev_orientDef_180.png","happy","1","05","05","managua","orientDef","scaleRev","180","",""
"","","","","","html-slider-response","156","397227","0.0-152.0","qq53fj4u3q","17","NaN","<div style=""width:500px;"">
                            <p style=""font-size:50px; font-weight:bold;""
                            >happy</p>
                            <div style=""width:240px; margin: auto;"">
                                <img src=""images/map02_seismic_scaleRev_orientMir_180.png"" style= ""width:200px""alt=""img"">
                            </div>
                        </div>","167","","0","","","","images/map02_seismic_scaleRev_orientMir_180.png","happy","1","02","02","seismic","orientMir","scaleRev","180","",""
"","","","","","html-slider-response","157","399094","0.0-153.0","qq53fj4u3q","17","NaN","<div style=""width:500px;"">
                            <p style=""font-size:50px; font-weight:bold;""
                            >happy</p>
                            <div style=""width:240px; margin: auto;"">
                                <img src=""images/map02_bwr_scaleDef_orientDef_270.png"" style= ""width:200px""alt=""img"">
                            </div>
