"success","timeout","failed_images","failed_audio","failed_video","trial_type","trial_index","time_elapsed","internal_node_id","subject_id","condition_num","rt","stimulus","response","question_order","slider_start","practiceTrial","practiceTrialNum","correct","image_path","concept","repetition","map_id","map_num","scale_name","orientation_code","mapping_code","rotation_code","ishihara_plate","correct_response"
"true","false","[]","[]","[]","preload","0","1635","0.0-0.0","r2mv83w0ph","76","","","","","","","","","","","","","","","","","","",""
"","","","","","html-button-response","1","2686","0.0-1.0","r2mv83w0ph","76","1048","Welcome to our experiment!<p>At the bottom of this screen, you will see a button that says ""Begin Experiment"".<br>Please only click that button when you are ready to complete the 30 minute experiment in one sitting.</p><p> Once you click that button, it will not be possible to restart the experiment.","0","","","","","","","","","","","","","","","",""
"true","","","","","fullscreen","2","4538","0.0-2.0","r2mv83w0ph","76","847","","","","","","","","","","","","","","","","","",""
"","","","","","survey-multi-select","3","8237","0.0-3.0","r2mv83w0ph","76","3693","","{""Consent"":[""<strong>I consent</strong>""]}","[0]","","","","","","","","","","","","","","",""
"","","","","","html-button-response","4","10284","0.0-4.0","r2mv83w0ph","76","2045","Welcome! <p> This experiment involves two parts: demographic information, followed by the experimental task.<p> It will take about 30 minutes to complete both parts.","0","","","","","","","","","","","","","","","",""
"","","","","","survey-text","5","22905","0.0-5.0","r2mv83w0ph","76","12605","","{""Age"":""20"",""Gender"":""female"",""Race/ethnicity"":""white"",""Languages"":""english""}","","","","","","","","","","","","","","","",""
"","","","","","html-slider-response","6","44167","0.0-6.0","r2mv83w0ph","76","21258","<div style='text-align:left; font-size:20px; line-height:25px; width: 1000px;'>
                                During this experiment you will be asked to rate how much you associate maps with                    different concepts.<br> Below, you can see some examples of the maps you will be asked to rate. Above the maps
                    is the list of concepts.<br>You will be asked                    to rate how much you associate each map with each concept on a scale from 'not at all' to 'very much' like the
                    one below. <br><br>
                    Now, please look at the list of concepts and maps. For each concept, think about the map you associate 'very
                    much' with the concept.<br>                     When you see that map during the experiment, please rate it near the 'very much' endpoint of the
                    scale.<br>Now, please think about which map you associate 'not at all'                     with each concept. When you see that map during the experiment, please rate it near the 'not at all' endpoint
                    of the scale.<br>
                    Please use the full range of the scale. That is, if a map is somewhat associated with the concept, you would
                    click partway between the middle point and right side of the scale.                    You will be asked to rate each map for a given concept before moving on to the next concept.<br>Press the
                    'Continue' button for instructions on how to use the slider.                    <br>
                </div>

                <div style=""width: 500px; margin: 0 auto;"">
                    <!-- Centered text paragraphs -->
                    <div style=""text-align: center; width: 500px;"">
                        <p style=""font-size:25px; line-height:15px;"">
                            sad&nbsp;&nbsp;&nbsp;&nbsp;
                            disgust&nbsp;&nbsp;&nbsp;&nbsp;
                            fearful&nbsp;&nbsp;&nbsp;&nbsp;
                            angry&nbsp;&nbsp;&nbsp;&nbsp;
                            happy
                        </p>
                        <!-- <p style=""font-size:20px; line-height:15px;"">disgust</p>
                        <p style=""font-size:20px;line-height:15px;"">fearful</p>
                        <p style=""font-size:20px;line-height:15px;"">angry</p>
                        <p style=""font-size:20px;line-height:15px;"">happy</p> -->
                    </div>
            

                    <!-- Grid section -->
                   <div style=""display: flex; justify-content: center; padding-top: 15px;"">
                    <div style=""display: grid; grid-template-columns: repeat(10, 55px); grid-gap: 5px; width: auto;"">
                        <img src=""images/map10_GnBu_scaleDef_orientMir_180.png"" alt=""map"" style=""width: 100%;""><img src=""images/map02_Greys_scaleRev_orientMir_270.png"" alt=""map"" style=""width: 100%;""><img src=""images/map12_YlGnBu_scaleDef_orientDef_180.png"" alt=""map"" style=""width: 100%;""><img src=""images/map15_RdGy_scaleDef_orientDef_180.png"" alt=""map"" style=""width: 100%;""><img src=""images/map27_plasma_scaleRev_orientMir_270.png"" alt=""map"" style=""width: 100%;""><img src=""images/map02_cividis_scaleDef_orientMir_000.png"" alt=""map"" style=""width: 100%;""><img src=""images/map15_PuOr_scaleDef_orientDef_000.png"" alt=""map"" style=""width: 100%;""><img src=""images/map13_BrBG_scaleDef_orientMir_180.png"" alt=""map"" style=""width: 100%;""><img src=""images/map27_viridis_scaleRev_orientMir_090.png"" alt=""map"" style=""width: 100%;""><img src=""images/map07_OrRd_scaleDef_orientMir_180.png"" alt=""map"" style=""width: 100%;""><img src=""images/map05_Oranges_scaleDef_orientMir_180.png"" alt=""map"" style=""width: 100%;""><img src=""images/map23_RdYlGn_scaleDef_orientDef_000.png"" alt=""map"" style=""width: 100%;""><img src=""images/map26_managua_scaleRev_orientMir_090.png"" alt=""map"" style=""width: 100%;""><img src=""images/map10_BuPu_scaleRev_orientMir_090.png"" alt=""map"" style=""width: 100%;""><img src=""images/map26_vanimo_scaleRev_orientMir_270.png"" alt=""map"" style=""width: 100%;""><img src=""images/map27_gist_earth_scaleRev_orientDef_090.png"" alt=""map"" style=""width: 100%;""><img src=""images/map07_YlOrRd_scaleRev_orientMir_090.png"" alt=""map"" style=""width: 100%;""><img src=""images/map10_PuRd_scaleDef_orientDef_000.png"" alt=""map"" style=""width: 100%;""><img src=""images/map23_coolwarm_scaleDef_orientMir_000.png"" alt=""map"" style=""width: 100%;""><img src=""images/map10_RdPu_scaleRev_orientDef_270.png"" alt=""map"" style=""width: 100%;""><img src=""images/map12_BuGn_scaleRev_orientMir_270.png"" alt=""map"" style=""width: 100%;""><img src=""images/map07_YlOrBr_scaleDef_orientDef_180.png"" alt=""map"" style=""width: 100%;""><img src=""images/map12_PuBuGn_scaleRev_orientMir_090.png"" alt=""map"" style=""width: 100%;""><img src=""images/map13_YlGn_scaleRev_orientDef_090.png"" alt=""map"" style=""width: 100%;""><img src=""images/map23_bwr_scaleRev_orientMir_270.png"" alt=""map"" style=""width: 100%;""><img src=""images/map07_Reds_scaleDef_orientDef_000.png"" alt=""map"" style=""width: 100%;""><img src=""images/map23_Spectral_scaleDef_orientDef_180.png"" alt=""map"" style=""width: 100%;""><img src=""images/map26_seismic_scaleRev_orientDef_090.png"" alt=""map"" style=""width: 100%;""><img src=""images/map05_Greens_scaleDef_orientMir_000.png"" alt=""map"" style=""width: 100%;""><img src=""images/map27_turbo_scaleRev_orientDef_270.png"" alt=""map"" style=""width: 100%;""><img src=""images/map05_Purples_scaleDef_orientDef_000.png"" alt=""map"" style=""width: 100%;""><img src=""images/map12_PuBu_scaleDef_orientDef_000.png"" alt=""map"" style=""width: 100%;""><img src=""images/map13_PRGn_scaleRev_orientMir_090.png"" alt=""map"" style=""width: 100%;""><img src=""images/map15_RdBu_scaleDef_orientMir_000.png"" alt=""map"" style=""width: 100%;""><img src=""images/map02_inferno_scaleRev_orientDef_090.png"" alt=""map"" style=""width: 100%;""><img src=""images/map26_berlin_scaleDef_orientDef_180.png"" alt=""map"" style=""width: 100%;""><img src=""images/map15_RdYlBu_scaleDef_orientMir_180.png"" alt=""map"" style=""width: 100%;""><img src=""images/map05_Blues_scaleDef_orientDef_180.png"" alt=""map"" style=""width: 100%;""><img src=""images/map02_magma_scaleRev_orientDef_270.png"" alt=""map"" style=""width: 100%;""><img src=""images/map13_PiYG_scaleRev_orientDef_270.png"" alt=""map"" style=""width: 100%;"">
                    </div>
                </div>

                    <!-- Clear floats -->
                    <div style=""clear: both;""></div>
                </div>
                            ","132","","0","true","","","","","","","","","","","","",""
"","","","","","html-button-response","7","45568","0.0-7.0","r2mv83w0ph","76","1399","<div style=""width:800px;""><p style=""text-align:left"">To move the slider, click and drag your cursor to the location of the scale where you would like to make your rating and then let go. When you let go of the slider, your response will be recorded and the next trial will begin. <br>
                    We are interested in your initial impressions of each map for the given concept, so please go with your first intuition. <br>
                    Before you begin the experiment, there will be four training trials for you to practice using the scale. <br>
                     When you are ready to start the training trials, please click ""Continue"".</p><br></div>","0","","","","","","","","","","","","","","","",""
"","","","","","html-slider-response","8","49529","0.0-8.0-0.0","r2mv83w0ph","76","NaN","<div style=""width:500px;"">
                                    <p style=""font-size:25px;"">Please move the slider all the way to the <br> right endpoint of the scale</p>

                                    </div>
                                </div>","200","","0","true","0","true","","","","","","","","","","",""
"","","","","","html-button-response","9","50768","0.0-8.0-1.0","r2mv83w0ph","76","734","<p align='center'><b>Good job!</b> Click on 'Continue' to proceed.</p>","0","","","","","","","","","","","","","","","",""
"","","","","","html-slider-response","10","52029","0.0-9.0-0.0","r2mv83w0ph","76","NaN","<div style=""width:500px;"">
                                    <p style=""font-size:25px;"">Please move the slider all the way to the <br> left endpoint of the scale</p>

                                    </div>
                                </div>","-200","","0","true","1","true","","","","","","","","","","",""
"","","","","","html-button-response","11","53184","0.0-9.0-1.0","r2mv83w0ph","76","652","<p align='center'><b>Good job!</b> Click on 'Continue' to proceed.</p>","0","","","","","","","","","","","","","","","",""
"","","","","","html-slider-response","12","57561","0.0-10.0-0.0","r2mv83w0ph","76","NaN","<div style=""width:500px;"">
                                    <p style=""font-size:25px;"">Please move the slider halfway between the center and right endpoint of the scale</p>

                                    </div>
                                </div>","107","","0","true","2","true","","","","","","","","","","",""
"","","","","","html-button-response","13","58718","0.0-10.0-1.0","r2mv83w0ph","76","654","<p align='center'><b>Good job!</b> Click on 'Continue' to proceed.</p>","0","","","","","","","","","","","","","","","",""
"","","","","","html-slider-response","14","60346","0.0-11.0-0.0","r2mv83w0ph","76","NaN","<div style=""width:500px;"">
                                    <p style=""font-size:25px;"">Please move the slider halfway between the center and left endpoint of the scale</p>

                                    </div>
                                </div>","-114","","0","true","3","false","","","","","","","","","","",""
"","","","","","html-button-response","15","61984","0.0-11.0-1.0","r2mv83w0ph","76","1135","<p align='center'><b>Not quite!</b> The slider was not placed near the instructed located. Click on 'Continue' to try again. </p>","0","","","","","","","","","","","","","","","",""
"","","","","","html-slider-response","16","64945","0.0-11.1-0.1","r2mv83w0ph","76","NaN","<div style=""width:500px;"">
                                    <p style=""font-size:25px;"">Please move the slider halfway between the center and left endpoint of the scale</p>

                                    </div>
                                </div>","-102","","0","true","3","true","","","","","","","","","","",""
"","","","","","html-button-response","17","66185","0.0-11.1-1.1","r2mv83w0ph","76","738","<p align='center'><b>Good job!</b> Click on 'Continue' to proceed.</p>","0","","","","","","","","","","","","","","","",""
"","","","","","html-button-response","18","66918","0.0-12.0","r2mv83w0ph","76","732","<p>Great job! You've completed the practice trials. Now you will begin the main task.</p>","0","","","","","","","","","","","","","","","",""
"","","","","","html-button-response","19","69301","0.0-13.0","r2mv83w0ph","76","2382","<p>In this block of trials, you will be asked to rate how much you associate each map with:</p > <p style = 'font-size:150%; font-weight: bold'>sad</p><br></br>","0","","","","","","","","","","","","","","","",""
"","","","","","html-slider-response","20","72262","0.0-14.0","r2mv83w0ph","76","NaN","<div style=""width:500px;"">
                            <p style=""font-size:50px; font-weight:bold;""
                            >sad</p>
                            <div style=""width:240px; margin: auto;"">
                                <img src=""images/map07_YlOrRd_scaleDef_orientMir_000.png"" style= ""width:200px""alt=""img"">
                            </div>
                        </div>","-90","","0","","","","images/map07_YlOrRd_scaleDef_orientMir_000.png","sad","1","07","07","YlOrRd","orientMir","scaleDef","000","",""
"","","","","","html-slider-response","21","74896","0.0-15.0","r2mv83w0ph","76","NaN","<div style=""width:500px;"">
                            <p style=""font-size:50px; font-weight:bold;""
                            >sad</p>
                            <div style=""width:240px; margin: auto;"">
                                <img src=""images/map07_YlOrRd_scaleRev_orientMir_090.png"" style= ""width:200px""alt=""img"">
                            </div>
                        </div>","-150","","0","","","","images/map07_YlOrRd_scaleRev_orientMir_090.png","sad","1","07","07","YlOrRd","orientMir","scaleRev","090","",""
"","","","","","html-slider-response","22","76912","0.0-16.0","r2mv83w0ph","76","NaN","<div style=""width:500px;"">
                            <p style=""font-size:50px; font-weight:bold;""
                            >sad</p>
                            <div style=""width:240px; margin: auto;"">
                                <img src=""images/map13_BrBG_scaleDef_orientMir_180.png"" style= ""width:200px""alt=""img"">
                            </div>
                        </div>","100","","0","","","","images/map13_BrBG_scaleDef_orientMir_180.png","sad","1","13","13","BrBG","orientMir","scaleDef","180","",""
"","","","","","html-slider-response","23","79278","0.0-17.0","r2mv83w0ph","76","NaN","<div style=""width:500px;"">
                            <p style=""font-size:50px; font-weight:bold;""
                            >sad</p>
                            <div style=""width:240px; margin: auto;"">
                                <img src=""images/map07_Reds_scaleRev_orientDef_090.png"" style= ""width:200px""alt=""img"">
                            </div>
                        </div>","-135","","0","","","","images/map07_Reds_scaleRev_orientDef_090.png","sad","1","07","07","Reds","orientDef","scaleRev","090","",""
"","","","","","html-slider-response","24","81663","0.0-18.0","r2mv83w0ph","76","NaN","<div style=""width:500px;"">
                            <p style=""font-size:50px; font-weight:bold;""
                            >sad</p>
                            <div style=""width:240px; margin: auto;"">
                                <img src=""images/map23_bwr_scaleRev_orientMir_270.png"" style= ""width:200px""alt=""img"">
                            </div>
                        </div>","77","","0","","","","images/map23_bwr_scaleRev_orientMir_270.png","sad","1","23","23","bwr","orientMir","scaleRev","270","",""
"","","","","","html-slider-response","25","84029","0.0-19.0","r2mv83w0ph","76","NaN","<div style=""width:500px;"">
                            <p style=""font-size:50px; font-weight:bold;""
                            >sad</p>
                            <div style=""width:240px; margin: auto;"">
                                <img src=""images/map12_BuGn_scaleRev_orientMir_270.png"" style= ""width:200px""alt=""img"">
                            </div>
                        </div>","-123","","0","","","","images/map12_BuGn_scaleRev_orientMir_270.png","sad","1","12","12","BuGn","orientMir","scaleRev","270","",""
"","","","","","html-slider-response","26","86196","0.0-20.0","r2mv83w0ph","76","NaN","<div style=""width:500px;"">
                            <p style=""font-size:50px; font-weight:bold;""
                            >sad</p>
                            <div style=""width:240px; margin: auto;"">
                                <img src=""images/map26_managua_scaleDef_orientMir_000.png"" style= ""width:200px""alt=""img"">
                            </div>
                        </div>","66","","0","","","","images/map26_managua_scaleDef_orientMir_000.png","sad","1","26","26","managua","orientMir","scaleDef","000","",""
"","","","","","html-slider-response","27","88178","0.0-21.0","r2mv83w0ph","76","NaN","<div style=""width:500px;"">
                            <p style=""font-size:50px; font-weight:bold;""
                            >sad</p>
                            <div style=""width:240px; margin: auto;"">
                                <img src=""images/map07_YlOrBr_scaleDef_orientDef_180.png"" style= ""width:200px""alt=""img"">
                            </div>
                        </div>","-96","","0","","","","images/map07_YlOrBr_scaleDef_orientDef_180.png","sad","1","07","07","YlOrBr","orientDef","scaleDef","180","",""
"","","","","","html-slider-response","28","90110","0.0-22.0","r2mv83w0ph","76","NaN","<div style=""width:500px;"">
                            <p style=""font-size:50px; font-weight:bold;""
                            >sad</p>
                            <div style=""width:240px; margin: auto;"">
                                <img src=""images/map10_PuRd_scaleDef_orientDef_000.png"" style= ""width:200px""alt=""img"">
                            </div>
                        </div>","-179","","0","","","","images/map10_PuRd_scaleDef_orientDef_000.png","sad","1","10","10","PuRd","orientDef","scaleDef","000","",""
"","","","","","html-slider-response","29","92294","0.0-23.0","r2mv83w0ph","76","NaN","<div style=""width:500px;"">
                            <p style=""font-size:50px; font-weight:bold;""
                            >sad</p>
                            <div style=""width:240px; margin: auto;"">
                                <img src=""images/map10_GnBu_scaleDef_orientMir_180.png"" style= ""width:200px""alt=""img"">
                            </div>
                        </div>","200","","0","","","","images/map10_GnBu_scaleDef_orientMir_180.png","sad","1","10","10","GnBu","orientMir","scaleDef","180","",""
"","","","","","html-slider-response","30","94164","0.0-24.0","r2mv83w0ph","76","NaN","<div style=""width:500px;"">
                            <p style=""font-size:50px; font-weight:bold;""
                            >sad</p>
                            <div style=""width:240px; margin: auto;"">
                                <img src=""images/map02_magma_scaleRev_orientDef_270.png"" style= ""width:200px""alt=""img"">
                            </div>
                        </div>","-132","","0","","","","images/map02_magma_scaleRev_orientDef_270.png","sad","1","02","02","magma","orientDef","scaleRev","270","",""
"","","","","","html-slider-response","31","95863","0.0-25.0","r2mv83w0ph","76","NaN","<div style=""width:500px;"">
                            <p style=""font-size:50px; font-weight:bold;""
                            >sad</p>
                            <div style=""width:240px; margin: auto;"">
                                <img src=""images/map05_Oranges_scaleDef_orientMir_180.png"" style= ""width:200px""alt=""img"">
                            </div>
                        </div>","-138","","0","","","","images/map05_Oranges_scaleDef_orientMir_180.png","sad","1","05","05","Oranges","orientMir","scaleDef","180","",""
"","","","","","html-slider-response","32","98613","0.0-26.0","r2mv83w0ph","76","NaN","<div style=""width:500px;"">
                            <p style=""font-size:50px; font-weight:bold;""
                            >sad</p>
                            <div style=""width:240px; margin: auto;"">
                                <img src=""images/map27_gist_earth_scaleRev_orientDef_090.png"" style= ""width:200px""alt=""img"">
                            </div>
                        </div>","63","","0","","","","images/map27_gist_earth_scaleRev_orientDef_090.png","sad","1","27","27","gist","scaleRev","earth","orientDef","",""
"","","","","","html-slider-response","33","100628","0.0-27.0","r2mv83w0ph","76","NaN","<div style=""width:500px;"">
                            <p style=""font-size:50px; font-weight:bold;""
                            >sad</p>
                            <div style=""width:240px; margin: auto;"">
                                <img src=""images/map13_PiYG_scaleRev_orientDef_270.png"" style= ""width:200px""alt=""img"">
                            </div>
                        </div>","-126","","0","","","","images/map13_PiYG_scaleRev_orientDef_270.png","sad","1","13","13","PiYG","orientDef","scaleRev","270","",""
"","","","","","html-slider-response","34","102763","0.0-28.0","r2mv83w0ph","76","NaN","<div style=""width:500px;"">
                            <p style=""font-size:50px; font-weight:bold;""
                            >sad</p>
                            <div style=""width:240px; margin: auto;"">
                                <img src=""images/map05_Purples_scaleDef_orientDef_000.png"" style= ""width:200px""alt=""img"">
                            </div>
                        </div>","61","","0","","","","images/map05_Purples_scaleDef_orientDef_000.png","sad","1","05","05","Purples","orientDef","scaleDef","000","",""
"","","","","","html-slider-response","35","105030","0.0-29.0","r2mv83w0ph","76","NaN","<div style=""width:500px;"">
                            <p style=""font-size:50px; font-weight:bold;""
                            >sad</p>
                            <div style=""width:240px; margin: auto;"">
                                <img src=""images/map07_YlOrBr_scaleRev_orientDef_270.png"" style= ""width:200px""alt=""img"">
                            </div>
                        </div>","-165","","0","","","","images/map07_YlOrBr_scaleRev_orientDef_270.png","sad","1","07","07","YlOrBr","orientDef","scaleRev","270","",""
"","","","","","html-slider-response","36","107045","0.0-30.0","r2mv83w0ph","76","NaN","<div style=""width:500px;"">
                            <p style=""font-size:50px; font-weight:bold;""
                            >sad</p>
                            <div style=""width:240px; margin: auto;"">
                                <img src=""images/map26_managua_scaleRev_orientMir_090.png"" style= ""width:200px""alt=""img"">
                            </div>
                        </div>","34","","0","","","","images/map26_managua_scaleRev_orientMir_090.png","sad","1","26","26","managua","orientMir","scaleRev","090","",""
"","","","","","html-slider-response","37","109080","0.0-31.0","r2mv83w0ph","76","NaN","<div style=""width:500px;"">
                            <p style=""font-size:50px; font-weight:bold;""
                            >sad</p>
                            <div style=""width:240px; margin: auto;"">
                                <img src=""images/map27_plasma_scaleRev_orientMir_270.png"" style= ""width:200px""alt=""img"">
                            </div>
                        </div>","61","","0","","","","images/map27_plasma_scaleRev_orientMir_270.png","sad","1","27","27","plasma","orientMir","scaleRev","270","",""
"","","","","","html-slider-response","38","110948","0.0-32.0","r2mv83w0ph","76","NaN","<div style=""width:500px;"">
                            <p style=""font-size:50px; font-weight:bold;""
                            >sad</p>
                            <div style=""width:240px; margin: auto;"">
                                <img src=""images/map13_PRGn_scaleDef_orientMir_000.png"" style= ""width:200px""alt=""img"">
                            </div>
                        </div>","-141","","0","","","","images/map13_PRGn_scaleDef_orientMir_000.png","sad","1","13","13","PRGn","orientMir","scaleDef","000","",""
"","","","","","html-slider-response","39","112796","0.0-33.0","r2mv83w0ph","76","NaN","<div style=""width:500px;"">
                            <p style=""font-size:50px; font-weight:bold;""
                            >sad</p>
                            <div style=""width:240px; margin: auto;"">
                                <img src=""images/map02_Greys_scaleDef_orientMir_180.png"" style= ""width:200px""alt=""img"">
                            </div>
                        </div>","-138","","0","","","","images/map02_Greys_scaleDef_orientMir_180.png","sad","1","02","02","Greys","orientMir","scaleDef","180","",""
"","","","","","html-slider-response","40","114279","0.0-34.0","r2mv83w0ph","76","NaN","<div style=""width:500px;"">
                            <p style=""font-size:50px; font-weight:bold;""
                            >sad</p>
                            <div style=""width:240px; margin: auto;"">
                                <img src=""images/map05_Greens_scaleDef_orientMir_000.png"" style= ""width:200px""alt=""img"">
                            </div>
                        </div>","2","","0","","","","images/map05_Greens_scaleDef_orientMir_000.png","sad","1","05","05","Greens","orientMir","scaleDef","000","",""
"","","","","","html-slider-response","41","116129","0.0-35.0","r2mv83w0ph","76","NaN","<div style=""width:500px;"">
                            <p style=""font-size:50px; font-weight:bold;""
                            >sad</p>
                            <div style=""width:240px; margin: auto;"">
                                <img src=""images/map26_seismic_scaleDef_orientDef_000.png"" style= ""width:200px""alt=""img"">
                            </div>
                        </div>","123","","0","","","","images/map26_seismic_scaleDef_orientDef_000.png","sad","1","26","26","seismic","orientDef","scaleDef","000","",""
"","","","","","html-slider-response","42","117995","0.0-36.0","r2mv83w0ph","76","NaN","<div style=""width:500px;"">
                            <p style=""font-size:50px; font-weight:bold;""
                            >sad</p>
                            <div style=""width:240px; margin: auto;"">
                                <img src=""images/map02_inferno_scaleRev_orientDef_090.png"" style= ""width:200px""alt=""img"">
                            </div>
                        </div>","-94","","0","","","","images/map02_inferno_scaleRev_orientDef_090.png","sad","1","02","02","inferno","orientDef","scaleRev","090","",""
"","","","","","html-slider-response","43","119762","0.0-37.0","r2mv83w0ph","76","NaN","<div style=""width:500px;"">
                            <p style=""font-size:50px; font-weight:bold;""
                            >sad</p>
                            <div style=""width:240px; margin: auto;"">
                                <img src=""images/map23_RdYlGn_scaleDef_orientDef_000.png"" style= ""width:200px""alt=""img"">
                            </div>
                        </div>","-150","","0","","","","images/map23_RdYlGn_scaleDef_orientDef_000.png","sad","1","23","23","RdYlGn","orientDef","scaleDef","000","",""
"","","","","","html-slider-response","44","121514","0.0-38.0","r2mv83w0ph","76","NaN","<div style=""width:500px;"">
                            <p style=""font-size:50px; font-weight:bold;""
                            >sad</p>
                            <div style=""width:240px; margin: auto;"">
                                <img src=""images/map23_RdYlGn_scaleRev_orientDef_090.png"" style= ""width:200px""alt=""img"">
                            </div>
                        </div>","-200","","0","","","","images/map23_RdYlGn_scaleRev_orientDef_090.png","sad","1","23","23","RdYlGn","orientDef","scaleRev","090","",""
"","","","","","html-slider-response","45","124081","0.0-39.0","r2mv83w0ph","76","NaN","<div style=""width:500px;"">
                            <p style=""font-size:50px; font-weight:bold;""
                            >sad</p>
                            <div style=""width:240px; margin: auto;"">
                                <img src=""images/map23_Spectral_scaleRev_orientDef_270.png"" style= ""width:200px""alt=""img"">
                            </div>
                        </div>","18","","0","","","","images/map23_Spectral_scaleRev_orientDef_270.png","sad","1","23","23","Spectral","orientDef","scaleRev","270","",""
"","","","","","html-slider-response","46","125845","0.0-40.0","r2mv83w0ph","76","NaN","<div style=""width:500px;"">
                            <p style=""font-size:50px; font-weight:bold;""
                            >sad</p>
                            <div style=""width:240px; margin: auto;"">
                                <img src=""images/map13_PRGn_scaleRev_orientMir_090.png"" style= ""width:200px""alt=""img"">
                            </div>
                        </div>","-168","","0","","","","images/map13_PRGn_scaleRev_orientMir_090.png","sad","1","13","13","PRGn","orientMir","scaleRev","090","",""
"","","","","","html-slider-response","47","127295","0.0-41.0","r2mv83w0ph","76","NaN","<div style=""width:500px;"">
                            <p style=""font-size:50px; font-weight:bold;""
                            >sad</p>
                            <div style=""width:240px; margin: auto;"">
                                <img src=""images/map23_coolwarm_scaleRev_orientMir_090.png"" style= ""width:200px""alt=""img"">
                            </div>
                        </div>","62","","0","","","","images/map23_coolwarm_scaleRev_orientMir_090.png","sad","1","23","23","coolwarm","orientMir","scaleRev","090","",""
"","","","","","html-slider-response","48","128912","0.0-42.0","r2mv83w0ph","76","NaN","<div style=""width:500px;"">
                            <p style=""font-size:50px; font-weight:bold;""
                            >sad</p>
                            <div style=""width:240px; margin: auto;"">
                                <img src=""images/map27_viridis_scaleRev_orientMir_090.png"" style= ""width:200px""alt=""img"">
                            </div>
                        </div>","58","","0","","","","images/map27_viridis_scaleRev_orientMir_090.png","sad","1","27","27","viridis","orientMir","scaleRev","090","",""
"","","","","","html-slider-response","49","130812","0.0-43.0","r2mv83w0ph","76","NaN","<div style=""width:500px;"">
                            <p style=""font-size:50px; font-weight:bold;""
                            >sad</p>
                            <div style=""width:240px; margin: auto;"">
                                <img src=""images/map12_YlGnBu_scaleDef_orientDef_180.png"" style= ""width:200px""alt=""img"">
                            </div>
                        </div>","200","","0","","","","images/map12_YlGnBu_scaleDef_orientDef_180.png","sad","1","12","12","YlGnBu","orientDef","scaleDef","180","",""
"","","","","","html-slider-response","50","132445","0.0-44.0","r2mv83w0ph","76","NaN","<div style=""width:500px;"">
                            <p style=""font-size:50px; font-weight:bold;""
                            >sad</p>
                            <div style=""width:240px; margin: auto;"">
                                <img src=""images/map10_PuRd_scaleRev_orientDef_090.png"" style= ""width:200px""alt=""img"">
                            </div>
                        </div>","-116","","0","","","","images/map10_PuRd_scaleRev_orientDef_090.png","sad","1","10","10","PuRd","orientDef","scaleRev","090","",""
"","","","","","html-slider-response","51","134411","0.0-45.0","r2mv83w0ph","76","NaN","<div style=""width:500px;"">
                            <p style=""font-size:50px; font-weight:bold;""
                            >sad</p>
                            <div style=""width:240px; margin: auto;"">
                                <img src=""images/map05_Oranges_scaleRev_orientMir_270.png"" style= ""width:200px""alt=""img"">
                            </div>
                        </div>","-117","","0","","","","images/map05_Oranges_scaleRev_orientMir_270.png","sad","1","05","05","Oranges","orientMir","scaleRev","270","",""
"","","","","","html-slider-response","52","136029","0.0-46.0","r2mv83w0ph","76","NaN","<div style=""width:500px;"">
                            <p style=""font-size:50px; font-weight:bold;""
                            >sad</p>
                            <div style=""width:240px; margin: auto;"">
                                <img src=""images/map27_turbo_scaleDef_orientDef_180.png"" style= ""width:200px""alt=""img"">
                            </div>
                        </div>","82","","0","","","","images/map27_turbo_scaleDef_orientDef_180.png","sad","1","27","27","turbo","orientDef","scaleDef","180","",""
"","","","","","html-slider-response","53","138896","0.0-47.0","r2mv83w0ph","76","NaN","<div style=""width:500px;"">
                            <p style=""font-size:50px; font-weight:bold;""
                            >sad</p>
                            <div style=""width:240px; margin: auto;"">
                                <img src=""images/map02_cividis_scaleRev_orientMir_090.png"" style= ""width:200px""alt=""img"">
                            </div>
                        </div>","10","","0","","","","images/map02_cividis_scaleRev_orientMir_090.png","sad","1","02","02","cividis","orientMir","scaleRev","090","",""
"","","","","","html-slider-response","54","140478","0.0-48.0","r2mv83w0ph","76","NaN","<div style=""width:500px;"">
                            <p style=""font-size:50px; font-weight:bold;""
                            >sad</p>
                            <div style=""width:240px; margin: auto;"">
                                <img src=""images/map13_BrBG_scaleRev_orientMir_270.png"" style= ""width:200px""alt=""img"">
                            </div>
                        </div>","59","","0","","","","images/map13_BrBG_scaleRev_orientMir_270.png","sad","1","13","13","BrBG","orientMir","scaleRev","270","",""
"","","","","","html-slider-response","55","141997","0.0-49.0","r2mv83w0ph","76","NaN","<div style=""width:500px;"">
                            <p style=""font-size:50px; font-weight:bold;""
                            >sad</p>
                            <div style=""width:240px; margin: auto;"">
                                <img src=""images/map26_berlin_scaleRev_orientDef_270.png"" style= ""width:200px""alt=""img"">
                            </div>
                        </div>","85","","0","","","","images/map26_berlin_scaleRev_orientDef_270.png","sad","1","26","26","berlin","orientDef","scaleRev","270","",""
"","","","","","html-slider-response","56","145712","0.0-50.0","r2mv83w0ph","76","NaN","<div style=""width:500px;"">
                            <p style=""font-size:50px; font-weight:bold;""
                            >sad</p>
                            <div style=""width:240px; margin: auto;"">
                                <img src=""images/map27_gist_earth_scaleDef_orientDef_000.png"" style= ""width:200px""alt=""img"">
                            </div>
                        </div>","12","","0","","","","images/map27_gist_earth_scaleDef_orientDef_000.png","sad","1","27","27","gist","scaleDef","earth","orientDef","",""
"","","","","","html-slider-response","57","147245","0.0-51.0","r2mv83w0ph","76","NaN","<div style=""width:500px;"">
                            <p style=""font-size:50px; font-weight:bold;""
                            >sad</p>
                            <div style=""width:240px; margin: auto;"">
                                <img src=""images/map23_Spectral_scaleDef_orientDef_180.png"" style= ""width:200px""alt=""img"">
                            </div>
                        </div>","19","","0","","","","images/map23_Spectral_scaleDef_orientDef_180.png","sad","1","23","23","Spectral","orientDef","scaleDef","180","",""
"","","","","","html-slider-response","58","149512","0.0-52.0","r2mv83w0ph","76","NaN","<div style=""width:500px;"">
                            <p style=""font-size:50px; font-weight:bold;""
                            >sad</p>
                            <div style=""width:240px; margin: auto;"">
                                <img src=""images/map26_vanimo_scaleRev_orientMir_270.png"" style= ""width:200px""alt=""img"">
                            </div>
                        </div>","-170","","0","","","","images/map26_vanimo_scaleRev_orientMir_270.png","sad","1","26","26","vanimo","orientMir","scaleRev","270","",""
"","","","","","html-slider-response","59","151147","0.0-53.0","r2mv83w0ph","76","NaN","<div style=""width:500px;"">
                            <p style=""font-size:50px; font-weight:bold;""
                            >sad</p>
                            <div style=""width:240px; margin: auto;"">
                                <img src=""images/map27_viridis_scaleDef_orientMir_000.png"" style= ""width:200px""alt=""img"">
                            </div>
                        </div>","32","","0","","","","images/map27_viridis_scaleDef_orientMir_000.png","sad","1","27","27","viridis","orientMir","scaleDef","000","",""
"","","","","","html-button-response","60","152435","0.0-54.0","r2mv83w0ph","76","785","<p>You are doing great!<br></br> You are halway done with the current block. When you are ready to continue, click the 'Continue' button.</p>","0","","","","","","","","","","","","","","","",""
"","","","","","html-slider-response","61","154545","0.0-55.0","r2mv83w0ph","76","NaN","<div style=""width:500px;"">
                            <p style=""font-size:50px; font-weight:bold;""
                            >sad</p>
                            <div style=""width:240px; margin: auto;"">
                                <img src=""images/map15_RdGy_scaleDef_orientDef_180.png"" style= ""width:200px""alt=""img"">
                            </div>
                        </div>","-83","","0","","","","images/map15_RdGy_scaleDef_orientDef_180.png","sad","1","15","15","RdGy","orientDef","scaleDef","180","",""
"","","","","","html-slider-response","62","156096","0.0-56.0","r2mv83w0ph","76","NaN","<div style=""width:500px;"">
                            <p style=""font-size:50px; font-weight:bold;""
                            >sad</p>
                            <div style=""width:240px; margin: auto;"">
                                <img src=""images/map15_PuOr_scaleRev_orientDef_090.png"" style= ""width:200px""alt=""img"">
                            </div>
                        </div>","21","","0","","","","images/map15_PuOr_scaleRev_orientDef_090.png","sad","1","15","15","PuOr","orientDef","scaleRev","090","",""
"","","","","","html-slider-response","63","157712","0.0-57.0","r2mv83w0ph","76","NaN","<div style=""width:500px;"">
                            <p style=""font-size:50px; font-weight:bold;""
                            >sad</p>
                            <div style=""width:240px; margin: auto;"">
                                <img src=""images/map23_coolwarm_scaleDef_orientMir_000.png"" style= ""width:200px""alt=""img"">
                            </div>
                        </div>","18","","0","","","","images/map23_coolwarm_scaleDef_orientMir_000.png","sad","1","23","23","coolwarm","orientMir","scaleDef","000","",""
"","","","","","html-slider-response","64","159363","0.0-58.0","r2mv83w0ph","76","NaN","<div style=""width:500px;"">
                            <p style=""font-size:50px; font-weight:bold;""
                            >sad</p>
                            <div style=""width:240px; margin: auto;"">
                                <img src=""images/map27_turbo_scaleRev_orientDef_270.png"" style= ""width:200px""alt=""img"">
                            </div>
                        </div>","19","","0","","","","images/map27_turbo_scaleRev_orientDef_270.png","sad","1","27","27","turbo","orientDef","scaleRev","270","",""
"","","","","","html-slider-response","65","160981","0.0-59.0","r2mv83w0ph","76","NaN","<div style=""width:500px;"">
                            <p style=""font-size:50px; font-weight:bold;""
                            >sad</p>
                            <div style=""width:240px; margin: auto;"">
                                <img src=""images/map12_YlGnBu_scaleRev_orientDef_270.png"" style= ""width:200px""alt=""img"">
                            </div>
                        </div>","187","","0","","","","images/map12_YlGnBu_scaleRev_orientDef_270.png","sad","1","12","12","YlGnBu","orientDef","scaleRev","270","",""
"","","","","","html-slider-response","66","162579","0.0-60.0","r2mv83w0ph","76","NaN","<div style=""width:500px;"">
                            <p style=""font-size:50px; font-weight:bold;""
                            >sad</p>
                            <div style=""width:240px; margin: auto;"">
                                <img src=""images/map10_RdPu_scaleRev_orientDef_270.png"" style= ""width:200px""alt=""img"">
                            </div>
                        </div>","-26","","0","","","","images/map10_RdPu_scaleRev_orientDef_270.png","sad","1","10","10","RdPu","orientDef","scaleRev","270","",""
"","","","","","html-slider-response","67","164015","0.0-61.0","r2mv83w0ph","76","NaN","<div style=""width:500px;"">
                            <p style=""font-size:50px; font-weight:bold;""
                            >sad</p>
                            <div style=""width:240px; margin: auto;"">
                                <img src=""images/map13_PiYG_scaleDef_orientDef_180.png"" style= ""width:200px""alt=""img"">
                            </div>
                        </div>","-140","","0","","","","images/map13_PiYG_scaleDef_orientDef_180.png","sad","1","13","13","PiYG","orientDef","scaleDef","180","",""
"","","","","","html-slider-response","68","165578","0.0-62.0","r2mv83w0ph","76","NaN","<div style=""width:500px;"">
                            <p style=""font-size:50px; font-weight:bold;""
                            >sad</p>
                            <div style=""width:240px; margin: auto;"">
                                <img src=""images/map12_PuBu_scaleRev_orientDef_090.png"" style= ""width:200px""alt=""img"">
                            </div>
                        </div>","200","","0","","","","images/map12_PuBu_scaleRev_orientDef_090.png","sad","1","12","12","PuBu","orientDef","scaleRev","090","",""
"","","","","","html-slider-response","69","167212","0.0-63.0","r2mv83w0ph","76","NaN","<div style=""width:500px;"">
                            <p style=""font-size:50px; font-weight:bold;""
                            >sad</p>
                            <div style=""width:240px; margin: auto;"">
                                <img src=""images/map26_vanimo_scaleDef_orientMir_180.png"" style= ""width:200px""alt=""img"">
                            </div>
                        </div>","-76","","0","","","","images/map26_vanimo_scaleDef_orientMir_180.png","sad","1","26","26","vanimo","orientMir","scaleDef","180","",""
"","","","","","html-slider-response","70","168730","0.0-64.0","r2mv83w0ph","76","NaN","<div style=""width:500px;"">
                            <p style=""font-size:50px; font-weight:bold;""
                            >sad</p>
                            <div style=""width:240px; margin: auto;"">
                                <img src=""images/map10_BuPu_scaleDef_orientMir_000.png"" style= ""width:200px""alt=""img"">
                            </div>
                        </div>","174","","0","","","","images/map10_BuPu_scaleDef_orientMir_000.png","sad","1","10","10","BuPu","orientMir","scaleDef","000","",""
"","","","","","html-slider-response","71","170264","0.0-65.0","r2mv83w0ph","76","NaN","<div style=""width:500px;"">
                            <p style=""font-size:50px; font-weight:bold;""
                            >sad</p>
                            <div style=""width:240px; margin: auto;"">
                                <img src=""images/map05_Blues_scaleDef_orientDef_180.png"" style= ""width:200px""alt=""img"">
                            </div>
                        </div>","200","","0","","","","images/map05_Blues_scaleDef_orientDef_180.png","sad","1","05","05","Blues","orientDef","scaleDef","180","",""
"","","","","","html-slider-response","72","171762","0.0-66.0","r2mv83w0ph","76","NaN","<div style=""width:500px;"">
                            <p style=""font-size:50px; font-weight:bold;""
                            >sad</p>
                            <div style=""width:240px; margin: auto;"">
                                <img src=""images/map12_PuBuGn_scaleDef_orientMir_000.png"" style= ""width:200px""alt=""img"">
                            </div>
                        </div>","161","","0","","","","images/map12_PuBuGn_scaleDef_orientMir_000.png","sad","1","12","12","PuBuGn","orientMir","scaleDef","000","",""
"","","","","","html-slider-response","73","173461","0.0-67.0","r2mv83w0ph","76","NaN","<div style=""width:500px;"">
                            <p style=""font-size:50px; font-weight:bold;""
                            >sad</p>
                            <div style=""width:240px; margin: auto;"">
                                <img src=""images/map07_OrRd_scaleRev_orientMir_270.png"" style= ""width:200px""alt=""img"">
                            </div>
                        </div>","-110","","0","","","","images/map07_OrRd_scaleRev_orientMir_270.png","sad","1","07","07","OrRd","orientMir","scaleRev","270","",""
"","","","","","html-slider-response","74","174964","0.0-68.0","r2mv83w0ph","76","NaN","<div style=""width:500px;"">
                            <p style=""font-size:50px; font-weight:bold;""
                            >sad</p>
                            <div style=""width:240px; margin: auto;"">
                                <img src=""images/map02_magma_scaleDef_orientDef_180.png"" style= ""width:200px""alt=""img"">
                            </div>
                        </div>","-200","","0","","","","images/map02_magma_scaleDef_orientDef_180.png","sad","1","02","02","magma","orientDef","scaleDef","180","",""
"","","","","","html-slider-response","75","176612","0.0-69.0","r2mv83w0ph","76","NaN","<div style=""width:500px;"">
                            <p style=""font-size:50px; font-weight:bold;""
                            >sad</p>
                            <div style=""width:240px; margin: auto;"">
                                <img src=""images/map05_Blues_scaleRev_orientDef_270.png"" style= ""width:200px""alt=""img"">
                            </div>
                        </div>","200","","0","","","","images/map05_Blues_scaleRev_orientDef_270.png","sad","1","05","05","Blues","orientDef","scaleRev","270","",""
"","","","","","html-slider-response","76","178479","0.0-70.0","r2mv83w0ph","76","NaN","<div style=""width:500px;"">
                            <p style=""font-size:50px; font-weight:bold;""
                            >sad</p>
                            <div style=""width:240px; margin: auto;"">
                                <img src=""images/map07_Reds_scaleDef_orientDef_000.png"" style= ""width:200px""alt=""img"">
                            </div>
                        </div>","-127","","0","","","","images/map07_Reds_scaleDef_orientDef_000.png","sad","1","07","07","Reds","orientDef","scaleDef","000","",""
"","","","","","html-slider-response","77","180247","0.0-71.0","r2mv83w0ph","76","NaN","<div style=""width:500px;"">
                            <p style=""font-size:50px; font-weight:bold;""
                            >sad</p>
                            <div style=""width:240px; margin: auto;"">
                                <img src=""images/map15_RdBu_scaleRev_orientMir_090.png"" style= ""width:200px""alt=""img"">
                            </div>
                        </div>","28","","0","","","","images/map15_RdBu_scaleRev_orientMir_090.png","sad","1","15","15","RdBu","orientMir","scaleRev","090","",""
"","","","","","html-slider-response","78","181913","0.0-72.0","r2mv83w0ph","76","NaN","<div style=""width:500px;"">
                            <p style=""font-size:50px; font-weight:bold;""
                            >sad</p>
                            <div style=""width:240px; margin: auto;"">
                                <img src=""images/map07_OrRd_scaleDef_orientMir_180.png"" style= ""width:200px""alt=""img"">
                            </div>
                        </div>","-200","","0","","","","images/map07_OrRd_scaleDef_orientMir_180.png","sad","1","07","07","OrRd","orientMir","scaleDef","180","",""
"","","","","","html-slider-response","79","183664","0.0-73.0","r2mv83w0ph","76","NaN","<div style=""width:500px;"">
                            <p style=""font-size:50px; font-weight:bold;""
                            >sad</p>
                            <div style=""width:240px; margin: auto;"">
                                <img src=""images/map26_seismic_scaleRev_orientDef_090.png"" style= ""width:200px""alt=""img"">
                            </div>
                        </div>","31","","0","","","","images/map26_seismic_scaleRev_orientDef_090.png","sad","1","26","26","seismic","orientDef","scaleRev","090","",""
"","","","","","html-slider-response","80","185095","0.0-74.0","r2mv83w0ph","76","NaN","<div style=""width:500px;"">
                            <p style=""font-size:50px; font-weight:bold;""
                            >sad</p>
                            <div style=""width:240px; margin: auto;"">
                                <img src=""images/map10_BuPu_scaleRev_orientMir_090.png"" style= ""width:200px""alt=""img"">
                            </div>
                        </div>","200","","0","","","","images/map10_BuPu_scaleRev_orientMir_090.png","sad","1","10","10","BuPu","orientMir","scaleRev","090","",""
"","","","","","html-slider-response","81","186914","0.0-75.0","r2mv83w0ph","76","NaN","<div style=""width:500px;"">
                            <p style=""font-size:50px; font-weight:bold;""
                            >sad</p>
                            <div style=""width:240px; margin: auto;"">
                                <img src=""images/map02_cividis_scaleDef_orientMir_000.png"" style= ""width:200px""alt=""img"">
                            </div>
                        </div>","75","","0","","","","images/map02_cividis_scaleDef_orientMir_000.png","sad","1","02","02","cividis","orientMir","scaleDef","000","",""
"","","","","","html-slider-response","82","188561","0.0-76.0","r2mv83w0ph","76","NaN","<div style=""width:500px;"">
                            <p style=""font-size:50px; font-weight:bold;""
                            >sad</p>
                            <div style=""width:240px; margin: auto;"">
                                <img src=""images/map13_YlGn_scaleDef_orientDef_000.png"" style= ""width:200px""alt=""img"">
                            </div>
                        </div>","-200","","0","","","","images/map13_YlGn_scaleDef_orientDef_000.png","sad","1","13","13","YlGn","orientDef","scaleDef","000","",""
"","","","","","html-slider-response","83","190245","0.0-77.0","r2mv83w0ph","76","NaN","<div style=""width:500px;"">
                            <p style=""font-size:50px; font-weight:bold;""
                            >sad</p>
                            <div style=""width:240px; margin: auto;"">
                                <img src=""images/map15_RdYlBu_scaleRev_orientMir_270.png"" style= ""width:200px""alt=""img"">
                            </div>
                        </div>","51","","0","","","","images/map15_RdYlBu_scaleRev_orientMir_270.png","sad","1","15","15","RdYlBu","orientMir","scaleRev","270","",""
"","","","","","html-slider-response","84","191813","0.0-78.0","r2mv83w0ph","76","NaN","<div style=""width:500px;"">
                            <p style=""font-size:50px; font-weight:bold;""
                            >sad</p>
                            <div style=""width:240px; margin: auto;"">
                                <img src=""images/map05_Purples_scaleRev_orientDef_090.png"" style= ""width:200px""alt=""img"">
                            </div>
                        </div>","200","","0","","","","images/map05_Purples_scaleRev_orientDef_090.png","sad","1","05","05","Purples","orientDef","scaleRev","090","",""
"","","","","","html-slider-response","85","193680","0.0-79.0","r2mv83w0ph","76","NaN","<div style=""width:500px;"">
                            <p style=""font-size:50px; font-weight:bold;""
                            >sad</p>
                            <div style=""width:240px; margin: auto;"">
                                <img src=""images/map15_RdGy_scaleRev_orientDef_270.png"" style= ""width:200px""alt=""img"">
                            </div>
                        </div>","-66","","0","","","","images/map15_RdGy_scaleRev_orientDef_270.png","sad","1","15","15","RdGy","orientDef","scaleRev","270","",""
"","","","","","html-slider-response","86","195049","0.0-80.0","r2mv83w0ph","76","NaN","<div style=""width:500px;"">
                            <p style=""font-size:50px; font-weight:bold;""
                            >sad</p>
                            <div style=""width:240px; margin: auto;"">
                                <img src=""images/map15_PuOr_scaleDef_orientDef_000.png"" style= ""width:200px""alt=""img"">
                            </div>
                        </div>","-106","","0","","","","images/map15_PuOr_scaleDef_orientDef_000.png","sad","1","15","15","PuOr","orientDef","scaleDef","000","",""
"","","","","","html-slider-response","87","196782","0.0-81.0","r2mv83w0ph","76","NaN","<div style=""width:500px;"">
                            <p style=""font-size:50px; font-weight:bold;""
                            >sad</p>
                            <div style=""width:240px; margin: auto;"">
                                <img src=""images/map15_RdBu_scaleDef_orientMir_000.png"" style= ""width:200px""alt=""img"">
                            </div>
                        </div>","25","","0","","","","images/map15_RdBu_scaleDef_orientMir_000.png","sad","1","15","15","RdBu","orientMir","scaleDef","000","",""
"","","","","","html-slider-response","88","198464","0.0-82.0","r2mv83w0ph","76","NaN","<div style=""width:500px;"">
                            <p style=""font-size:50px; font-weight:bold;""
                            >sad</p>
                            <div style=""width:240px; margin: auto;"">
                                <img src=""images/map12_PuBuGn_scaleRev_orientMir_090.png"" style= ""width:200px""alt=""img"">
                            </div>
                        </div>","126","","0","","","","images/map12_PuBuGn_scaleRev_orientMir_090.png","sad","1","12","12","PuBuGn","orientMir","scaleRev","090","",""
"","","","","","html-slider-response","89","199929","0.0-83.0","r2mv83w0ph","76","NaN","<div style=""width:500px;"">
                            <p style=""font-size:50px; font-weight:bold;""
                            >sad</p>
                            <div style=""width:240px; margin: auto;"">
                                <img src=""images/map10_RdPu_scaleDef_orientDef_180.png"" style= ""width:200px""alt=""img"">
                            </div>
                        </div>","-200","","0","","","","images/map10_RdPu_scaleDef_orientDef_180.png","sad","1","10","10","RdPu","orientDef","scaleDef","180","",""
"","","","","","html-slider-response","90","201931","0.0-84.0","r2mv83w0ph","76","NaN","<div style=""width:500px;"">
                            <p style=""font-size:50px; font-weight:bold;""
                            >sad</p>
                            <div style=""width:240px; margin: auto;"">
                                <img src=""images/map02_inferno_scaleDef_orientDef_000.png"" style= ""width:200px""alt=""img"">
                            </div>
                        </div>","-130","","0","","","","images/map02_inferno_scaleDef_orientDef_000.png","sad","1","02","02","inferno","orientDef","scaleDef","000","",""
"","","","","","html-slider-response","91","203396","0.0-85.0","r2mv83w0ph","76","NaN","<div style=""width:500px;"">
                            <p style=""font-size:50px; font-weight:bold;""
                            >sad</p>
                            <div style=""width:240px; margin: auto;"">
                                <img src=""images/map27_plasma_scaleDef_orientMir_180.png"" style= ""width:200px""alt=""img"">
                            </div>
                        </div>","-174","","0","","","","images/map27_plasma_scaleDef_orientMir_180.png","sad","1","27","27","plasma","orientMir","scaleDef","180","",""
"","","","","","html-slider-response","92","204947","0.0-86.0","r2mv83w0ph","76","NaN","<div style=""width:500px;"">
                            <p style=""font-size:50px; font-weight:bold;""
                            >sad</p>
                            <div style=""width:240px; margin: auto;"">
                                <img src=""images/map23_bwr_scaleDef_orientMir_180.png"" style= ""width:200px""alt=""img"">
                            </div>
                        </div>","51","","0","","","","images/map23_bwr_scaleDef_orientMir_180.png","sad","1","23","23","bwr","orientMir","scaleDef","180","",""
"","","","","","html-slider-response","93","206479","0.0-87.0","r2mv83w0ph","76","NaN","<div style=""width:500px;"">
                            <p style=""font-size:50px; font-weight:bold;""
                            >sad</p>
                            <div style=""width:240px; margin: auto;"">
                                <img src=""images/map12_PuBu_scaleDef_orientDef_000.png"" style= ""width:200px""alt=""img"">
                            </div>
                        </div>","48","","0","","","","images/map12_PuBu_scaleDef_orientDef_000.png","sad","1","12","12","PuBu","orientDef","scaleDef","000","",""
"","","","","","html-slider-response","94","207947","0.0-88.0","r2mv83w0ph","76","NaN","<div style=""width:500px;"">
                            <p style=""font-size:50px; font-weight:bold;""
                            >sad</p>
                            <div style=""width:240px; margin: auto;"">
                                <img src=""images/map13_YlGn_scaleRev_orientDef_090.png"" style= ""width:200px""alt=""img"">
                            </div>
                        </div>","-200","","0","","","","images/map13_YlGn_scaleRev_orientDef_090.png","sad","1","13","13","YlGn","orientDef","scaleRev","090","",""
"","","","","","html-slider-response","95","209362","0.0-89.0","r2mv83w0ph","76","NaN","<div style=""width:500px;"">
                            <p style=""font-size:50px; font-weight:bold;""
                            >sad</p>
                            <div style=""width:240px; margin: auto;"">
                                <img src=""images/map05_Greens_scaleRev_orientMir_090.png"" style= ""width:200px""alt=""img"">
                            </div>
                        </div>","-183","","0","","","","images/map05_Greens_scaleRev_orientMir_090.png","sad","1","05","05","Greens","orientMir","scaleRev","090","",""
"","","","","","html-slider-response","96","211062","0.0-90.0","r2mv83w0ph","76","NaN","<div style=""width:500px;"">
                            <p style=""font-size:50px; font-weight:bold;""
                            >sad</p>
                            <div style=""width:240px; margin: auto;"">
                                <img src=""images/map10_GnBu_scaleRev_orientMir_270.png"" style= ""width:200px""alt=""img"">
                            </div>
                        </div>","188","","0","","","","images/map10_GnBu_scaleRev_orientMir_270.png","sad","1","10","10","GnBu","orientMir","scaleRev","270","",""
"","","","","","html-slider-response","97","212630","0.0-91.0","r2mv83w0ph","76","NaN","<div style=""width:500px;"">
                            <p style=""font-size:50px; font-weight:bold;""
                            >sad</p>
                            <div style=""width:240px; margin: auto;"">
                                <img src=""images/map15_RdYlBu_scaleDef_orientMir_180.png"" style= ""width:200px""alt=""img"">
                            </div>
                        </div>","-53","","0","","","","images/map15_RdYlBu_scaleDef_orientMir_180.png","sad","1","15","15","RdYlBu","orientMir","scaleDef","180","",""
"","","","","","html-slider-response","98","214230","0.0-92.0","r2mv83w0ph","76","NaN","<div style=""width:500px;"">
                            <p style=""font-size:50px; font-weight:bold;""
                            >sad</p>
                            <div style=""width:240px; margin: auto;"">
                                <img src=""images/map26_berlin_scaleDef_orientDef_180.png"" style= ""width:200px""alt=""img"">
                            </div>
                        </div>","18","","0","","","","images/map26_berlin_scaleDef_orientDef_180.png","sad","1","26","26","berlin","orientDef","scaleDef","180","",""
"","","","","","html-slider-response","99","215962","0.0-93.0","r2mv83w0ph","76","NaN","<div style=""width:500px;"">
                            <p style=""font-size:50px; font-weight:bold;""
                            >sad</p>
                            <div style=""width:240px; margin: auto;"">
                                <img src=""images/map02_Greys_scaleRev_orientMir_270.png"" style= ""width:200px""alt=""img"">
                            </div>
                        </div>","200","","0","","","","images/map02_Greys_scaleRev_orientMir_270.png","sad","1","02","02","Greys","orientMir","scaleRev","270","",""
"","","","","","html-slider-response","100","217964","0.0-94.0","r2mv83w0ph","76","NaN","<div style=""width:500px;"">
                            <p style=""font-size:50px; font-weight:bold;""
                            >sad</p>
                            <div style=""width:240px; margin: auto;"">
                                <img src=""images/map12_BuGn_scaleDef_orientMir_180.png"" style= ""width:200px""alt=""img"">
                            </div>
                        </div>","-200","","0","","","","images/map12_BuGn_scaleDef_orientMir_180.png","sad","1","12","12","BuGn","orientMir","scaleDef","180","",""
"","","","","","html-button-response","101","220135","0.0-95.0","r2mv83w0ph","76","1669","<p>Great Job! You've finished block 1.<br></br> You have 4 block(s) left to go.<br></br></p>","0","","","","","","","","","","","","","","","",""
"","","","","","html-button-response","102","221235","0.0-96.0","r2mv83w0ph","76","1098","<p>In this block of trials, you will be asked to rate how much you associate each map with:</p > <p style = 'font-size:150%; font-weight: bold'>disgust</p><br></br>","0","","","","","","","","","","","","","","","",""
"","","","","","html-slider-response","103","222479","0.0-97.0","r2mv83w0ph","76","NaN","<div style=""width:500px;"">
                            <p style=""font-size:50px; font-weight:bold;""
                            >disgust</p>
                            <div style=""width:240px; margin: auto;"">
                                <img src=""images/map12_BuGn_scaleRev_orientMir_270.png"" style= ""width:200px""alt=""img"">
                            </div>
                        </div>","200","","0","","","","images/map12_BuGn_scaleRev_orientMir_270.png","disgust","1","12","12","BuGn","orientMir","scaleRev","270","",""
"","","","","","html-slider-response","104","224129","0.0-98.0","r2mv83w0ph","76","NaN","<div style=""width:500px;"">
                            <p style=""font-size:50px; font-weight:bold;""
                            >disgust</p>
                            <div style=""width:240px; margin: auto;"">
                                <img src=""images/map27_plasma_scaleRev_orientMir_270.png"" style= ""width:200px""alt=""img"">
                            </div>
                        </div>","-55","","0","","","","images/map27_plasma_scaleRev_orientMir_270.png","disgust","1","27","27","plasma","orientMir","scaleRev","270","",""
"","","","","","html-slider-response","105","225562","0.0-99.0","r2mv83w0ph","76","NaN","<div style=""width:500px;"">
                            <p style=""font-size:50px; font-weight:bold;""
                            >disgust</p>
                            <div style=""width:240px; margin: auto;"">
                                <img src=""images/map10_RdPu_scaleDef_orientDef_180.png"" style= ""width:200px""alt=""img"">
                            </div>
                        </div>","-58","","0","","","","images/map10_RdPu_scaleDef_orientDef_180.png","disgust","1","10","10","RdPu","orientDef","scaleDef","180","",""
"","","","","","html-slider-response","106","227132","0.0-100.0","r2mv83w0ph","76","NaN","<div style=""width:500px;"">
                            <p style=""font-size:50px; font-weight:bold;""
                            >disgust</p>
                            <div style=""width:240px; margin: auto;"">
                                <img src=""images/map02_magma_scaleDef_orientDef_180.png"" style= ""width:200px""alt=""img"">
                            </div>
                        </div>","-46","","0","","","","images/map02_magma_scaleDef_orientDef_180.png","disgust","1","02","02","magma","orientDef","scaleDef","180","",""
"","","","","","html-slider-response","107","228595","0.0-101.0","r2mv83w0ph","76","NaN","<div style=""width:500px;"">
                            <p style=""font-size:50px; font-weight:bold;""
                            >disgust</p>
                            <div style=""width:240px; margin: auto;"">
                                <img src=""images/map07_YlOrRd_scaleDef_orientMir_000.png"" style= ""width:200px""alt=""img"">
                            </div>
                        </div>","-48","","0","","","","images/map07_YlOrRd_scaleDef_orientMir_000.png","disgust","1","07","07","YlOrRd","orientMir","scaleDef","000","",""
"","","","","","html-slider-response","108","230112","0.0-102.0","r2mv83w0ph","76","NaN","<div style=""width:500px;"">
                            <p style=""font-size:50px; font-weight:bold;""
                            >disgust</p>
                            <div style=""width:240px; margin: auto;"">
                                <img src=""images/map07_YlOrBr_scaleRev_orientDef_270.png"" style= ""width:200px""alt=""img"">
                            </div>
                        </div>","-200","","0","","","","images/map07_YlOrBr_scaleRev_orientDef_270.png","disgust","1","07","07","YlOrBr","orientDef","scaleRev","270","",""
"","","","","","html-slider-response","109","232331","0.0-103.0","r2mv83w0ph","76","NaN","<div style=""width:500px;"">
                            <p style=""font-size:50px; font-weight:bold;""
                            >disgust</p>
                            <div style=""width:240px; margin: auto;"">
                                <img src=""images/map26_seismic_scaleDef_orientDef_000.png"" style= ""width:200px""alt=""img"">
                            </div>
                        </div>","-103","","0","","","","images/map26_seismic_scaleDef_orientDef_000.png","disgust","1","26","26","seismic","orientDef","scaleDef","000","",""
"","","","","","html-slider-response","110","233697","0.0-104.0","r2mv83w0ph","76","NaN","<div style=""width:500px;"">
                            <p style=""font-size:50px; font-weight:bold;""
                            >disgust</p>
                            <div style=""width:240px; margin: auto;"">
                                <img src=""images/map23_coolwarm_scaleRev_orientMir_090.png"" style= ""width:200px""alt=""img"">
                            </div>
                        </div>","-121","","0","","","","images/map23_coolwarm_scaleRev_orientMir_090.png","disgust","1","23","23","coolwarm","orientMir","scaleRev","090","",""
"","","","","","html-slider-response","111","235230","0.0-105.0","r2mv83w0ph","76","NaN","<div style=""width:500px;"">
                            <p style=""font-size:50px; font-weight:bold;""
                            >disgust</p>
                            <div style=""width:240px; margin: auto;"">
                                <img src=""images/map10_BuPu_scaleDef_orientMir_000.png"" style= ""width:200px""alt=""img"">
                            </div>
                        </div>","-82","","0","","","","images/map10_BuPu_scaleDef_orientMir_000.png","disgust","1","10","10","BuPu","orientMir","scaleDef","000","",""
"","","","","","html-slider-response","112","237048","0.0-106.0","r2mv83w0ph","76","NaN","<div style=""width:500px;"">
                            <p style=""font-size:50px; font-weight:bold;""
                            >disgust</p>
                            <div style=""width:240px; margin: auto;"">
                                <img src=""images/map05_Oranges_scaleRev_orientMir_270.png"" style= ""width:200px""alt=""img"">
                            </div>
                        </div>","-200","","0","","","","images/map05_Oranges_scaleRev_orientMir_270.png","disgust","1","05","05","Oranges","orientMir","scaleRev","270","",""
"","","","","","html-slider-response","113","238429","0.0-107.0","r2mv83w0ph","76","NaN","<div style=""width:500px;"">
                            <p style=""font-size:50px; font-weight:bold;""
                            >disgust</p>
                            <div style=""width:240px; margin: auto;"">
                                <img src=""images/map10_PuRd_scaleDef_orientDef_000.png"" style= ""width:200px""alt=""img"">
                            </div>
                        </div>","-135","","0","","","","images/map10_PuRd_scaleDef_orientDef_000.png","disgust","1","10","10","PuRd","orientDef","scaleDef","000","",""
"","","","","","html-slider-response","114","240063","0.0-108.0","r2mv83w0ph","76","NaN","<div style=""width:500px;"">
                            <p style=""font-size:50px; font-weight:bold;""
                            >disgust</p>
                            <div style=""width:240px; margin: auto;"">
                                <img src=""images/map15_RdYlBu_scaleRev_orientMir_270.png"" style= ""width:200px""alt=""img"">
                            </div>
                        </div>","-174","","0","","","","images/map15_RdYlBu_scaleRev_orientMir_270.png","disgust","1","15","15","RdYlBu","orientMir","scaleRev","270","",""
"","","","","","html-slider-response","115","241564","0.0-109.0","r2mv83w0ph","76","NaN","<div style=""width:500px;"">
                            <p style=""font-size:50px; font-weight:bold;""
                            >disgust</p>
                            <div style=""width:240px; margin: auto;"">
                                <img src=""images/map07_Reds_scaleDef_orientDef_000.png"" style= ""width:200px""alt=""img"">
                            </div>
                        </div>","-128","","0","","","","images/map07_Reds_scaleDef_orientDef_000.png","disgust","1","07","07","Reds","orientDef","scaleDef","000","",""
"","","","","","html-slider-response","116","243063","0.0-110.0","r2mv83w0ph","76","NaN","<div style=""width:500px;"">
                            <p style=""font-size:50px; font-weight:bold;""
                            >disgust</p>
                            <div style=""width:240px; margin: auto;"">
                                <img src=""images/map23_coolwarm_scaleDef_orientMir_000.png"" style= ""width:200px""alt=""img"">
                            </div>
                        </div>","-132","","0","","","","images/map23_coolwarm_scaleDef_orientMir_000.png","disgust","1","23","23","coolwarm","orientMir","scaleDef","000","",""
"","","","","","html-slider-response","117","244529","0.0-111.0","r2mv83w0ph","76","NaN","<div style=""width:500px;"">
                            <p style=""font-size:50px; font-weight:bold;""
                            >disgust</p>
                            <div style=""width:240px; margin: auto;"">
                                <img src=""images/map07_OrRd_scaleDef_orientMir_180.png"" style= ""width:200px""alt=""img"">
                            </div>
                        </div>","-164","","0","","","","images/map07_OrRd_scaleDef_orientMir_180.png","disgust","1","07","07","OrRd","orientMir","scaleDef","180","",""
"","","","","","html-slider-response","118","246131","0.0-112.0","r2mv83w0ph","76","NaN","<div style=""width:500px;"">
                            <p style=""font-size:50px; font-weight:bold;""
                            >disgust</p>
                            <div style=""width:240px; margin: auto;"">
                                <img src=""images/map12_PuBuGn_scaleDef_orientMir_000.png"" style= ""width:200px""alt=""img"">
                            </div>
                        </div>","-170","","0","","","","images/map12_PuBuGn_scaleDef_orientMir_000.png","disgust","1","12","12","PuBuGn","orientMir","scaleDef","000","",""
"","","","","","html-slider-response","119","247664","0.0-113.0","r2mv83w0ph","76","NaN","<div style=""width:500px;"">
                            <p style=""font-size:50px; font-weight:bold;""
                            >disgust</p>
                            <div style=""width:240px; margin: auto;"">
                                <img src=""images/map07_Reds_scaleRev_orientDef_090.png"" style= ""width:200px""alt=""img"">
                            </div>
                        </div>","-197","","0","","","","images/map07_Reds_scaleRev_orientDef_090.png","disgust","1","07","07","Reds","orientDef","scaleRev","090","",""
"","","","","","html-slider-response","120","249348","0.0-114.0","r2mv83w0ph","76","NaN","<div style=""width:500px;"">
                            <p style=""font-size:50px; font-weight:bold;""
                            >disgust</p>
                            <div style=""width:240px; margin: auto;"">
                                <img src=""images/map10_GnBu_scaleDef_orientMir_180.png"" style= ""width:200px""alt=""img"">
                            </div>
                        </div>","-182","","0","","","","images/map10_GnBu_scaleDef_orientMir_180.png","disgust","1","10","10","GnBu","orientMir","scaleDef","180","",""
"","","","","","html-slider-response","121","250947","0.0-115.0","r2mv83w0ph","76","NaN","<div style=""width:500px;"">
                            <p style=""font-size:50px; font-weight:bold;""
                            >disgust</p>
                            <div style=""width:240px; margin: auto;"">
                                <img src=""images/map23_Spectral_scaleDef_orientDef_180.png"" style= ""width:200px""alt=""img"">
                            </div>
                        </div>","-200","","0","","","","images/map23_Spectral_scaleDef_orientDef_180.png","disgust","1","23","23","Spectral","orientDef","scaleDef","180","",""
"","","","","","html-slider-response","122","252913","0.0-116.0","r2mv83w0ph","76","NaN","<div style=""width:500px;"">
                            <p style=""font-size:50px; font-weight:bold;""
                            >disgust</p>
                            <div style=""width:240px; margin: auto;"">
                                <img src=""images/map02_Greys_scaleRev_orientMir_270.png"" style= ""width:200px""alt=""img"">
                            </div>
                        </div>","-174","","0","","","","images/map02_Greys_scaleRev_orientMir_270.png","disgust","1","02","02","Greys","orientMir","scaleRev","270","",""
"","","","","","html-slider-response","123","254330","0.0-117.0","r2mv83w0ph","76","NaN","<div style=""width:500px;"">
                            <p style=""font-size:50px; font-weight:bold;""
                            >disgust</p>
                            <div style=""width:240px; margin: auto;"">
                                <img src=""images/map05_Greens_scaleDef_orientMir_000.png"" style= ""width:200px""alt=""img"">
                            </div>
                        </div>","200","","0","","","","images/map05_Greens_scaleDef_orientMir_000.png","disgust","1","05","05","Greens","orientMir","scaleDef","000","",""
"","","","","","html-slider-response","124","255946","0.0-118.0","r2mv83w0ph","76","NaN","<div style=""width:500px;"">
                            <p style=""font-size:50px; font-weight:bold;""
                            >disgust</p>
                            <div style=""width:240px; margin: auto;"">
                                <img src=""images/map15_RdGy_scaleRev_orientDef_270.png"" style= ""width:200px""alt=""img"">
                            </div>
                        </div>","-200","","0","","","","images/map15_RdGy_scaleRev_orientDef_270.png","disgust","1","15","15","RdGy","orientDef","scaleRev","270","",""
"","","","","","html-slider-response","125","257366","0.0-119.0","r2mv83w0ph","76","NaN","<div style=""width:500px;"">
                            <p style=""font-size:50px; font-weight:bold;""
                            >disgust</p>
                            <div style=""width:240px; margin: auto;"">
                                <img src=""images/map15_PuOr_scaleDef_orientDef_000.png"" style= ""width:200px""alt=""img"">
                            </div>
                        </div>","-156","","0","","","","images/map15_PuOr_scaleDef_orientDef_000.png","disgust","1","15","15","PuOr","orientDef","scaleDef","000","",""
"","","","","","html-slider-response","126","258796","0.0-120.0","r2mv83w0ph","76","NaN","<div style=""width:500px;"">
                            <p style=""font-size:50px; font-weight:bold;""
                            >disgust</p>
                            <div style=""width:240px; margin: auto;"">
                                <img src=""images/map26_seismic_scaleRev_orientDef_090.png"" style= ""width:200px""alt=""img"">
                            </div>
                        </div>","-134","","0","","","","images/map26_seismic_scaleRev_orientDef_090.png","disgust","1","26","26","seismic","orientDef","scaleRev","090","",""
"","","","","","html-slider-response","127","260381","0.0-121.0","r2mv83w0ph","76","NaN","<div style=""width:500px;"">
                            <p style=""font-size:50px; font-weight:bold;""
                            >disgust</p>
                            <div style=""width:240px; margin: auto;"">
                                <img src=""images/map12_PuBu_scaleDef_orientDef_000.png"" style= ""width:200px""alt=""img"">
                            </div>
                        </div>","-148","","0","","","","images/map12_PuBu_scaleDef_orientDef_000.png","disgust","1","12","12","PuBu","orientDef","scaleDef","000","",""
"","","","","","html-slider-response","128","261915","0.0-122.0","r2mv83w0ph","76","NaN","<div style=""width:500px;"">
                            <p style=""font-size:50px; font-weight:bold;""
                            >disgust</p>
                            <div style=""width:240px; margin: auto;"">
                                <img src=""images/map26_managua_scaleRev_orientMir_090.png"" style= ""width:200px""alt=""img"">
                            </div>
                        </div>","-174","","0","","","","images/map26_managua_scaleRev_orientMir_090.png","disgust","1","26","26","managua","orientMir","scaleRev","090","",""
"","","","","","html-slider-response","129","263213","0.0-123.0","r2mv83w0ph","76","NaN","<div style=""width:500px;"">
                            <p style=""font-size:50px; font-weight:bold;""
                            >disgust</p>
                            <div style=""width:240px; margin: auto;"">
                                <img src=""images/map15_RdYlBu_scaleDef_orientMir_180.png"" style= ""width:200px""alt=""img"">
                            </div>
                        </div>","-184","","0","","","","images/map15_RdYlBu_scaleDef_orientMir_180.png","disgust","1","15","15","RdYlBu","orientMir","scaleDef","180","",""
"","","","","","html-slider-response","130","264547","0.0-124.0","r2mv83w0ph","76","NaN","<div style=""width:500px;"">
                            <p style=""font-size:50px; font-weight:bold;""
                            >disgust</p>
                            <div style=""width:240px; margin: auto;"">
                                <img src=""images/map12_PuBu_scaleRev_orientDef_090.png"" style= ""width:200px""alt=""img"">
                            </div>
                        </div>","-134","","0","","","","images/map12_PuBu_scaleRev_orientDef_090.png","disgust","1","12","12","PuBu","orientDef","scaleRev","090","",""
"","","","","","html-slider-response","131","266015","0.0-125.0","r2mv83w0ph","76","NaN","<div style=""width:500px;"">
                            <p style=""font-size:50px; font-weight:bold;""
                            >disgust</p>
                            <div style=""width:240px; margin: auto;"">
                                <img src=""images/map27_gist_earth_scaleRev_orientDef_090.png"" style= ""width:200px""alt=""img"">
                            </div>
                        </div>","200","","0","","","","images/map27_gist_earth_scaleRev_orientDef_090.png","disgust","1","27","27","gist","scaleRev","earth","orientDef","",""
"","","","","","html-slider-response","132","267663","0.0-126.0","r2mv83w0ph","76","NaN","<div style=""width:500px;"">
                            <p style=""font-size:50px; font-weight:bold;""
                            >disgust</p>
                            <div style=""width:240px; margin: auto;"">
                                <img src=""images/map27_plasma_scaleDef_orientMir_180.png"" style= ""width:200px""alt=""img"">
                            </div>
                        </div>","-166","","0","","","","images/map27_plasma_scaleDef_orientMir_180.png","disgust","1","27","27","plasma","orientMir","scaleDef","180","",""
"","","","","","html-slider-response","133","268879","0.0-127.0","r2mv83w0ph","76","NaN","<div style=""width:500px;"">
                            <p style=""font-size:50px; font-weight:bold;""
                            >disgust</p>
                            <div style=""width:240px; margin: auto;"">
                                <img src=""images/map07_OrRd_scaleRev_orientMir_270.png"" style= ""width:200px""alt=""img"">
                            </div>
                        </div>","-168","","0","","","","images/map07_OrRd_scaleRev_orientMir_270.png","disgust","1","07","07","OrRd","orientMir","scaleRev","270","",""
"","","","","","html-slider-response","134","270447","0.0-128.0","r2mv83w0ph","76","NaN","<div style=""width:500px;"">
                            <p style=""font-size:50px; font-weight:bold;""
                            >disgust</p>
                            <div style=""width:240px; margin: auto;"">
                                <img src=""images/map12_BuGn_scaleDef_orientMir_180.png"" style= ""width:200px""alt=""img"">
                            </div>
                        </div>","200","","0","","","","images/map12_BuGn_scaleDef_orientMir_180.png","disgust","1","12","12","BuGn","orientMir","scaleDef","180","",""
"","","","","","html-slider-response","135","272146","0.0-129.0","r2mv83w0ph","76","NaN","<div style=""width:500px;"">
                            <p style=""font-size:50px; font-weight:bold;""
                            >disgust</p>
                            <div style=""width:240px; margin: auto;"">
                                <img src=""images/map26_managua_scaleDef_orientMir_000.png"" style= ""width:200px""alt=""img"">
                            </div>
                        </div>","-200","","0","","","","images/map26_managua_scaleDef_orientMir_000.png","disgust","1","26","26","managua","orientMir","scaleDef","000","",""
"","","","","","html-slider-response","136","273396","0.0-130.0","r2mv83w0ph","76","NaN","<div style=""width:500px;"">
                            <p style=""font-size:50px; font-weight:bold;""
                            >disgust</p>
                            <div style=""width:240px; margin: auto;"">
                                <img src=""images/map15_RdBu_scaleDef_orientMir_000.png"" style= ""width:200px""alt=""img"">
                            </div>
                        </div>","-199","","0","","","","images/map15_RdBu_scaleDef_orientMir_000.png","disgust","1","15","15","RdBu","orientMir","scaleDef","000","",""
"","","","","","html-slider-response","137","274597","0.0-131.0","r2mv83w0ph","76","NaN","<div style=""width:500px;"">
                            <p style=""font-size:50px; font-weight:bold;""
                            >disgust</p>
                            <div style=""width:240px; margin: auto;"">
                                <img src=""images/map26_berlin_scaleRev_orientDef_270.png"" style= ""width:200px""alt=""img"">
                            </div>
                        </div>","-200","","0","","","","images/map26_berlin_scaleRev_orientDef_270.png","disgust","1","26","26","berlin","orientDef","scaleRev","270","",""
"","","","","","html-slider-response","138","275862","0.0-132.0","r2mv83w0ph","76","NaN","<div style=""width:500px;"">
                            <p style=""font-size:50px; font-weight:bold;""
                            >disgust</p>
                            <div style=""width:240px; margin: auto;"">
                                <img src=""images/map10_BuPu_scaleRev_orientMir_090.png"" style= ""width:200px""alt=""img"">
                            </div>
                        </div>","-200","","0","","","","images/map10_BuPu_scaleRev_orientMir_090.png","disgust","1","10","10","BuPu","orientMir","scaleRev","090","",""
"","","","","","html-slider-response","139","277414","0.0-133.0","r2mv83w0ph","76","NaN","<div style=""width:500px;"">
                            <p style=""font-size:50px; font-weight:bold;""
                            >disgust</p>
                            <div style=""width:240px; margin: auto;"">
                                <img src=""images/map23_RdYlGn_scaleRev_orientDef_090.png"" style= ""width:200px""alt=""img"">
                            </div>
                        </div>","116","","0","","","","images/map23_RdYlGn_scaleRev_orientDef_090.png","disgust","1","23","23","RdYlGn","orientDef","scaleRev","090","",""
"","","","","","html-slider-response","140","278996","0.0-134.0","r2mv83w0ph","76","NaN","<div style=""width:500px;"">
                            <p style=""font-size:50px; font-weight:bold;""
                            >disgust</p>
                            <div style=""width:240px; margin: auto;"">
                                <img src=""images/map05_Oranges_scaleDef_orientMir_180.png"" style= ""width:200px""alt=""img"">
                            </div>
                        </div>","-200","","0","","","","images/map05_Oranges_scaleDef_orientMir_180.png","disgust","1","05","05","Oranges","orientMir","scaleDef","180","",""
"","","","","","html-slider-response","141","280463","0.0-135.0","r2mv83w0ph","76","NaN","<div style=""width:500px;"">
                            <p style=""font-size:50px; font-weight:bold;""
                            >disgust</p>
                            <div style=""width:240px; margin: auto;"">
                                <img src=""images/map23_RdYlGn_scaleDef_orientDef_000.png"" style= ""width:200px""alt=""img"">
                            </div>
                        </div>","175","","0","","","","images/map23_RdYlGn_scaleDef_orientDef_000.png","disgust","1","23","23","RdYlGn","orientDef","scaleDef","000","",""
"","","","","","html-slider-response","142","281997","0.0-136.0","r2mv83w0ph","76","NaN","<div style=""width:500px;"">
                            <p style=""font-size:50px; font-weight:bold;""
                            >disgust</p>
                            <div style=""width:240px; margin: auto;"">
                                <img src=""images/map02_magma_scaleRev_orientDef_270.png"" style= ""width:200px""alt=""img"">
                            </div>
                        </div>","-138","","0","","","","images/map02_magma_scaleRev_orientDef_270.png","disgust","1","02","02","magma","orientDef","scaleRev","270","",""
"","","","","","html-button-response","143","283519","0.0-137.0","r2mv83w0ph","76","1019","<p>You are doing great!<br></br> You are halway done with the current block. When you are ready to continue, click the 'Continue' button.</p>","0","","","","","","","","","","","","","","","",""
"","","","","","html-slider-response","144","284946","0.0-138.0","r2mv83w0ph","76","NaN","<div style=""width:500px;"">
                            <p style=""font-size:50px; font-weight:bold;""
                            >disgust</p>
                            <div style=""width:240px; margin: auto;"">
                                <img src=""images/map10_GnBu_scaleRev_orientMir_270.png"" style= ""width:200px""alt=""img"">
                            </div>
                        </div>","-127","","0","","","","images/map10_GnBu_scaleRev_orientMir_270.png","disgust","1","10","10","GnBu","orientMir","scaleRev","270","",""
"","","","","","html-slider-response","145","286163","0.0-139.0","r2mv83w0ph","76","NaN","<div style=""width:500px;"">
                            <p style=""font-size:50px; font-weight:bold;""
                            >disgust</p>
                            <div style=""width:240px; margin: auto;"">
                                <img src=""images/map07_YlOrRd_scaleRev_orientMir_090.png"" style= ""width:200px""alt=""img"">
                            </div>
                        </div>","-122","","0","","","","images/map07_YlOrRd_scaleRev_orientMir_090.png","disgust","1","07","07","YlOrRd","orientMir","scaleRev","090","",""
"","","","","","html-slider-response","146","287763","0.0-140.0","r2mv83w0ph","76","NaN","<div style=""width:500px;"">
                            <p style=""font-size:50px; font-weight:bold;""
                            >disgust</p>
                            <div style=""width:240px; margin: auto;"">
                                <img src=""images/map26_vanimo_scaleDef_orientMir_180.png"" style= ""width:200px""alt=""img"">
                            </div>
                        </div>","35","","0","","","","images/map26_vanimo_scaleDef_orientMir_180.png","disgust","1","26","26","vanimo","orientMir","scaleDef","180","",""
"","","","","","html-slider-response","147","289096","0.0-141.0","r2mv83w0ph","76","NaN","<div style=""width:500px;"">
                            <p style=""font-size:50px; font-weight:bold;""
                            >disgust</p>
                            <div style=""width:240px; margin: auto;"">
                                <img src=""images/map27_turbo_scaleRev_orientDef_270.png"" style= ""width:200px""alt=""img"">
                            </div>
                        </div>","-132","","0","","","","images/map27_turbo_scaleRev_orientDef_270.png","disgust","1","27","27","turbo","orientDef","scaleRev","270","",""
"","","","","","html-slider-response","148","290446","0.0-142.0","r2mv83w0ph","76","NaN","<div style=""width:500px;"">
                            <p style=""font-size:50px; font-weight:bold;""
                            >disgust</p>
                            <div style=""width:240px; margin: auto;"">
                                <img src=""images/map10_PuRd_scaleRev_orientDef_090.png"" style= ""width:200px""alt=""img"">
                            </div>
                        </div>","-175","","0","","","","images/map10_PuRd_scaleRev_orientDef_090.png","disgust","1","10","10","PuRd","orientDef","scaleRev","090","",""
"","","","","","html-slider-response","149","291865","0.0-143.0","r2mv83w0ph","76","NaN","<div style=""width:500px;"">
                            <p style=""font-size:50px; font-weight:bold;""
                            >disgust</p>
                            <div style=""width:240px; margin: auto;"">
                                <img src=""images/map02_cividis_scaleDef_orientMir_000.png"" style= ""width:200px""alt=""img"">
                            </div>
                        </div>","-172","","0","","","","images/map02_cividis_scaleDef_orientMir_000.png","disgust","1","02","02","cividis","orientMir","scaleDef","000","",""
"","","","","","html-slider-response","150","293298","0.0-144.0","r2mv83w0ph","76","NaN","<div style=""width:500px;"">
                            <p style=""font-size:50px; font-weight:bold;""
                            >disgust</p>
                            <div style=""width:240px; margin: auto;"">
                                <img src=""images/map05_Blues_scaleRev_orientDef_270.png"" style= ""width:200px""alt=""img"">
                            </div>
                        </div>","-127","","0","","","","images/map05_Blues_scaleRev_orientDef_270.png","disgust","1","05","05","Blues","orientDef","scaleRev","270","",""
"","","","","","html-slider-response","151","295415","0.0-145.0","r2mv83w0ph","76","NaN","<div style=""width:500px;"">
                            <p style=""font-size:50px; font-weight:bold;""
                            >disgust</p>
                            <div style=""width:240px; margin: auto;"">
                                <img src=""images/map15_PuOr_scaleRev_orientDef_090.png"" style= ""width:200px""alt=""img"">
                            </div>
                        </div>","-160","","0","","","","images/map15_PuOr_scaleRev_orientDef_090.png","disgust","1","15","15","PuOr","orientDef","scaleRev","090","",""
"","","","","","html-slider-response","152","297995","0.0-146.0","r2mv83w0ph","76","NaN","<div style=""width:500px;"">
                            <p style=""font-size:50px; font-weight:bold;""
                            >disgust</p>
                            <div style=""width:240px; margin: auto;"">
                                <img src=""images/map07_YlOrBr_scaleDef_orientDef_180.png"" style= ""width:200px""alt=""img"">
                            </div>
                        </div>","-200","","0","","","","images/map07_YlOrBr_scaleDef_orientDef_180.png","disgust","1","07","07","YlOrBr","orientDef","scaleDef","180","",""
"","","","","","html-slider-response","153","299547","0.0-147.0","r2mv83w0ph","76","NaN","<div style=""width:500px;"">
                            <p style=""font-size:50px; font-weight:bold;""
                            >disgust</p>
                            <div style=""width:240px; margin: auto;"">
                                <img src=""images/map13_PRGn_scaleRev_orientMir_090.png"" style= ""width:200px""alt=""img"">
                            </div>
                        </div>","157","","0","","","","images/map13_PRGn_scaleRev_orientMir_090.png","disgust","1","13","13","PRGn","orientMir","scaleRev","090","",""
"","","","","","html-slider-response","154","300981","0.0-148.0","r2mv83w0ph","76","NaN","<div style=""width:500px;"">
                            <p style=""font-size:50px; font-weight:bold;""
                            >disgust</p>
                            <div style=""width:240px; margin: auto;"">
                                <img src=""images/map27_viridis_scaleRev_orientMir_090.png"" style= ""width:200px""alt=""img"">
                            </div>
                        </div>","-162","","0","","","","images/map27_viridis_scaleRev_orientMir_090.png","disgust","1","27","27","viridis","orientMir","scaleRev","090","",""
"","","","","","html-slider-response","155","302463","0.0-149.0","r2mv83w0ph","76","NaN","<div style=""width:500px;"">
                            <p style=""font-size:50px; font-weight:bold;""
                            >disgust</p>
                            <div style=""width:240px; margin: auto;"">
                                <img src=""images/map05_Blues_scaleDef_orientDef_180.png"" style= ""width:200px""alt=""img"">
                            </div>
                        </div>","-126","","0","","","","images/map05_Blues_scaleDef_orientDef_180.png","disgust","1","05","05","Blues","orientDef","scaleDef","180","",""
"","","","","","html-slider-response","156","304230","0.0-150.0","r2mv83w0ph","76","NaN","<div style=""width:500px;"">
                            <p style=""font-size:50px; font-weight:bold;""
                            >disgust</p>
                            <div style=""width:240px; margin: auto;"">
                                <img src=""images/map26_vanimo_scaleRev_orientMir_270.png"" style= ""width:200px""alt=""img"">
                            </div>
                        </div>","52","","0","","","","images/map26_vanimo_scaleRev_orientMir_270.png","disgust","1","26","26","vanimo","orientMir","scaleRev","270","",""
"","","","","","html-slider-response","157","305713","0.0-151.0","r2mv83w0ph","76","NaN","<div style=""width:500px;"">
                            <p style=""font-size:50px; font-weight:bold;""
                            >disgust</p>
                            <div style=""width:240px; margin: auto;"">
                                <img src=""images/map27_viridis_scaleDef_orientMir_000.png"" style= ""width:200px""alt=""img"">
                            </div>
                        </div>","-187","","0","","","","images/map27_viridis_scaleDef_orientMir_000.png","disgust","1","27","27","viridis","orientMir","scaleDef","000","",""
"","","","","","html-slider-response","158","307429","0.0-152.0","r2mv83w0ph","76","NaN","<div style=""width:500px;"">
                            <p style=""font-size:50px; font-weight:bold;""
                            >disgust</p>
                            <div style=""width:240px; margin: auto;"">
                                <img src=""images/map02_inferno_scaleDef_orientDef_000.png"" style= ""width:200px""alt=""img"">
                            </div>
                        </div>","-168","","0","","","","images/map02_inferno_scaleDef_orientDef_000.png","disgust","1","02","02","inferno","orientDef","scaleDef","000","",""
"","","","","","html-slider-response","159","309197","0.0-153.0","r2mv83w0ph","76","NaN","<div style=""width:500px;"">
