"success","timeout","failed_images","failed_audio","failed_video","trial_type","trial_index","time_elapsed","internal_node_id","subject_id","condition_num","rt","stimulus","response","question_order","slider_start","practiceTrial","practiceTrialNum","correct","image_path","concept","repetition","map_id","map_num","scale_name","orientation_code","mapping_code","rotation_code","ishihara_plate","correct_response"
"true","false","[]","[]","[]","preload","0","325","0.0-0.0","r9aq21gysj","39","","","","","","","","","","","","","","","","","","",""
"","","","","","html-button-response","1","7362","0.0-1.0","r9aq21gysj","39","7036","Welcome to our experiment!<p>At the bottom of this screen, you will see a button that says ""Begin Experiment"".<br>Please only click that button when you are ready to complete the 30 minute experiment in one sitting.</p><p> Once you click that button, it will not be possible to restart the experiment.","0","","","","","","","","","","","","","","","",""
"true","","","","","fullscreen","2","9884","0.0-2.0","r9aq21gysj","39","1519","","","","","","","","","","","","","","","","","",""
"","","","","","survey-multi-select","3","23029","0.0-3.0","r9aq21gysj","39","13141","","{""Consent"":[""<strong>I consent</strong>""]}","[0]","","","","","","","","","","","","","","",""
"","","","","","html-button-response","4","24129","0.0-4.0","r9aq21gysj","39","1099","Welcome! <p> This experiment involves two parts: demographic information, followed by the experimental task.<p> It will take about 30 minutes to complete both parts.","0","","","","","","","","","","","","","","","",""
"","","","","","survey-text","5","63550","0.0-5.0","r9aq21gysj","39","39414","","{""Age"":""19"",""Gender"":""Woman"",""Race/ethnicity"":""Black (Malian American)"",""Languages"":""English""}","","","","","","","","","","","","","","","",""
"","","","","","html-slider-response","6","138939","0.0-6.0","r9aq21gysj","39","75385","<div style='text-align:left; font-size:20px; line-height:25px; width: 1000px;'>
                                During this experiment you will be asked to rate how much you associate maps with                    different concepts.<br> Below, you can see some examples of the maps you will be asked to rate. Above the maps
                    is the list of concepts.<br>You will be asked                    to rate how much you associate each map with each concept on a scale from 'not at all' to 'very much' like the
                    one below. <br><br>
                    Now, please look at the list of concepts and maps. For each concept, think about the map you associate 'very
                    much' with the concept.<br>                     When you see that map during the experiment, please rate it near the 'very much' endpoint of the
                    scale.<br>Now, please think about which map you associate 'not at all'                     with each concept. When you see that map during the experiment, please rate it near the 'not at all' endpoint
                    of the scale.<br>
                    Please use the full range of the scale. That is, if a map is somewhat associated with the concept, you would
                    click partway between the middle point and right side of the scale.                    You will be asked to rate each map for a given concept before moving on to the next concept.<br>Press the
                    'Continue' button for instructions on how to use the slider.                    <br>
                </div>

                <div style=""width: 500px; margin: 0 auto;"">
                    <!-- Centered text paragraphs -->
                    <div style=""text-align: center; width: 500px;"">
                        <p style=""font-size:25px; line-height:15px;"">
                            fearful&nbsp;&nbsp;&nbsp;&nbsp;
                            happy&nbsp;&nbsp;&nbsp;&nbsp;
                            sad&nbsp;&nbsp;&nbsp;&nbsp;
                            disgust&nbsp;&nbsp;&nbsp;&nbsp;
                            angry
                        </p>
                        <!-- <p style=""font-size:20px; line-height:15px;"">happy</p>
                        <p style=""font-size:20px;line-height:15px;"">sad</p>
                        <p style=""font-size:20px;line-height:15px;"">disgust</p>
                        <p style=""font-size:20px;line-height:15px;"">angry</p> -->
                    </div>
            

                    <!-- Grid section -->
                   <div style=""display: flex; justify-content: center; padding-top: 15px;"">
                    <div style=""display: grid; grid-template-columns: repeat(10, 55px); grid-gap: 5px; width: auto;"">
                        <img src=""images/map10_bwr_scaleDef_orientDef_090.png"" alt=""map"" style=""width: 100%;""><img src=""images/map13_magma_scaleDef_orientMir_090.png"" alt=""map"" style=""width: 100%;""><img src=""images/map05_BrBG_scaleDef_orientDef_090.png"" alt=""map"" style=""width: 100%;""><img src=""images/map26_YlOrRd_scaleRev_orientDef_000.png"" alt=""map"" style=""width: 100%;""><img src=""images/map10_managua_scaleDef_orientMir_270.png"" alt=""map"" style=""width: 100%;""><img src=""images/map27_YlGnBu_scaleRev_orientMir_180.png"" alt=""map"" style=""width: 100%;""><img src=""images/map10_seismic_scaleRev_orientMir_000.png"" alt=""map"" style=""width: 100%;""><img src=""images/map26_OrRd_scaleRev_orientDef_180.png"" alt=""map"" style=""width: 100%;""><img src=""images/map15_Greys_scaleDef_orientDef_090.png"" alt=""map"" style=""width: 100%;""><img src=""images/map12_gist_earth_scaleDef_orientDef_270.png"" alt=""map"" style=""width: 100%;""><img src=""images/map12_turbo_scaleRev_orientMir_180.png"" alt=""map"" style=""width: 100%;""><img src=""images/map05_RdGy_scaleRev_orientMir_180.png"" alt=""map"" style=""width: 100%;""><img src=""images/map23_Greens_scaleRev_orientDef_000.png"" alt=""map"" style=""width: 100%;""><img src=""images/map15_Blues_scaleRev_orientMir_180.png"" alt=""map"" style=""width: 100%;""><img src=""images/map27_GnBu_scaleDef_orientDef_090.png"" alt=""map"" style=""width: 100%;""><img src=""images/map15_Purples_scaleRev_orientMir_000.png"" alt=""map"" style=""width: 100%;""><img src=""images/map02_YlGn_scaleRev_orientMir_000.png"" alt=""map"" style=""width: 100%;""><img src=""images/map07_RdYlBu_scaleRev_orientDef_180.png"" alt=""map"" style=""width: 100%;""><img src=""images/map10_berlin_scaleDef_orientMir_090.png"" alt=""map"" style=""width: 100%;""><img src=""images/map05_PRGn_scaleRev_orientDef_000.png"" alt=""map"" style=""width: 100%;""><img src=""images/map13_plasma_scaleDef_orientDef_090.png"" alt=""map"" style=""width: 100%;""><img src=""images/map02_PuBuGn_scaleRev_orientDef_000.png"" alt=""map"" style=""width: 100%;""><img src=""images/map02_PiYG_scaleRev_orientMir_180.png"" alt=""map"" style=""width: 100%;""><img src=""images/map15_cividis_scaleRev_orientDef_000.png"" alt=""map"" style=""width: 100%;""><img src=""images/map12_vanimo_scaleRev_orientDef_180.png"" alt=""map"" style=""width: 100%;""><img src=""images/map07_Spectral_scaleRev_orientMir_180.png"" alt=""map"" style=""width: 100%;""><img src=""images/map23_Reds_scaleDef_orientDef_270.png"" alt=""map"" style=""width: 100%;""><img src=""images/map07_coolwarm_scaleDef_orientMir_270.png"" alt=""map"" style=""width: 100%;""><img src=""images/map07_RdYlGn_scaleDef_orientDef_270.png"" alt=""map"" style=""width: 100%;""><img src=""images/map26_RdPu_scaleRev_orientMir_180.png"" alt=""map"" style=""width: 100%;""><img src=""images/map05_PuOr_scaleRev_orientMir_000.png"" alt=""map"" style=""width: 100%;""><img src=""images/map13_inferno_scaleDef_orientDef_270.png"" alt=""map"" style=""width: 100%;""><img src=""images/map27_PuBu_scaleRev_orientMir_000.png"" alt=""map"" style=""width: 100%;""><img src=""images/map26_PuRd_scaleDef_orientDef_270.png"" alt=""map"" style=""width: 100%;""><img src=""images/map23_YlOrBr_scaleDef_orientMir_090.png"" alt=""map"" style=""width: 100%;""><img src=""images/map02_BuGn_scaleRev_orientDef_180.png"" alt=""map"" style=""width: 100%;""><img src=""images/map23_Oranges_scaleDef_orientDef_090.png"" alt=""map"" style=""width: 100%;""><img src=""images/map26_BuPu_scaleDef_orientMir_270.png"" alt=""map"" style=""width: 100%;""><img src=""images/map05_RdBu_scaleDef_orientMir_270.png"" alt=""map"" style=""width: 100%;""><img src=""images/map12_viridis_scaleDef_orientMir_270.png"" alt=""map"" style=""width: 100%;"">
                    </div>
                </div>

                    <!-- Clear floats -->
                    <div style=""clear: both;""></div>
                </div>
                            ","4","","0","true","","","","","","","","","","","","",""
"","","","","","html-button-response","7","140416","0.0-7.0","r9aq21gysj","39","1476","<div style=""width:800px;""><p style=""text-align:left"">To move the slider, click and drag your cursor to the location of the scale where you would like to make your rating and then let go. When you let go of the slider, your response will be recorded and the next trial will begin. <br>
                    We are interested in your initial impressions of each map for the given concept, so please go with your first intuition. <br>
                    Before you begin the experiment, there will be four training trials for you to practice using the scale. <br>
                     When you are ready to start the training trials, please click ""Continue"".</p><br></div>","0","","","","","","","","","","","","","","","",""
"","","","","","html-slider-response","8","145641","0.0-8.0-0.0","r9aq21gysj","39","NaN","<div style=""width:500px;"">
                                    <p style=""font-size:25px;"">Please move the slider all the way to the <br> right endpoint of the scale</p>

                                    </div>
                                </div>","200","","0","true","0","true","","","","","","","","","","",""
"","","","","","html-button-response","9","147139","0.0-8.0-1.0","r9aq21gysj","39","995","<p align='center'><b>Good job!</b> Click on 'Continue' to proceed.</p>","0","","","","","","","","","","","","","","","",""
"","","","","","html-slider-response","10","148713","0.0-9.0-0.0","r9aq21gysj","39","NaN","<div style=""width:500px;"">
                                    <p style=""font-size:25px;"">Please move the slider all the way to the <br> left endpoint of the scale</p>

                                    </div>
                                </div>","-200","","0","true","1","true","","","","","","","","","","",""
"","","","","","html-button-response","11","149910","0.0-9.0-1.0","r9aq21gysj","39","695","<p align='center'><b>Good job!</b> Click on 'Continue' to proceed.</p>","0","","","","","","","","","","","","","","","",""
"","","","","","html-slider-response","12","155078","0.0-10.0-0.0","r9aq21gysj","39","NaN","<div style=""width:500px;"">
                                    <p style=""font-size:25px;"">Please move the slider halfway between the center and right endpoint of the scale</p>

                                    </div>
                                </div>","101","","0","true","2","true","","","","","","","","","","",""
"","","","","","html-button-response","13","156286","0.0-10.0-1.0","r9aq21gysj","39","706","<p align='center'><b>Good job!</b> Click on 'Continue' to proceed.</p>","0","","","","","","","","","","","","","","","",""
"","","","","","html-slider-response","14","158263","0.0-11.0-0.0","r9aq21gysj","39","NaN","<div style=""width:500px;"">
                                    <p style=""font-size:25px;"">Please move the slider halfway between the center and left endpoint of the scale</p>

                                    </div>
                                </div>","-104","","0","true","3","true","","","","","","","","","","",""
"","","","","","html-button-response","15","159401","0.0-11.0-1.0","r9aq21gysj","39","636","<p align='center'><b>Good job!</b> Click on 'Continue' to proceed.</p>","0","","","","","","","","","","","","","","","",""
"","","","","","html-button-response","16","160448","0.0-12.0","r9aq21gysj","39","1046","<p>Great job! You've completed the practice trials. Now you will begin the main task.</p>","0","","","","","","","","","","","","","","","",""
"","","","","","html-button-response","17","163776","0.0-13.0","r9aq21gysj","39","3327","<p>In this block of trials, you will be asked to rate how much you associate each map with:</p > <p style = 'font-size:150%; font-weight: bold'>fearful</p><br></br>","0","","","","","","","","","","","","","","","",""
"","","","","","html-slider-response","18","167074","0.0-14.0","r9aq21gysj","39","NaN","<div style=""width:500px;"">
                            <p style=""font-size:50px; font-weight:bold;""
                            >fearful</p>
                            <div style=""width:240px; margin: auto;"">
                                <img src=""images/map07_Spectral_scaleDef_orientMir_090.png"" style= ""width:200px""alt=""img"">
                            </div>
                        </div>","35","","0","","","","images/map07_Spectral_scaleDef_orientMir_090.png","fearful","1","07","07","Spectral","orientMir","scaleDef","090","",""
"","","","","","html-slider-response","19","169324","0.0-15.0","r9aq21gysj","39","NaN","<div style=""width:500px;"">
                            <p style=""font-size:50px; font-weight:bold;""
                            >fearful</p>
                            <div style=""width:240px; margin: auto;"">
                                <img src=""images/map26_PuRd_scaleDef_orientDef_270.png"" style= ""width:200px""alt=""img"">
                            </div>
                        </div>","33","","0","","","","images/map26_PuRd_scaleDef_orientDef_270.png","fearful","1","26","26","PuRd","orientDef","scaleDef","270","",""
"","","","","","html-slider-response","20","171513","0.0-16.0","r9aq21gysj","39","NaN","<div style=""width:500px;"">
                            <p style=""font-size:50px; font-weight:bold;""
                            >fearful</p>
                            <div style=""width:240px; margin: auto;"">
                                <img src=""images/map10_seismic_scaleDef_orientDef_270.png"" style= ""width:200px""alt=""img"">
                            </div>
                        </div>","131","","0","","","","images/map10_seismic_scaleDef_orientDef_270.png","fearful","1","10","10","seismic","orientDef","scaleDef","270","",""
"","","","","","html-slider-response","21","173670","0.0-17.0","r9aq21gysj","39","NaN","<div style=""width:500px;"">
                            <p style=""font-size:50px; font-weight:bold;""
                            >fearful</p>
                            <div style=""width:240px; margin: auto;"">
                                <img src=""images/map12_gist_earth_scaleDef_orientDef_270.png"" style= ""width:200px""alt=""img"">
                            </div>
                        </div>","100","","0","","","","images/map12_gist_earth_scaleDef_orientDef_270.png","fearful","1","12","12","gist","scaleDef","earth","orientDef","",""
"","","","","","html-slider-response","22","176152","0.0-18.0","r9aq21gysj","39","NaN","<div style=""width:500px;"">
                            <p style=""font-size:50px; font-weight:bold;""
                            >fearful</p>
                            <div style=""width:240px; margin: auto;"">
                                <img src=""images/map10_berlin_scaleRev_orientMir_180.png"" style= ""width:200px""alt=""img"">
                            </div>
                        </div>","106","","0","","","","images/map10_berlin_scaleRev_orientMir_180.png","fearful","1","10","10","berlin","orientMir","scaleRev","180","",""
"","","","","","html-slider-response","23","178600","0.0-19.0","r9aq21gysj","39","NaN","<div style=""width:500px;"">
                            <p style=""font-size:50px; font-weight:bold;""
                            >fearful</p>
                            <div style=""width:240px; margin: auto;"">
                                <img src=""images/map26_RdPu_scaleRev_orientMir_180.png"" style= ""width:200px""alt=""img"">
                            </div>
                        </div>","29","","0","","","","images/map26_RdPu_scaleRev_orientMir_180.png","fearful","1","26","26","RdPu","orientMir","scaleRev","180","",""
"","","","","","html-slider-response","24","180528","0.0-20.0","r9aq21gysj","39","NaN","<div style=""width:500px;"">
                            <p style=""font-size:50px; font-weight:bold;""
                            >fearful</p>
                            <div style=""width:240px; margin: auto;"">
                                <img src=""images/map05_RdGy_scaleRev_orientMir_180.png"" style= ""width:200px""alt=""img"">
                            </div>
                        </div>","200","","0","","","","images/map05_RdGy_scaleRev_orientMir_180.png","fearful","1","05","05","RdGy","orientMir","scaleRev","180","",""
"","","","","","html-slider-response","25","182707","0.0-21.0","r9aq21gysj","39","NaN","<div style=""width:500px;"">
                            <p style=""font-size:50px; font-weight:bold;""
                            >fearful</p>
                            <div style=""width:240px; margin: auto;"">
                                <img src=""images/map12_turbo_scaleDef_orientMir_090.png"" style= ""width:200px""alt=""img"">
                            </div>
                        </div>","-11","","0","","","","images/map12_turbo_scaleDef_orientMir_090.png","fearful","1","12","12","turbo","orientMir","scaleDef","090","",""
"","","","","","html-slider-response","26","184819","0.0-22.0","r9aq21gysj","39","NaN","<div style=""width:500px;"">
                            <p style=""font-size:50px; font-weight:bold;""
                            >fearful</p>
                            <div style=""width:240px; margin: auto;"">
                                <img src=""images/map02_YlGn_scaleRev_orientMir_000.png"" style= ""width:200px""alt=""img"">
                            </div>
                        </div>","-38","","0","","","","images/map02_YlGn_scaleRev_orientMir_000.png","fearful","1","02","02","YlGn","orientMir","scaleRev","000","",""
"","","","","","html-slider-response","27","186944","0.0-23.0","r9aq21gysj","39","NaN","<div style=""width:500px;"">
                            <p style=""font-size:50px; font-weight:bold;""
                            >fearful</p>
                            <div style=""width:240px; margin: auto;"">
                                <img src=""images/map15_Greys_scaleDef_orientDef_090.png"" style= ""width:200px""alt=""img"">
                            </div>
                        </div>","200","","0","","","","images/map15_Greys_scaleDef_orientDef_090.png","fearful","1","15","15","Greys","orientDef","scaleDef","090","",""
"","","","","","html-slider-response","28","189228","0.0-24.0","r9aq21gysj","39","NaN","<div style=""width:500px;"">
                            <p style=""font-size:50px; font-weight:bold;""
                            >fearful</p>
                            <div style=""width:240px; margin: auto;"">
                                <img src=""images/map07_RdBu_scaleRev_orientDef_000.png"" style= ""width:200px""alt=""img"">
                            </div>
                        </div>","-42","","0","","","","images/map07_RdBu_scaleRev_orientDef_000.png","fearful","1","07","07","RdBu","orientDef","scaleRev","000","",""
"","","","","","html-slider-response","29","191803","0.0-25.0","r9aq21gysj","39","NaN","<div style=""width:500px;"">
                            <p style=""font-size:50px; font-weight:bold;""
                            >fearful</p>
                            <div style=""width:240px; margin: auto;"">
                                <img src=""images/map05_RdBu_scaleDef_orientMir_270.png"" style= ""width:200px""alt=""img"">
                            </div>
                        </div>","-34","","0","","","","images/map05_RdBu_scaleDef_orientMir_270.png","fearful","1","05","05","RdBu","orientMir","scaleDef","270","",""
"","","","","","html-slider-response","30","195358","0.0-26.0","r9aq21gysj","39","NaN","<div style=""width:500px;"">
                            <p style=""font-size:50px; font-weight:bold;""
                            >fearful</p>
                            <div style=""width:240px; margin: auto;"">
                                <img src=""images/map07_RdYlBu_scaleRev_orientDef_180.png"" style= ""width:200px""alt=""img"">
                            </div>
                        </div>","43","","0","","","","images/map07_RdYlBu_scaleRev_orientDef_180.png","fearful","1","07","07","RdYlBu","orientDef","scaleRev","180","",""
"","","","","","html-slider-response","31","197553","0.0-27.0","r9aq21gysj","39","NaN","<div style=""width:500px;"">
                            <p style=""font-size:50px; font-weight:bold;""
                            >fearful</p>
                            <div style=""width:240px; margin: auto;"">
                                <img src=""images/map05_PuOr_scaleRev_orientMir_000.png"" style= ""width:200px""alt=""img"">
                            </div>
                        </div>","45","","0","","","","images/map05_PuOr_scaleRev_orientMir_000.png","fearful","1","05","05","PuOr","orientMir","scaleRev","000","",""
"","","","","","html-slider-response","32","199750","0.0-28.0","r9aq21gysj","39","NaN","<div style=""width:500px;"">
                            <p style=""font-size:50px; font-weight:bold;""
                            >fearful</p>
                            <div style=""width:240px; margin: auto;"">
                                <img src=""images/map13_inferno_scaleDef_orientDef_270.png"" style= ""width:200px""alt=""img"">
                            </div>
                        </div>","99","","0","","","","images/map13_inferno_scaleDef_orientDef_270.png","fearful","1","13","13","inferno","orientDef","scaleDef","270","",""
"","","","","","html-slider-response","33","202844","0.0-29.0","r9aq21gysj","39","NaN","<div style=""width:500px;"">
                            <p style=""font-size:50px; font-weight:bold;""
                            >fearful</p>
                            <div style=""width:240px; margin: auto;"">
                                <img src=""images/map02_YlGn_scaleDef_orientDef_270.png"" style= ""width:200px""alt=""img"">
                            </div>
                        </div>","-23","","0","","","","images/map02_YlGn_scaleDef_orientDef_270.png","fearful","1","02","02","YlGn","orientDef","scaleDef","270","",""
"","","","","","html-slider-response","34","204762","0.0-30.0","r9aq21gysj","39","NaN","<div style=""width:500px;"">
                            <p style=""font-size:50px; font-weight:bold;""
                            >fearful</p>
                            <div style=""width:240px; margin: auto;"">
                                <img src=""images/map23_YlOrRd_scaleDef_orientMir_270.png"" style= ""width:200px""alt=""img"">
                            </div>
                        </div>","113","","0","","","","images/map23_YlOrRd_scaleDef_orientMir_270.png","fearful","1","23","23","YlOrRd","orientMir","scaleDef","270","",""
"","","","","","html-slider-response","35","206732","0.0-31.0","r9aq21gysj","39","NaN","<div style=""width:500px;"">
                            <p style=""font-size:50px; font-weight:bold;""
                            >fearful</p>
                            <div style=""width:240px; margin: auto;"">
                                <img src=""images/map27_YlGnBu_scaleDef_orientMir_090.png"" style= ""width:200px""alt=""img"">
                            </div>
                        </div>","-66","","0","","","","images/map27_YlGnBu_scaleDef_orientMir_090.png","fearful","1","27","27","YlGnBu","orientMir","scaleDef","090","",""
"","","","","","html-slider-response","36","208294","0.0-32.0","r9aq21gysj","39","NaN","<div style=""width:500px;"">
                            <p style=""font-size:50px; font-weight:bold;""
                            >fearful</p>
                            <div style=""width:240px; margin: auto;"">
                                <img src=""images/map27_GnBu_scaleDef_orientDef_090.png"" style= ""width:200px""alt=""img"">
                            </div>
                        </div>","-80","","0","","","","images/map27_GnBu_scaleDef_orientDef_090.png","fearful","1","27","27","GnBu","orientDef","scaleDef","090","",""
"","","","","","html-slider-response","37","210619","0.0-33.0","r9aq21gysj","39","NaN","<div style=""width:500px;"">
                            <p style=""font-size:50px; font-weight:bold;""
                            >fearful</p>
                            <div style=""width:240px; margin: auto;"">
                                <img src=""images/map27_BuPu_scaleRev_orientDef_000.png"" style= ""width:200px""alt=""img"">
                            </div>
                        </div>","-77","","0","","","","images/map27_BuPu_scaleRev_orientDef_000.png","fearful","1","27","27","BuPu","orientDef","scaleRev","000","",""
"","","","","","html-slider-response","38","212970","0.0-34.0","r9aq21gysj","39","NaN","<div style=""width:500px;"">
                            <p style=""font-size:50px; font-weight:bold;""
                            >fearful</p>
                            <div style=""width:240px; margin: auto;"">
                                <img src=""images/map07_RdYlGn_scaleDef_orientDef_270.png"" style= ""width:200px""alt=""img"">
                            </div>
                        </div>","39","","0","","","","images/map07_RdYlGn_scaleDef_orientDef_270.png","fearful","1","07","07","RdYlGn","orientDef","scaleDef","270","",""
"","","","","","html-slider-response","39","215020","0.0-35.0","r9aq21gysj","39","NaN","<div style=""width:500px;"">
                            <p style=""font-size:50px; font-weight:bold;""
                            >fearful</p>
                            <div style=""width:240px; margin: auto;"">
                                <img src=""images/map12_vanimo_scaleDef_orientDef_090.png"" style= ""width:200px""alt=""img"">
                            </div>
                        </div>","68","","0","","","","images/map12_vanimo_scaleDef_orientDef_090.png","fearful","1","12","12","vanimo","orientDef","scaleDef","090","",""
"","","","","","html-slider-response","40","217561","0.0-36.0","r9aq21gysj","39","NaN","<div style=""width:500px;"">
                            <p style=""font-size:50px; font-weight:bold;""
                            >fearful</p>
                            <div style=""width:240px; margin: auto;"">
                                <img src=""images/map23_Reds_scaleDef_orientDef_270.png"" style= ""width:200px""alt=""img"">
                            </div>
                        </div>","137","","0","","","","images/map23_Reds_scaleDef_orientDef_270.png","fearful","1","23","23","Reds","orientDef","scaleDef","270","",""
"","","","","","html-slider-response","41","219553","0.0-37.0","r9aq21gysj","39","NaN","<div style=""width:500px;"">
                            <p style=""font-size:50px; font-weight:bold;""
                            >fearful</p>
                            <div style=""width:240px; margin: auto;"">
                                <img src=""images/map10_bwr_scaleRev_orientDef_180.png"" style= ""width:200px""alt=""img"">
                            </div>
                        </div>","20","","0","","","","images/map10_bwr_scaleRev_orientDef_180.png","fearful","1","10","10","bwr","orientDef","scaleRev","180","",""
"","","","","","html-slider-response","42","221783","0.0-38.0","r9aq21gysj","39","NaN","<div style=""width:500px;"">
                            <p style=""font-size:50px; font-weight:bold;""
                            >fearful</p>
                            <div style=""width:240px; margin: auto;"">
                                <img src=""images/map05_BrBG_scaleRev_orientDef_180.png"" style= ""width:200px""alt=""img"">
                            </div>
                        </div>","-33","","0","","","","images/map05_BrBG_scaleRev_orientDef_180.png","fearful","1","05","05","BrBG","orientDef","scaleRev","180","",""
"","","","","","html-slider-response","43","239803","0.0-39.0","r9aq21gysj","39","NaN","<div style=""width:500px;"">
                            <p style=""font-size:50px; font-weight:bold;""
                            >fearful</p>
                            <div style=""width:240px; margin: auto;"">
                                <img src=""images/map26_OrRd_scaleRev_orientDef_180.png"" style= ""width:200px""alt=""img"">
                            </div>
                        </div>","65","","0","","","","images/map26_OrRd_scaleRev_orientDef_180.png","fearful","1","26","26","OrRd","orientDef","scaleRev","180","",""
"","","","","","html-slider-response","44","243035","0.0-40.0","r9aq21gysj","39","NaN","<div style=""width:500px;"">
                            <p style=""font-size:50px; font-weight:bold;""
                            >fearful</p>
                            <div style=""width:240px; margin: auto;"">
                                <img src=""images/map23_Greens_scaleRev_orientDef_000.png"" style= ""width:200px""alt=""img"">
                            </div>
                        </div>","84","","0","","","","images/map23_Greens_scaleRev_orientDef_000.png","fearful","1","23","23","Greens","orientDef","scaleRev","000","",""
"","","","","","html-slider-response","45","244110","0.0-41.0","r9aq21gysj","39","NaN","<div style=""width:500px;"">
                            <p style=""font-size:50px; font-weight:bold;""
                            >fearful</p>
                            <div style=""width:240px; margin: auto;"">
                                <img src=""images/map10_berlin_scaleDef_orientMir_090.png"" style= ""width:200px""alt=""img"">
                            </div>
                        </div>","110","","0","","","","images/map10_berlin_scaleDef_orientMir_090.png","fearful","1","10","10","berlin","orientMir","scaleDef","090","",""
"","","","","","html-slider-response","46","245098","0.0-42.0","r9aq21gysj","39","NaN","<div style=""width:500px;"">
                            <p style=""font-size:50px; font-weight:bold;""
                            >fearful</p>
                            <div style=""width:240px; margin: auto;"">
                                <img src=""images/map15_cividis_scaleRev_orientDef_000.png"" style= ""width:200px""alt=""img"">
                            </div>
                        </div>","118","","0","","","","images/map15_cividis_scaleRev_orientDef_000.png","fearful","1","15","15","cividis","orientDef","scaleRev","000","",""
"","","","","","html-slider-response","47","246169","0.0-43.0","r9aq21gysj","39","NaN","<div style=""width:500px;"">
                            <p style=""font-size:50px; font-weight:bold;""
                            >fearful</p>
                            <div style=""width:240px; margin: auto;"">
                                <img src=""images/map15_Greens_scaleDef_orientMir_270.png"" style= ""width:200px""alt=""img"">
                            </div>
                        </div>","113","","0","","","","images/map15_Greens_scaleDef_orientMir_270.png","fearful","1","15","15","Greens","orientMir","scaleDef","270","",""
"","","","","","html-slider-response","48","247231","0.0-44.0","r9aq21gysj","39","NaN","<div style=""width:500px;"">
                            <p style=""font-size:50px; font-weight:bold;""
                            >fearful</p>
                            <div style=""width:240px; margin: auto;"">
                                <img src=""images/map26_OrRd_scaleDef_orientDef_090.png"" style= ""width:200px""alt=""img"">
                            </div>
                        </div>","96","","0","","","","images/map26_OrRd_scaleDef_orientDef_090.png","fearful","1","26","26","OrRd","orientDef","scaleDef","090","",""
"","","","","","html-slider-response","49","248331","0.0-45.0","r9aq21gysj","39","NaN","<div style=""width:500px;"">
                            <p style=""font-size:50px; font-weight:bold;""
                            >fearful</p>
                            <div style=""width:240px; margin: auto;"">
                                <img src=""images/map12_gist_earth_scaleRev_orientMir_000.png"" style= ""width:200px""alt=""img"">
                            </div>
                        </div>","120","","0","","","","images/map12_gist_earth_scaleRev_orientMir_000.png","fearful","1","12","12","gist","scaleRev","earth","orientMir","",""
"","","","","","html-slider-response","50","249822","0.0-46.0","r9aq21gysj","39","NaN","<div style=""width:500px;"">
                            <p style=""font-size:50px; font-weight:bold;""
                            >fearful</p>
                            <div style=""width:240px; margin: auto;"">
                                <img src=""images/map27_PuBuGn_scaleDef_orientMir_270.png"" style= ""width:200px""alt=""img"">
                            </div>
                        </div>","145","","0","","","","images/map27_PuBuGn_scaleDef_orientMir_270.png","fearful","1","27","27","PuBuGn","orientMir","scaleDef","270","",""
"","","","","","html-slider-response","51","251273","0.0-47.0","r9aq21gysj","39","NaN","<div style=""width:500px;"">
                            <p style=""font-size:50px; font-weight:bold;""
                            >fearful</p>
                            <div style=""width:240px; margin: auto;"">
                                <img src=""images/map07_RdYlBu_scaleDef_orientDef_090.png"" style= ""width:200px""alt=""img"">
                            </div>
                        </div>","140","","0","","","","images/map07_RdYlBu_scaleDef_orientDef_090.png","fearful","1","07","07","RdYlBu","orientDef","scaleDef","090","",""
"","","","","","html-slider-response","52","253022","0.0-48.0","r9aq21gysj","39","NaN","<div style=""width:500px;"">
                            <p style=""font-size:50px; font-weight:bold;""
                            >fearful</p>
                            <div style=""width:240px; margin: auto;"">
                                <img src=""images/map07_Spectral_scaleRev_orientMir_180.png"" style= ""width:200px""alt=""img"">
                            </div>
                        </div>","111","","0","","","","images/map07_Spectral_scaleRev_orientMir_180.png","fearful","1","07","07","Spectral","orientMir","scaleRev","180","",""
"","","","","","html-slider-response","53","254360","0.0-49.0","r9aq21gysj","39","NaN","<div style=""width:500px;"">
                            <p style=""font-size:50px; font-weight:bold;""
                            >fearful</p>
                            <div style=""width:240px; margin: auto;"">
                                <img src=""images/map05_RdGy_scaleDef_orientMir_090.png"" style= ""width:200px""alt=""img"">
                            </div>
                        </div>","91","","0","","","","images/map05_RdGy_scaleDef_orientMir_090.png","fearful","1","05","05","RdGy","orientMir","scaleDef","090","",""
"","","","","","html-slider-response","54","255519","0.0-50.0","r9aq21gysj","39","NaN","<div style=""width:500px;"">
                            <p style=""font-size:50px; font-weight:bold;""
                            >fearful</p>
                            <div style=""width:240px; margin: auto;"">
                                <img src=""images/map02_BuGn_scaleDef_orientDef_090.png"" style= ""width:200px""alt=""img"">
                            </div>
                        </div>","77","","0","","","","images/map02_BuGn_scaleDef_orientDef_090.png","fearful","1","02","02","BuGn","orientDef","scaleDef","090","",""
"","","","","","html-slider-response","55","256619","0.0-51.0","r9aq21gysj","39","NaN","<div style=""width:500px;"">
                            <p style=""font-size:50px; font-weight:bold;""
                            >fearful</p>
                            <div style=""width:240px; margin: auto;"">
                                <img src=""images/map13_viridis_scaleRev_orientDef_000.png"" style= ""width:200px""alt=""img"">
                            </div>
                        </div>","76","","0","","","","images/map13_viridis_scaleRev_orientDef_000.png","fearful","1","13","13","viridis","orientDef","scaleRev","000","",""
"","","","","","html-slider-response","56","257726","0.0-52.0","r9aq21gysj","39","NaN","<div style=""width:500px;"">
                            <p style=""font-size:50px; font-weight:bold;""
                            >fearful</p>
                            <div style=""width:240px; margin: auto;"">
                                <img src=""images/map07_coolwarm_scaleDef_orientMir_270.png"" style= ""width:200px""alt=""img"">
                            </div>
                        </div>","98","","0","","","","images/map07_coolwarm_scaleDef_orientMir_270.png","fearful","1","07","07","coolwarm","orientMir","scaleDef","270","",""
"","","","","","html-slider-response","57","258952","0.0-53.0","r9aq21gysj","39","NaN","<div style=""width:500px;"">
                            <p style=""font-size:50px; font-weight:bold;""
                            >fearful</p>
                            <div style=""width:240px; margin: auto;"">
                                <img src=""images/map15_Blues_scaleRev_orientMir_180.png"" style= ""width:200px""alt=""img"">
                            </div>
                        </div>","76","","0","","","","images/map15_Blues_scaleRev_orientMir_180.png","fearful","1","15","15","Blues","orientMir","scaleRev","180","",""
"","","","","","html-button-response","58","260375","0.0-54.0","r9aq21gysj","39","922","<p>You are doing great!<br></br> You are halway done with the current block. When you are ready to continue, click the 'Continue' button.</p>","0","","","","","","","","","","","","","","","",""
"","","","","","html-slider-response","59","262370","0.0-55.0","r9aq21gysj","39","NaN","<div style=""width:500px;"">
                            <p style=""font-size:50px; font-weight:bold;""
                            >fearful</p>
                            <div style=""width:240px; margin: auto;"">
                                <img src=""images/map02_PiYG_scaleDef_orientMir_090.png"" style= ""width:200px""alt=""img"">
                            </div>
                        </div>","48","","0","","","","images/map02_PiYG_scaleDef_orientMir_090.png","fearful","1","02","02","PiYG","orientMir","scaleDef","090","",""
"","","","","","html-slider-response","60","263652","0.0-56.0","r9aq21gysj","39","NaN","<div style=""width:500px;"">
                            <p style=""font-size:50px; font-weight:bold;""
                            >fearful</p>
                            <div style=""width:240px; margin: auto;"">
                                <img src=""images/map15_Blues_scaleDef_orientMir_090.png"" style= ""width:200px""alt=""img"">
                            </div>
                        </div>","65","","0","","","","images/map15_Blues_scaleDef_orientMir_090.png","fearful","1","15","15","Blues","orientMir","scaleDef","090","",""
"","","","","","html-slider-response","61","264922","0.0-57.0","r9aq21gysj","39","NaN","<div style=""width:500px;"">
                            <p style=""font-size:50px; font-weight:bold;""
                            >fearful</p>
                            <div style=""width:240px; margin: auto;"">
                                <img src=""images/map10_bwr_scaleDef_orientDef_090.png"" style= ""width:200px""alt=""img"">
                            </div>
                        </div>","45","","0","","","","images/map10_bwr_scaleDef_orientDef_090.png","fearful","1","10","10","bwr","orientDef","scaleDef","090","",""
"","","","","","html-slider-response","62","266364","0.0-58.0","r9aq21gysj","39","NaN","<div style=""width:500px;"">
                            <p style=""font-size:50px; font-weight:bold;""
                            >fearful</p>
                            <div style=""width:240px; margin: auto;"">
                                <img src=""images/map02_PRGn_scaleDef_orientMir_270.png"" style= ""width:200px""alt=""img"">
                            </div>
                        </div>","60","","0","","","","images/map02_PRGn_scaleDef_orientMir_270.png","fearful","1","02","02","PRGn","orientMir","scaleDef","270","",""
"","","","","","html-slider-response","63","267732","0.0-59.0","r9aq21gysj","39","NaN","<div style=""width:500px;"">
                            <p style=""font-size:50px; font-weight:bold;""
                            >fearful</p>
                            <div style=""width:240px; margin: auto;"">
                                <img src=""images/map07_RdYlGn_scaleRev_orientMir_000.png"" style= ""width:200px""alt=""img"">
                            </div>
                        </div>","62","","0","","","","images/map07_RdYlGn_scaleRev_orientMir_000.png","fearful","1","07","07","RdYlGn","orientMir","scaleRev","000","",""
"","","","","","html-slider-response","64","270139","0.0-60.0","r9aq21gysj","39","NaN","<div style=""width:500px;"">
                            <p style=""font-size:50px; font-weight:bold;""
                            >fearful</p>
                            <div style=""width:240px; margin: auto;"">
                                <img src=""images/map15_Purples_scaleDef_orientDef_270.png"" style= ""width:200px""alt=""img"">
                            </div>
                        </div>","57","","0","","","","images/map15_Purples_scaleDef_orientDef_270.png","fearful","1","15","15","Purples","orientDef","scaleDef","270","",""
"","","","","","html-slider-response","65","271761","0.0-61.0","r9aq21gysj","39","NaN","<div style=""width:500px;"">
                            <p style=""font-size:50px; font-weight:bold;""
                            >fearful</p>
                            <div style=""width:240px; margin: auto;"">
                                <img src=""images/map13_inferno_scaleRev_orientMir_000.png"" style= ""width:200px""alt=""img"">
                            </div>
                        </div>","67","","0","","","","images/map13_inferno_scaleRev_orientMir_000.png","fearful","1","13","13","inferno","orientMir","scaleRev","000","",""
"","","","","","html-slider-response","66","273234","0.0-62.0","r9aq21gysj","39","NaN","<div style=""width:500px;"">
                            <p style=""font-size:50px; font-weight:bold;""
                            >fearful</p>
                            <div style=""width:240px; margin: auto;"">
                                <img src=""images/map23_YlOrBr_scaleRev_orientMir_180.png"" style= ""width:200px""alt=""img"">
                            </div>
                        </div>","85","","0","","","","images/map23_YlOrBr_scaleRev_orientMir_180.png","fearful","1","23","23","YlOrBr","orientMir","scaleRev","180","",""
"","","","","","html-slider-response","67","274413","0.0-63.0","r9aq21gysj","39","NaN","<div style=""width:500px;"">
                            <p style=""font-size:50px; font-weight:bold;""
                            >fearful</p>
                            <div style=""width:240px; margin: auto;"">
                                <img src=""images/map10_coolwarm_scaleRev_orientDef_000.png"" style= ""width:200px""alt=""img"">
                            </div>
                        </div>","48","","0","","","","images/map10_coolwarm_scaleRev_orientDef_000.png","fearful","1","10","10","coolwarm","orientDef","scaleRev","000","",""
"","","","","","html-slider-response","68","275638","0.0-64.0","r9aq21gysj","39","NaN","<div style=""width:500px;"">
                            <p style=""font-size:50px; font-weight:bold;""
                            >fearful</p>
                            <div style=""width:240px; margin: auto;"">
                                <img src=""images/map13_magma_scaleRev_orientMir_180.png"" style= ""width:200px""alt=""img"">
                            </div>
                        </div>","132","","0","","","","images/map13_magma_scaleRev_orientMir_180.png","fearful","1","13","13","magma","orientMir","scaleRev","180","",""
"","","","","","html-slider-response","69","276848","0.0-65.0","r9aq21gysj","39","NaN","<div style=""width:500px;"">
                            <p style=""font-size:50px; font-weight:bold;""
                            >fearful</p>
                            <div style=""width:240px; margin: auto;"">
                                <img src=""images/map02_BuGn_scaleRev_orientDef_180.png"" style= ""width:200px""alt=""img"">
                            </div>
                        </div>","125","","0","","","","images/map02_BuGn_scaleRev_orientDef_180.png","fearful","1","02","02","BuGn","orientDef","scaleRev","180","",""
"","","","","","html-slider-response","70","277924","0.0-66.0","r9aq21gysj","39","NaN","<div style=""width:500px;"">
                            <p style=""font-size:50px; font-weight:bold;""
                            >fearful</p>
                            <div style=""width:240px; margin: auto;"">
                                <img src=""images/map12_vanimo_scaleRev_orientDef_180.png"" style= ""width:200px""alt=""img"">
                            </div>
                        </div>","54","","0","","","","images/map12_vanimo_scaleRev_orientDef_180.png","fearful","1","12","12","vanimo","orientDef","scaleRev","180","",""
"","","","","","html-slider-response","71","279132","0.0-67.0","r9aq21gysj","39","NaN","<div style=""width:500px;"">
                            <p style=""font-size:50px; font-weight:bold;""
                            >fearful</p>
                            <div style=""width:240px; margin: auto;"">
                                <img src=""images/map27_YlGnBu_scaleRev_orientMir_180.png"" style= ""width:200px""alt=""img"">
                            </div>
                        </div>","144","","0","","","","images/map27_YlGnBu_scaleRev_orientMir_180.png","fearful","1","27","27","YlGnBu","orientMir","scaleRev","180","",""
"","","","","","html-slider-response","72","280362","0.0-68.0","r9aq21gysj","39","NaN","<div style=""width:500px;"">
                            <p style=""font-size:50px; font-weight:bold;""
                            >fearful</p>
                            <div style=""width:240px; margin: auto;"">
                                <img src=""images/map13_plasma_scaleDef_orientDef_090.png"" style= ""width:200px""alt=""img"">
                            </div>
                        </div>","45","","0","","","","images/map13_plasma_scaleDef_orientDef_090.png","fearful","1","13","13","plasma","orientDef","scaleDef","090","",""
"","","","","","html-slider-response","73","281601","0.0-69.0","r9aq21gysj","39","NaN","<div style=""width:500px;"">
                            <p style=""font-size:50px; font-weight:bold;""
                            >fearful</p>
                            <div style=""width:240px; margin: auto;"">
                                <img src=""images/map26_YlOrRd_scaleRev_orientDef_000.png"" style= ""width:200px""alt=""img"">
                            </div>
                        </div>","116","","0","","","","images/map26_YlOrRd_scaleRev_orientDef_000.png","fearful","1","26","26","YlOrRd","orientDef","scaleRev","000","",""
"","","","","","html-slider-response","74","282777","0.0-70.0","r9aq21gysj","39","NaN","<div style=""width:500px;"">
                            <p style=""font-size:50px; font-weight:bold;""
                            >fearful</p>
                            <div style=""width:240px; margin: auto;"">
                                <img src=""images/map13_cividis_scaleDef_orientMir_270.png"" style= ""width:200px""alt=""img"">
                            </div>
                        </div>","42","","0","","","","images/map13_cividis_scaleDef_orientMir_270.png","fearful","1","13","13","cividis","orientMir","scaleDef","270","",""
"","","","","","html-slider-response","75","284140","0.0-71.0","r9aq21gysj","39","NaN","<div style=""width:500px;"">
                            <p style=""font-size:50px; font-weight:bold;""
                            >fearful</p>
                            <div style=""width:240px; margin: auto;"">
                                <img src=""images/map13_magma_scaleDef_orientMir_090.png"" style= ""width:200px""alt=""img"">
                            </div>
                        </div>","94","","0","","","","images/map13_magma_scaleDef_orientMir_090.png","fearful","1","13","13","magma","orientMir","scaleDef","090","",""
"","","","","","html-slider-response","76","285749","0.0-72.0","r9aq21gysj","39","NaN","<div style=""width:500px;"">
                            <p style=""font-size:50px; font-weight:bold;""
                            >fearful</p>
                            <div style=""width:240px; margin: auto;"">
                                <img src=""images/map02_PiYG_scaleRev_orientMir_180.png"" style= ""width:200px""alt=""img"">
                            </div>
                        </div>","82","","0","","","","images/map02_PiYG_scaleRev_orientMir_180.png","fearful","1","02","02","PiYG","orientMir","scaleRev","180","",""
"","","","","","html-slider-response","77","287206","0.0-73.0","r9aq21gysj","39","NaN","<div style=""width:500px;"">
                            <p style=""font-size:50px; font-weight:bold;""
                            >fearful</p>
                            <div style=""width:240px; margin: auto;"">
                                <img src=""images/map05_PRGn_scaleRev_orientDef_000.png"" style= ""width:200px""alt=""img"">
                            </div>
                        </div>","76","","0","","","","images/map05_PRGn_scaleRev_orientDef_000.png","fearful","1","05","05","PRGn","orientDef","scaleRev","000","",""
"","","","","","html-slider-response","78","288225","0.0-74.0","r9aq21gysj","39","NaN","<div style=""width:500px;"">
                            <p style=""font-size:50px; font-weight:bold;""
                            >fearful</p>
                            <div style=""width:240px; margin: auto;"">
                                <img src=""images/map02_PuBuGn_scaleRev_orientDef_000.png"" style= ""width:200px""alt=""img"">
                            </div>
                        </div>","109","","0","","","","images/map02_PuBuGn_scaleRev_orientDef_000.png","fearful","1","02","02","PuBuGn","orientDef","scaleRev","000","",""
"","","","","","html-slider-response","79","289332","0.0-75.0","r9aq21gysj","39","NaN","<div style=""width:500px;"">
                            <p style=""font-size:50px; font-weight:bold;""
                            >fearful</p>
                            <div style=""width:240px; margin: auto;"">
                                <img src=""images/map05_PuOr_scaleDef_orientDef_270.png"" style= ""width:200px""alt=""img"">
                            </div>
                        </div>","124","","0","","","","images/map05_PuOr_scaleDef_orientDef_270.png","fearful","1","05","05","PuOr","orientDef","scaleDef","270","",""
"","","","","","html-slider-response","80","290676","0.0-76.0","r9aq21gysj","39","NaN","<div style=""width:500px;"">
                            <p style=""font-size:50px; font-weight:bold;""
                            >fearful</p>
                            <div style=""width:240px; margin: auto;"">
                                <img src=""images/map12_managua_scaleRev_orientDef_000.png"" style= ""width:200px""alt=""img"">
                            </div>
                        </div>","81","","0","","","","images/map12_managua_scaleRev_orientDef_000.png","fearful","1","12","12","managua","orientDef","scaleRev","000","",""
"","","","","","html-slider-response","81","291768","0.0-77.0","r9aq21gysj","39","NaN","<div style=""width:500px;"">
                            <p style=""font-size:50px; font-weight:bold;""
                            >fearful</p>
                            <div style=""width:240px; margin: auto;"">
                                <img src=""images/map26_BuPu_scaleDef_orientMir_270.png"" style= ""width:200px""alt=""img"">
                            </div>
                        </div>","84","","0","","","","images/map26_BuPu_scaleDef_orientMir_270.png","fearful","1","26","26","BuPu","orientMir","scaleDef","270","",""
"","","","","","html-slider-response","82","292853","0.0-78.0","r9aq21gysj","39","NaN","<div style=""width:500px;"">
                            <p style=""font-size:50px; font-weight:bold;""
                            >fearful</p>
                            <div style=""width:240px; margin: auto;"">
                                <img src=""images/map15_Greys_scaleRev_orientDef_180.png"" style= ""width:200px""alt=""img"">
                            </div>
                        </div>","88","","0","","","","images/map15_Greys_scaleRev_orientDef_180.png","fearful","1","15","15","Greys","orientDef","scaleRev","180","",""
"","","","","","html-slider-response","83","293897","0.0-79.0","r9aq21gysj","39","NaN","<div style=""width:500px;"">
                            <p style=""font-size:50px; font-weight:bold;""
                            >fearful</p>
                            <div style=""width:240px; margin: auto;"">
                                <img src=""images/map27_PuBu_scaleDef_orientDef_270.png"" style= ""width:200px""alt=""img"">
                            </div>
                        </div>","125","","0","","","","images/map27_PuBu_scaleDef_orientDef_270.png","fearful","1","27","27","PuBu","orientDef","scaleDef","270","",""
"","","","","","html-slider-response","84","295025","0.0-80.0","r9aq21gysj","39","NaN","<div style=""width:500px;"">
                            <p style=""font-size:50px; font-weight:bold;""
                            >fearful</p>
                            <div style=""width:240px; margin: auto;"">
                                <img src=""images/map12_turbo_scaleRev_orientMir_180.png"" style= ""width:200px""alt=""img"">
                            </div>
                        </div>","200","","0","","","","images/map12_turbo_scaleRev_orientMir_180.png","fearful","1","12","12","turbo","orientMir","scaleRev","180","",""
"","","","","","html-slider-response","85","296273","0.0-81.0","r9aq21gysj","39","NaN","<div style=""width:500px;"">
                            <p style=""font-size:50px; font-weight:bold;""
                            >fearful</p>
                            <div style=""width:240px; margin: auto;"">
                                <img src=""images/map10_seismic_scaleRev_orientMir_000.png"" style= ""width:200px""alt=""img"">
                            </div>
                        </div>","116","","0","","","","images/map10_seismic_scaleRev_orientMir_000.png","fearful","1","10","10","seismic","orientMir","scaleRev","000","",""
"","","","","","html-slider-response","86","297372","0.0-82.0","r9aq21gysj","39","NaN","<div style=""width:500px;"">
                            <p style=""font-size:50px; font-weight:bold;""
                            >fearful</p>
                            <div style=""width:240px; margin: auto;"">
                                <img src=""images/map23_Oranges_scaleDef_orientDef_090.png"" style= ""width:200px""alt=""img"">
                            </div>
                        </div>","97","","0","","","","images/map23_Oranges_scaleDef_orientDef_090.png","fearful","1","23","23","Oranges","orientDef","scaleDef","090","",""
"","","","","","html-slider-response","87","298451","0.0-83.0","r9aq21gysj","39","NaN","<div style=""width:500px;"">
                            <p style=""font-size:50px; font-weight:bold;""
                            >fearful</p>
                            <div style=""width:240px; margin: auto;"">
                                <img src=""images/map23_Oranges_scaleRev_orientDef_180.png"" style= ""width:200px""alt=""img"">
                            </div>
                        </div>","92","","0","","","","images/map23_Oranges_scaleRev_orientDef_180.png","fearful","1","23","23","Oranges","orientDef","scaleRev","180","",""
"","","","","","html-slider-response","88","299568","0.0-84.0","r9aq21gysj","39","NaN","<div style=""width:500px;"">
                            <p style=""font-size:50px; font-weight:bold;""
                            >fearful</p>
                            <div style=""width:240px; margin: auto;"">
                                <img src=""images/map26_RdPu_scaleDef_orientMir_090.png"" style= ""width:200px""alt=""img"">
                            </div>
                        </div>","130","","0","","","","images/map26_RdPu_scaleDef_orientMir_090.png","fearful","1","26","26","RdPu","orientMir","scaleDef","090","",""
"","","","","","html-slider-response","89","300694","0.0-85.0","r9aq21gysj","39","NaN","<div style=""width:500px;"">
                            <p style=""font-size:50px; font-weight:bold;""
                            >fearful</p>
                            <div style=""width:240px; margin: auto;"">
                                <img src=""images/map26_PuRd_scaleRev_orientMir_000.png"" style= ""width:200px""alt=""img"">
                            </div>
                        </div>","144","","0","","","","images/map26_PuRd_scaleRev_orientMir_000.png","fearful","1","26","26","PuRd","orientMir","scaleRev","000","",""
"","","","","","html-slider-response","90","301789","0.0-86.0","r9aq21gysj","39","NaN","<div style=""width:500px;"">
                            <p style=""font-size:50px; font-weight:bold;""
                            >fearful</p>
                            <div style=""width:240px; margin: auto;"">
                                <img src=""images/map15_Purples_scaleRev_orientMir_000.png"" style= ""width:200px""alt=""img"">
                            </div>
                        </div>","109","","0","","","","images/map15_Purples_scaleRev_orientMir_000.png","fearful","1","15","15","Purples","orientMir","scaleRev","000","",""
"","","","","","html-slider-response","91","302868","0.0-87.0","r9aq21gysj","39","NaN","<div style=""width:500px;"">
                            <p style=""font-size:50px; font-weight:bold;""
                            >fearful</p>
                            <div style=""width:240px; margin: auto;"">
                                <img src=""images/map12_viridis_scaleDef_orientMir_270.png"" style= ""width:200px""alt=""img"">
                            </div>
                        </div>","137","","0","","","","images/map12_viridis_scaleDef_orientMir_270.png","fearful","1","12","12","viridis","orientMir","scaleDef","270","",""
"","","","","","html-slider-response","92","303960","0.0-88.0","r9aq21gysj","39","NaN","<div style=""width:500px;"">
                            <p style=""font-size:50px; font-weight:bold;""
                            >fearful</p>
                            <div style=""width:240px; margin: auto;"">
                                <img src=""images/map27_PuBu_scaleRev_orientMir_000.png"" style= ""width:200px""alt=""img"">
                            </div>
                        </div>","146","","0","","","","images/map27_PuBu_scaleRev_orientMir_000.png","fearful","1","27","27","PuBu","orientMir","scaleRev","000","",""
"","","","","","html-slider-response","93","305101","0.0-89.0","r9aq21gysj","39","NaN","<div style=""width:500px;"">
                            <p style=""font-size:50px; font-weight:bold;""
                            >fearful</p>
                            <div style=""width:240px; margin: auto;"">
                                <img src=""images/map27_GnBu_scaleRev_orientDef_180.png"" style= ""width:200px""alt=""img"">
                            </div>
                        </div>","103","","0","","","","images/map27_GnBu_scaleRev_orientDef_180.png","fearful","1","27","27","GnBu","orientDef","scaleRev","180","",""
"","","","","","html-slider-response","94","306172","0.0-90.0","r9aq21gysj","39","NaN","<div style=""width:500px;"">
                            <p style=""font-size:50px; font-weight:bold;""
                            >fearful</p>
                            <div style=""width:240px; margin: auto;"">
                                <img src=""images/map10_managua_scaleDef_orientMir_270.png"" style= ""width:200px""alt=""img"">
                            </div>
                        </div>","142","","0","","","","images/map10_managua_scaleDef_orientMir_270.png","fearful","1","10","10","managua","orientMir","scaleDef","270","",""
"","","","","","html-slider-response","95","307385","0.0-91.0","r9aq21gysj","39","NaN","<div style=""width:500px;"">
                            <p style=""font-size:50px; font-weight:bold;""
                            >fearful</p>
                            <div style=""width:240px; margin: auto;"">
                                <img src=""images/map05_BrBG_scaleDef_orientDef_090.png"" style= ""width:200px""alt=""img"">
                            </div>
                        </div>","159","","0","","","","images/map05_BrBG_scaleDef_orientDef_090.png","fearful","1","05","05","BrBG","orientDef","scaleDef","090","",""
"","","","","","html-slider-response","96","308497","0.0-92.0","r9aq21gysj","39","NaN","<div style=""width:500px;"">
                            <p style=""font-size:50px; font-weight:bold;""
                            >fearful</p>
                            <div style=""width:240px; margin: auto;"">
                                <img src=""images/map23_Reds_scaleRev_orientMir_000.png"" style= ""width:200px""alt=""img"">
                            </div>
                        </div>","157","","0","","","","images/map23_Reds_scaleRev_orientMir_000.png","fearful","1","23","23","Reds","orientMir","scaleRev","000","",""
"","","","","","html-slider-response","97","309589","0.0-93.0","r9aq21gysj","39","NaN","<div style=""width:500px;"">
                            <p style=""font-size:50px; font-weight:bold;""
                            >fearful</p>
                            <div style=""width:240px; margin: auto;"">
                                <img src=""images/map13_plasma_scaleRev_orientDef_180.png"" style= ""width:200px""alt=""img"">
                            </div>
                        </div>","139","","0","","","","images/map13_plasma_scaleRev_orientDef_180.png","fearful","1","13","13","plasma","orientDef","scaleRev","180","",""
"","","","","","html-slider-response","98","310730","0.0-94.0","r9aq21gysj","39","NaN","<div style=""width:500px;"">
                            <p style=""font-size:50px; font-weight:bold;""
                            >fearful</p>
                            <div style=""width:240px; margin: auto;"">
                                <img src=""images/map23_YlOrBr_scaleDef_orientMir_090.png"" style= ""width:200px""alt=""img"">
                            </div>
                        </div>","137","","0","","","","images/map23_YlOrBr_scaleDef_orientMir_090.png","fearful","1","23","23","YlOrBr","orientMir","scaleDef","090","",""
"","","","","","html-button-response","99","312279","0.0-95.0","r9aq21gysj","39","1047","<p>Great Job! You've finished block 1.<br></br> You have 4 block(s) left to go.<br></br></p>","0","","","","","","","","","","","","","","","",""
"","","","","","html-button-response","100","312899","0.0-96.0","r9aq21gysj","39","619","<p>In this block of trials, you will be asked to rate how much you associate each map with:</p > <p style = 'font-size:150%; font-weight: bold'>happy</p><br></br>","0","","","","","","","","","","","","","","","",""
"","","","","","html-slider-response","101","315381","0.0-97.0","r9aq21gysj","39","NaN","<div style=""width:500px;"">
                            <p style=""font-size:50px; font-weight:bold;""
                            >happy</p>
                            <div style=""width:240px; margin: auto;"">
                                <img src=""images/map02_PiYG_scaleRev_orientMir_180.png"" style= ""width:200px""alt=""img"">
                            </div>
                        </div>","-29","","0","","","","images/map02_PiYG_scaleRev_orientMir_180.png","happy","1","02","02","PiYG","orientMir","scaleRev","180","",""
"","","","","","html-slider-response","102","317351","0.0-98.0","r9aq21gysj","39","NaN","<div style=""width:500px;"">
                            <p style=""font-size:50px; font-weight:bold;""
                            >happy</p>
                            <div style=""width:240px; margin: auto;"">
                                <img src=""images/map23_YlOrBr_scaleDef_orientMir_090.png"" style= ""width:200px""alt=""img"">
                            </div>
                        </div>","82","","0","","","","images/map23_YlOrBr_scaleDef_orientMir_090.png","happy","1","23","23","YlOrBr","orientMir","scaleDef","090","",""
"","","","","","html-slider-response","103","320451","0.0-99.0","r9aq21gysj","39","NaN","<div style=""width:500px;"">
                            <p style=""font-size:50px; font-weight:bold;""
                            >happy</p>
                            <div style=""width:240px; margin: auto;"">
                                <img src=""images/map27_GnBu_scaleRev_orientDef_180.png"" style= ""width:200px""alt=""img"">
                            </div>
                        </div>","27","","0","","","","images/map27_GnBu_scaleRev_orientDef_180.png","happy","1","27","27","GnBu","orientDef","scaleRev","180","",""
"","","","","","html-slider-response","104","322201","0.0-100.0","r9aq21gysj","39","NaN","<div style=""width:500px;"">
                            <p style=""font-size:50px; font-weight:bold;""
                            >happy</p>
                            <div style=""width:240px; margin: auto;"">
                                <img src=""images/map27_PuBu_scaleRev_orientMir_000.png"" style= ""width:200px""alt=""img"">
                            </div>
                        </div>","39","","0","","","","images/map27_PuBu_scaleRev_orientMir_000.png","happy","1","27","27","PuBu","orientMir","scaleRev","000","",""
"","","","","","html-slider-response","105","324068","0.0-101.0","r9aq21gysj","39","NaN","<div style=""width:500px;"">
                            <p style=""font-size:50px; font-weight:bold;""
                            >happy</p>
                            <div style=""width:240px; margin: auto;"">
                                <img src=""images/map15_Greens_scaleDef_orientMir_270.png"" style= ""width:200px""alt=""img"">
                            </div>
                        </div>","58","","0","","","","images/map15_Greens_scaleDef_orientMir_270.png","happy","1","15","15","Greens","orientMir","scaleDef","270","",""
"","","","","","html-slider-response","106","325806","0.0-102.0","r9aq21gysj","39","NaN","<div style=""width:500px;"">
                            <p style=""font-size:50px; font-weight:bold;""
                            >happy</p>
                            <div style=""width:240px; margin: auto;"">
                                <img src=""images/map15_cividis_scaleRev_orientDef_000.png"" style= ""width:200px""alt=""img"">
                            </div>
                        </div>","-52","","0","","","","images/map15_cividis_scaleRev_orientDef_000.png","happy","1","15","15","cividis","orientDef","scaleRev","000","",""
"","","","","","html-slider-response","107","327848","0.0-103.0","r9aq21gysj","39","NaN","<div style=""width:500px;"">
                            <p style=""font-size:50px; font-weight:bold;""
                            >happy</p>
                            <div style=""width:240px; margin: auto;"">
                                <img src=""images/map23_YlOrBr_scaleRev_orientMir_180.png"" style= ""width:200px""alt=""img"">
                            </div>
                        </div>","-40","","0","","","","images/map23_YlOrBr_scaleRev_orientMir_180.png","happy","1","23","23","YlOrBr","orientMir","scaleRev","180","",""
"","","","","","html-slider-response","108","329998","0.0-104.0","r9aq21gysj","39","NaN","<div style=""width:500px;"">
                            <p style=""font-size:50px; font-weight:bold;""
                            >happy</p>
                            <div style=""width:240px; margin: auto;"">
                                <img src=""images/map26_RdPu_scaleRev_orientMir_180.png"" style= ""width:200px""alt=""img"">
                            </div>
                        </div>","42","","0","","","","images/map26_RdPu_scaleRev_orientMir_180.png","happy","1","26","26","RdPu","orientMir","scaleRev","180","",""
"","","","","","html-slider-response","109","331739","0.0-105.0","r9aq21gysj","39","NaN","<div style=""width:500px;"">
                            <p style=""font-size:50px; font-weight:bold;""
                            >happy</p>
                            <div style=""width:240px; margin: auto;"">
                                <img src=""images/map27_BuPu_scaleRev_orientDef_000.png"" style= ""width:200px""alt=""img"">
                            </div>
                        </div>","-170","","0","","","","images/map27_BuPu_scaleRev_orientDef_000.png","happy","1","27","27","BuPu","orientDef","scaleRev","000","",""
"","","","","","html-slider-response","110","333368","0.0-106.0","r9aq21gysj","39","NaN","<div style=""width:500px;"">
                            <p style=""font-size:50px; font-weight:bold;""
                            >happy</p>
                            <div style=""width:240px; margin: auto;"">
                                <img src=""images/map02_YlGn_scaleRev_orientMir_000.png"" style= ""width:200px""alt=""img"">
                            </div>
                        </div>","-36","","0","","","","images/map02_YlGn_scaleRev_orientMir_000.png","happy","1","02","02","YlGn","orientMir","scaleRev","000","",""
"","","","","","html-slider-response","111","335830","0.0-107.0","r9aq21gysj","39","NaN","<div style=""width:500px;"">
                            <p style=""font-size:50px; font-weight:bold;""
                            >happy</p>
                            <div style=""width:240px; margin: auto;"">
                                <img src=""images/map12_vanimo_scaleDef_orientDef_090.png"" style= ""width:200px""alt=""img"">
                            </div>
                        </div>","-124","","0","","","","images/map12_vanimo_scaleDef_orientDef_090.png","happy","1","12","12","vanimo","orientDef","scaleDef","090","",""
"","","","","","html-slider-response","112","337712","0.0-108.0","r9aq21gysj","39","NaN","<div style=""width:500px;"">
                            <p style=""font-size:50px; font-weight:bold;""
                            >happy</p>
                            <div style=""width:240px; margin: auto;"">
                                <img src=""images/map07_RdYlBu_scaleDef_orientDef_090.png"" style= ""width:200px""alt=""img"">
                            </div>
                        </div>","-58","","0","","","","images/map07_RdYlBu_scaleDef_orientDef_090.png","happy","1","07","07","RdYlBu","orientDef","scaleDef","090","",""
"","","","","","html-slider-response","113","339910","0.0-109.0","r9aq21gysj","39","NaN","<div style=""width:500px;"">
                            <p style=""font-size:50px; font-weight:bold;""
                            >happy</p>
                            <div style=""width:240px; margin: auto;"">
                                <img src=""images/map07_RdYlGn_scaleDef_orientDef_270.png"" style= ""width:200px""alt=""img"">
                            </div>
                        </div>","-58","","0","","","","images/map07_RdYlGn_scaleDef_orientDef_270.png","happy","1","07","07","RdYlGn","orientDef","scaleDef","270","",""
"","","","","","html-slider-response","114","341760","0.0-110.0","r9aq21gysj","39","NaN","<div style=""width:500px;"">
                            <p style=""font-size:50px; font-weight:bold;""
                            >happy</p>
                            <div style=""width:240px; margin: auto;"">
                                <img src=""images/map23_Oranges_scaleDef_orientDef_090.png"" style= ""width:200px""alt=""img"">
                            </div>
                        </div>","-94","","0","","","","images/map23_Oranges_scaleDef_orientDef_090.png","happy","1","23","23","Oranges","orientDef","scaleDef","090","",""
"","","","","","html-slider-response","115","343529","0.0-111.0","r9aq21gysj","39","NaN","<div style=""width:500px;"">
                            <p style=""font-size:50px; font-weight:bold;""
                            >happy</p>
                            <div style=""width:240px; margin: auto;"">
                                <img src=""images/map15_Greys_scaleRev_orientDef_180.png"" style= ""width:200px""alt=""img"">
                            </div>
                        </div>","-111","","0","","","","images/map15_Greys_scaleRev_orientDef_180.png","happy","1","15","15","Greys","orientDef","scaleRev","180","",""
"","","","","","html-slider-response","116","345167","0.0-112.0","r9aq21gysj","39","NaN","<div style=""width:500px;"">
                            <p style=""font-size:50px; font-weight:bold;""
                            >happy</p>
                            <div style=""width:240px; margin: auto;"">
                                <img src=""images/map26_RdPu_scaleDef_orientMir_090.png"" style= ""width:200px""alt=""img"">
                            </div>
                        </div>","19","","0","","","","images/map26_RdPu_scaleDef_orientMir_090.png","happy","1","26","26","RdPu","orientMir","scaleDef","090","",""
"","","","","","html-slider-response","117","346919","0.0-113.0","r9aq21gysj","39","NaN","<div style=""width:500px;"">
                            <p style=""font-size:50px; font-weight:bold;""
                            >happy</p>
                            <div style=""width:240px; margin: auto;"">
                                <img src=""images/map23_Reds_scaleDef_orientDef_270.png"" style= ""width:200px""alt=""img"">
                            </div>
                        </div>","-125","","0","","","","images/map23_Reds_scaleDef_orientDef_270.png","happy","1","23","23","Reds","orientDef","scaleDef","270","",""
"","","","","","html-slider-response","118","348313","0.0-114.0","r9aq21gysj","39","NaN","<div style=""width:500px;"">
                            <p style=""font-size:50px; font-weight:bold;""
                            >happy</p>
                            <div style=""width:240px; margin: auto;"">
                                <img src=""images/map23_YlOrRd_scaleDef_orientMir_270.png"" style= ""width:200px""alt=""img"">
                            </div>
                        </div>","-103","","0","","","","images/map23_YlOrRd_scaleDef_orientMir_270.png","happy","1","23","23","YlOrRd","orientMir","scaleDef","270","",""
"","","","","","html-slider-response","119","349496","0.0-115.0","r9aq21gysj","39","NaN","<div style=""width:500px;"">
                            <p style=""font-size:50px; font-weight:bold;""
                            >happy</p>
                            <div style=""width:240px; margin: auto;"">
                                <img src=""images/map05_PRGn_scaleRev_orientDef_000.png"" style= ""width:200px""alt=""img"">
                            </div>
                        </div>","-108","","0","","","","images/map05_PRGn_scaleRev_orientDef_000.png","happy","1","05","05","PRGn","orientDef","scaleRev","000","",""
"","","","","","html-slider-response","120","350580","0.0-116.0","r9aq21gysj","39","NaN","<div style=""width:500px;"">
                            <p style=""font-size:50px; font-weight:bold;""
                            >happy</p>
                            <div style=""width:240px; margin: auto;"">
                                <img src=""images/map15_Purples_scaleRev_orientMir_000.png"" style= ""width:200px""alt=""img"">
                            </div>
                        </div>","-125","","0","","","","images/map15_Purples_scaleRev_orientMir_000.png","happy","1","15","15","Purples","orientMir","scaleRev","000","",""
"","","","","","html-slider-response","121","352089","0.0-117.0","r9aq21gysj","39","NaN","<div style=""width:500px;"">
                            <p style=""font-size:50px; font-weight:bold;""
                            >happy</p>
                            <div style=""width:240px; margin: auto;"">
                                <img src=""images/map27_YlGnBu_scaleDef_orientMir_090.png"" style= ""width:200px""alt=""img"">
                            </div>
                        </div>","-79","","0","","","","images/map27_YlGnBu_scaleDef_orientMir_090.png","happy","1","27","27","YlGnBu","orientMir","scaleDef","090","",""
"","","","","","html-slider-response","122","353188","0.0-118.0","r9aq21gysj","39","NaN","<div style=""width:500px;"">
                            <p style=""font-size:50px; font-weight:bold;""
                            >happy</p>
                            <div style=""width:240px; margin: auto;"">
                                <img src=""images/map05_RdGy_scaleDef_orientMir_090.png"" style= ""width:200px""alt=""img"">
                            </div>
                        </div>","-139","","0","","","","images/map05_RdGy_scaleDef_orientMir_090.png","happy","1","05","05","RdGy","orientMir","scaleDef","090","",""
"","","","","","html-slider-response","123","354270","0.0-119.0","r9aq21gysj","39","NaN","<div style=""width:500px;"">
                            <p style=""font-size:50px; font-weight:bold;""
                            >happy</p>
                            <div style=""width:240px; margin: auto;"">
                                <img src=""images/map12_vanimo_scaleRev_orientDef_180.png"" style= ""width:200px""alt=""img"">
                            </div>
                        </div>","-132","","0","","","","images/map12_vanimo_scaleRev_orientDef_180.png","happy","1","12","12","vanimo","orientDef","scaleRev","180","",""
"","","","","","html-slider-response","124","355367","0.0-120.0","r9aq21gysj","39","NaN","<div style=""width:500px;"">
                            <p style=""font-size:50px; font-weight:bold;""
                            >happy</p>
                            <div style=""width:240px; margin: auto;"">
                                <img src=""images/map15_Purples_scaleDef_orientDef_270.png"" style= ""width:200px""alt=""img"">
                            </div>
                        </div>","12","","0","","","","images/map15_Purples_scaleDef_orientDef_270.png","happy","1","15","15","Purples","orientDef","scaleDef","270","",""
"","","","","","html-slider-response","125","356527","0.0-121.0","r9aq21gysj","39","NaN","<div style=""width:500px;"">
                            <p style=""font-size:50px; font-weight:bold;""
                            >happy</p>
                            <div style=""width:240px; margin: auto;"">
                                <img src=""images/map10_bwr_scaleDef_orientDef_090.png"" style= ""width:200px""alt=""img"">
                            </div>
                        </div>","-5","","0","","","","images/map10_bwr_scaleDef_orientDef_090.png","happy","1","10","10","bwr","orientDef","scaleDef","090","",""
"","","","","","html-slider-response","126","357871","0.0-122.0","r9aq21gysj","39","NaN","<div style=""width:500px;"">
                            <p style=""font-size:50px; font-weight:bold;""
                            >happy</p>
                            <div style=""width:240px; margin: auto;"">
                                <img src=""images/map05_PuOr_scaleRev_orientMir_000.png"" style= ""width:200px""alt=""img"">
                            </div>
                        </div>","-71","","0","","","","images/map05_PuOr_scaleRev_orientMir_000.png","happy","1","05","05","PuOr","orientMir","scaleRev","000","",""
"","","","","","html-slider-response","127","358971","0.0-123.0","r9aq21gysj","39","NaN","<div style=""width:500px;"">
                            <p style=""font-size:50px; font-weight:bold;""
                            >happy</p>
                            <div style=""width:240px; margin: auto;"">
                                <img src=""images/map02_YlGn_scaleDef_orientDef_270.png"" style= ""width:200px""alt=""img"">
                            </div>
                        </div>","-40","","0","","","","images/map02_YlGn_scaleDef_orientDef_270.png","happy","1","02","02","YlGn","orientDef","scaleDef","270","",""
"","","","","","html-slider-response","128","360246","0.0-124.0","r9aq21gysj","39","NaN","<div style=""width:500px;"">
                            <p style=""font-size:50px; font-weight:bold;""
                            >happy</p>
                            <div style=""width:240px; margin: auto;"">
                                <img src=""images/map05_RdBu_scaleDef_orientMir_270.png"" style= ""width:200px""alt=""img"">
                            </div>
                        </div>","-72","","0","","","","images/map05_RdBu_scaleDef_orientMir_270.png","happy","1","05","05","RdBu","orientMir","scaleDef","270","",""
"","","","","","html-slider-response","129","361396","0.0-125.0","r9aq21gysj","39","NaN","<div style=""width:500px;"">
                            <p style=""font-size:50px; font-weight:bold;""
                            >happy</p>
                            <div style=""width:240px; margin: auto;"">
                                <img src=""images/map05_PuOr_scaleDef_orientDef_270.png"" style= ""width:200px""alt=""img"">
                            </div>
                        </div>","-86","","0","","","","images/map05_PuOr_scaleDef_orientDef_270.png","happy","1","05","05","PuOr","orientDef","scaleDef","270","",""
"","","","","","html-slider-response","130","362746","0.0-126.0","r9aq21gysj","39","NaN","<div style=""width:500px;"">
                            <p style=""font-size:50px; font-weight:bold;""
                            >happy</p>
                            <div style=""width:240px; margin: auto;"">
                                <img src=""images/map13_magma_scaleDef_orientMir_090.png"" style= ""width:200px""alt=""img"">
                            </div>
                        </div>","-159","","0","","","","images/map13_magma_scaleDef_orientMir_090.png","happy","1","13","13","magma","orientMir","scaleDef","090","",""
"","","","","","html-slider-response","131","364187","0.0-127.0","r9aq21gysj","39","NaN","<div style=""width:500px;"">
                            <p style=""font-size:50px; font-weight:bold;""
                            >happy</p>
                            <div style=""width:240px; margin: auto;"">
                                <img src=""images/map07_Spectral_scaleDef_orientMir_090.png"" style= ""width:200px""alt=""img"">
                            </div>
                        </div>","-92","","0","","","","images/map07_Spectral_scaleDef_orientMir_090.png","happy","1","07","07","Spectral","orientMir","scaleDef","090","",""
"","","","","","html-slider-response","132","366209","0.0-128.0","r9aq21gysj","39","NaN","<div style=""width:500px;"">
                            <p style=""font-size:50px; font-weight:bold;""
                            >happy</p>
                            <div style=""width:240px; margin: auto;"">
                                <img src=""images/map13_plasma_scaleDef_orientDef_090.png"" style= ""width:200px""alt=""img"">
                            </div>
                        </div>","-101","","0","","","","images/map13_plasma_scaleDef_orientDef_090.png","happy","1","13","13","plasma","orientDef","scaleDef","090","",""
"","","","","","html-slider-response","133","368679","0.0-129.0","r9aq21gysj","39","NaN","<div style=""width:500px;"">
                            <p style=""font-size:50px; font-weight:bold;""
                            >happy</p>
                            <div style=""width:240px; margin: auto;"">
                                <img src=""images/map07_RdYlGn_scaleRev_orientMir_000.png"" style= ""width:200px""alt=""img"">
                            </div>
                        </div>","-37","","0","","","","images/map07_RdYlGn_scaleRev_orientMir_000.png","happy","1","07","07","RdYlGn","orientMir","scaleRev","000","",""
"","","","","","html-slider-response","134","370390","0.0-130.0","r9aq21gysj","39","NaN","<div style=""width:500px;"">
                            <p style=""font-size:50px; font-weight:bold;""
                            >happy</p>
                            <div style=""width:240px; margin: auto;"">
                                <img src=""images/map12_turbo_scaleDef_orientMir_090.png"" style= ""width:200px""alt=""img"">
                            </div>
                        </div>","-74","","0","","","","images/map12_turbo_scaleDef_orientMir_090.png","happy","1","12","12","turbo","orientMir","scaleDef","090","",""
"","","","","","html-slider-response","135","373327","0.0-131.0","r9aq21gysj","39","NaN","<div style=""width:500px;"">
                            <p style=""font-size:50px; font-weight:bold;""
                            >happy</p>
                            <div style=""width:240px; margin: auto;"">
                                <img src=""images/map13_plasma_scaleRev_orientDef_180.png"" style= ""width:200px""alt=""img"">
                            </div>
                        </div>","-85","","0","","","","images/map13_plasma_scaleRev_orientDef_180.png","happy","1","13","13","plasma","orientDef","scaleRev","180","",""
"","","","","","html-slider-response","136","378738","0.0-132.0","r9aq21gysj","39","NaN","<div style=""width:500px;"">
                            <p style=""font-size:50px; font-weight:bold;""
                            >happy</p>
                            <div style=""width:240px; margin: auto;"">
                                <img src=""images/map13_cividis_scaleDef_orientMir_270.png"" style= ""width:200px""alt=""img"">
                            </div>
                        </div>","-80","","0","","","","images/map13_cividis_scaleDef_orientMir_270.png","happy","1","13","13","cividis","orientMir","scaleDef","270","",""
"","","","","","html-slider-response","137","380521","0.0-133.0","r9aq21gysj","39","NaN","<div style=""width:500px;"">
                            <p style=""font-size:50px; font-weight:bold;""
                            >happy</p>
                            <div style=""width:240px; margin: auto;"">
                                <img src=""images/map23_Greens_scaleRev_orientDef_000.png"" style= ""width:200px""alt=""img"">
                            </div>
                        </div>","-78","","0","","","","images/map23_Greens_scaleRev_orientDef_000.png","happy","1","23","23","Greens","orientDef","scaleRev","000","",""
"","","","","","html-slider-response","138","381713","0.0-134.0","r9aq21gysj","39","NaN","<div style=""width:500px;"">
                            <p style=""font-size:50px; font-weight:bold;""
                            >happy</p>
                            <div style=""width:240px; margin: auto;"">
                                <img src=""images/map12_gist_earth_scaleDef_orientDef_270.png"" style= ""width:200px""alt=""img"">
                            </div>
                        </div>","-81","","0","","","","images/map12_gist_earth_scaleDef_orientDef_270.png","happy","1","12","12","gist","scaleDef","earth","orientDef","",""
"","","","","","html-slider-response","139","382794","0.0-135.0","r9aq21gysj","39","NaN","<div style=""width:500px;"">
                            <p style=""font-size:50px; font-weight:bold;""
                            >happy</p>
                            <div style=""width:240px; margin: auto;"">
                                <img src=""images/map23_Oranges_scaleRev_orientDef_180.png"" style= ""width:200px""alt=""img"">
                            </div>
                        </div>","-82","","0","","","","images/map23_Oranges_scaleRev_orientDef_180.png","happy","1","23","23","Oranges","orientDef","scaleRev","180","",""
"","","","","","html-slider-response","140","383868","0.0-136.0","r9aq21gysj","39","NaN","<div style=""width:500px;"">
                            <p style=""font-size:50px; font-weight:bold;""
                            >happy</p>
                            <div style=""width:240px; margin: auto;"">
                                <img src=""images/map13_inferno_scaleRev_orientMir_000.png"" style= ""width:200px""alt=""img"">
                            </div>
                        </div>","-105","","0","","","","images/map13_inferno_scaleRev_orientMir_000.png","happy","1","13","13","inferno","orientMir","scaleRev","000","",""
"","","","","","html-button-response","141","385115","0.0-137.0","r9aq21gysj","39","745","<p>You are doing great!<br></br> You are halway done with the current block. When you are ready to continue, click the 'Continue' button.</p>","0","","","","","","","","","","","","","","","",""
"","","","","","html-slider-response","142","386568","0.0-138.0","r9aq21gysj","39","NaN","<div style=""width:500px;"">
                            <p style=""font-size:50px; font-weight:bold;""
                            >happy</p>
                            <div style=""width:240px; margin: auto;"">
                                <img src=""images/map26_PuRd_scaleDef_orientDef_270.png"" style= ""width:200px""alt=""img"">
                            </div>
                        </div>","36","","0","","","","images/map26_PuRd_scaleDef_orientDef_270.png","happy","1","26","26","PuRd","orientDef","scaleDef","270","",""
"","","","","","html-slider-response","143","388163","0.0-139.0","r9aq21gysj","39","NaN","<div style=""width:500px;"">
                            <p style=""font-size:50px; font-weight:bold;""
                            >happy</p>
                            <div style=""width:240px; margin: auto;"">
                                <img src=""images/map26_YlOrRd_scaleRev_orientDef_000.png"" style= ""width:200px""alt=""img"">
                            </div>
                        </div>","-78","","0","","","","images/map26_YlOrRd_scaleRev_orientDef_000.png","happy","1","26","26","YlOrRd","orientDef","scaleRev","000","",""
"","","","","","html-slider-response","144","389718","0.0-140.0","r9aq21gysj","39","NaN","<div style=""width:500px;"">
                            <p style=""font-size:50px; font-weight:bold;""
                            >happy</p>
                            <div style=""width:240px; margin: auto;"">
                                <img src=""images/map07_RdBu_scaleRev_orientDef_000.png"" style= ""width:200px""alt=""img"">
                            </div>
                        </div>","-52","","0","","","","images/map07_RdBu_scaleRev_orientDef_000.png","happy","1","07","07","RdBu","orientDef","scaleRev","000","",""
"","","","","","html-slider-response","145","391321","0.0-141.0","r9aq21gysj","39","NaN","<div style=""width:500px;"">
                            <p style=""font-size:50px; font-weight:bold;""
                            >happy</p>
                            <div style=""width:240px; margin: auto;"">
                                <img src=""images/map13_magma_scaleRev_orientMir_180.png"" style= ""width:200px""alt=""img"">
                            </div>
                        </div>","-84","","0","","","","images/map13_magma_scaleRev_orientMir_180.png","happy","1","13","13","magma","orientMir","scaleRev","180","",""
"","","","","","html-slider-response","146","392900","0.0-142.0","r9aq21gysj","39","NaN","<div style=""width:500px;"">
                            <p style=""font-size:50px; font-weight:bold;""
                            >happy</p>
                            <div style=""width:240px; margin: auto;"">
                                <img src=""images/map12_managua_scaleRev_orientDef_000.png"" style= ""width:200px""alt=""img"">
                            </div>
                        </div>","46","","0","","","","images/map12_managua_scaleRev_orientDef_000.png","happy","1","12","12","managua","orientDef","scaleRev","000","",""
"","","","","","html-slider-response","147","394700","0.0-143.0","r9aq21gysj","39","NaN","<div style=""width:500px;"">
                            <p style=""font-size:50px; font-weight:bold;""
                            >happy</p>
                            <div style=""width:240px; margin: auto;"">
                                <img src=""images/map05_BrBG_scaleRev_orientDef_180.png"" style= ""width:200px""alt=""img"">
                            </div>
                        </div>","-120","","0","","","","images/map05_BrBG_scaleRev_orientDef_180.png","happy","1","05","05","BrBG","orientDef","scaleRev","180","",""
"","","","","","html-slider-response","148","396049","0.0-144.0","r9aq21gysj","39","NaN","<div style=""width:500px;"">
                            <p style=""font-size:50px; font-weight:bold;""
                            >happy</p>
                            <div style=""width:240px; margin: auto;"">
                                <img src=""images/map26_BuPu_scaleDef_orientMir_270.png"" style= ""width:200px""alt=""img"">
                            </div>
                        </div>","-79","","0","","","","images/map26_BuPu_scaleDef_orientMir_270.png","happy","1","26","26","BuPu","orientMir","scaleDef","270","",""
"","","","","","html-slider-response","149","397276","0.0-145.0","r9aq21gysj","39","NaN","<div style=""width:500px;"">
                            <p style=""font-size:50px; font-weight:bold;""
                            >happy</p>
                            <div style=""width:240px; margin: auto;"">
                                <img src=""images/map15_Blues_scaleDef_orientMir_090.png"" style= ""width:200px""alt=""img"">
                            </div>
                        </div>","-96","","0","","","","images/map15_Blues_scaleDef_orientMir_090.png","happy","1","15","15","Blues","orientMir","scaleDef","090","",""
"","","","","","html-slider-response","150","398434","0.0-146.0","r9aq21gysj","39","NaN","<div style=""width:500px;"">
                            <p style=""font-size:50px; font-weight:bold;""
                            >happy</p>
                            <div style=""width:240px; margin: auto;"">
                                <img src=""images/map10_berlin_scaleRev_orientMir_180.png"" style= ""width:200px""alt=""img"">
                            </div>
                        </div>","-92","","0","","","","images/map10_berlin_scaleRev_orientMir_180.png","happy","1","10","10","berlin","orientMir","scaleRev","180","",""
"","","","","","html-slider-response","151","399542","0.0-147.0","r9aq21gysj","39","NaN","<div style=""width:500px;"">
                            <p style=""font-size:50px; font-weight:bold;""
                            >happy</p>
                            <div style=""width:240px; margin: auto;"">
                                <img src=""images/map10_berlin_scaleDef_orientMir_090.png"" style= ""width:200px""alt=""img"">
                            </div>
                        </div>","-64","","0","","","","images/map10_berlin_scaleDef_orientMir_090.png","happy","1","10","10","berlin","orientMir","scaleDef","090","",""
"","","","","","html-slider-response","152","400733","0.0-148.0","r9aq21gysj","39","NaN","<div style=""width:500px;"">
                            <p style=""font-size:50px; font-weight:bold;""
                            >happy</p>
                            <div style=""width:240px; margin: auto;"">
                                <img src=""images/map02_BuGn_scaleRev_orientDef_180.png"" style= ""width:200px""alt=""img"">
                            </div>
                        </div>","-112","","0","","","","images/map02_BuGn_scaleRev_orientDef_180.png","happy","1","02","02","BuGn","orientDef","scaleRev","180","",""
"","","","","","html-slider-response","153","401660","0.0-149.0","r9aq21gysj","39","NaN","<div style=""width:500px;"">
                            <p style=""font-size:50px; font-weight:bold;""
                            >happy</p>
                            <div style=""width:240px; margin: auto;"">
                                <img src=""images/map07_RdYlBu_scaleRev_orientDef_180.png"" style= ""width:200px""alt=""img"">
                            </div>
                        </div>","-104","","0","","","","images/map07_RdYlBu_scaleRev_orientDef_180.png","happy","1","07","07","RdYlBu","orientDef","scaleRev","180","",""
"","","","","","html-slider-response","154","402518","0.0-150.0","r9aq21gysj","39","NaN","<div style=""width:500px;"">
                            <p style=""font-size:50px; font-weight:bold;""
                            >happy</p>
                            <div style=""width:240px; margin: auto;"">
                                <img src=""images/map10_bwr_scaleRev_orientDef_180.png"" style= ""width:200px""alt=""img"">
                            </div>
                        </div>","-124","","0","","","","images/map10_bwr_scaleRev_orientDef_180.png","happy","1","10","10","bwr","orientDef","scaleRev","180","",""
"","","","","","html-slider-response","155","403425","0.0-151.0","r9aq21gysj","39","NaN","<div style=""width:500px;"">
                            <p style=""font-size:50px; font-weight:bold;""
                            >happy</p>
                            <div style=""width:240px; margin: auto;"">
                                <img src=""images/map23_Reds_scaleRev_orientMir_000.png"" style= ""width:200px""alt=""img"">
                            </div>
                        </div>","-124","","0","","","","images/map23_Reds_scaleRev_orientMir_000.png","happy","1","23","23","Reds","orientMir","scaleRev","000","",""
"","","","","","html-slider-response","156","404064","0.0-152.0","r9aq21gysj","39","NaN","<div style=""width:500px;"">
                            <p style=""font-size:50px; font-weight:bold;""
                            >happy</p>
                            <div style=""width:240px; margin: auto;"">
                                <img src=""images/map15_Blues_scaleRev_orientMir_180.png"" style= ""width:200px""alt=""img"">
                            </div>
                        </div>","-124","","0","","","","images/map15_Blues_scaleRev_orientMir_180.png","happy","1","15","15","Blues","orientMir","scaleRev","180","",""
"","","","","","html-slider-response","157","404672","0.0-153.0","r9aq21gysj","39","NaN","<div style=""width:500px;"">
                            <p style=""font-size:50px; font-weight:bold;""
                            >happy</p>
                            <div style=""width:240px; margin: auto;"">
                                <img src=""images/map12_gist_earth_scaleRev_orientMir_000.png"" style= ""width:200px""alt=""img"">
                            </div>
