"success","timeout","failed_images","failed_audio","failed_video","trial_type","trial_index","time_elapsed","internal_node_id","subject_id","condition_num","rt","stimulus","response","question_order","slider_start","practiceTrial","practiceTrialNum","correct","image_path","concept","repetition","map_id","map_num","scale_name","orientation_code","mapping_code","rotation_code","ishihara_plate","correct_response"
"true","false","[]","[]","[]","preload","0","1278","0.0-0.0","s5q89ba7dw","3","","","","","","","","","","","","","","","","","","",""
"","","","","","html-button-response","1","2594","0.0-1.0","s5q89ba7dw","3","1312","Welcome to our experiment!<p>At the bottom of this screen, you will see a button that says ""Begin Experiment"".<br>Please only click that button when you are ready to complete the 30 minute experiment in one sitting.</p><p> Once you click that button, it will not be possible to restart the experiment.","0","","","","","","","","","","","","","","","",""
"true","","","","","fullscreen","2","7799","0.0-2.0","s5q89ba7dw","3","4188","","","","","","","","","","","","","","","","","",""
"","","","","","survey-multi-select","3","18217","0.0-3.0","s5q89ba7dw","3","10405","","{""Consent"":[""<strong>I consent</strong>""]}","[0]","","","","","","","","","","","","","","",""
"","","","","","html-button-response","4","21698","0.0-4.0","s5q89ba7dw","3","3477","Welcome! <p> This experiment involves two parts: demographic information, followed by the experimental task.<p> It will take about 30 minutes to complete both parts.","0","","","","","","","","","","","","","","","",""
"","","","","","survey-text","5","36458","0.0-5.0","s5q89ba7dw","3","14747","","{""Age"":""20"",""Gender"":""male"",""Race/ethnicity"":""white"",""Languages"":""english""}","","","","","","","","","","","","","","","",""
"","","","","","html-slider-response","6","95942","0.0-6.0","s5q89ba7dw","3","59477","<div style='text-align:left; font-size:20px; line-height:25px; width: 1000px;'>
                                During this experiment you will be asked to rate how much you associate maps with                    different concepts.<br> Below, you can see some examples of the maps you will be asked to rate. Above the maps
                    is the list of concepts.<br>You will be asked                    to rate how much you associate each map with each concept on a scale from 'not at all' to 'very much' like the
                    one below. <br><br>
                    Now, please look at the list of concepts and maps. For each concept, think about the map you associate 'very
                    much' with the concept.<br>                     When you see that map during the experiment, please rate it near the 'very much' endpoint of the
                    scale.<br>Now, please think about which map you associate 'not at all'                     with each concept. When you see that map during the experiment, please rate it near the 'not at all' endpoint
                    of the scale.<br>
                    Please use the full range of the scale. That is, if a map is somewhat associated with the concept, you would
                    click partway between the middle point and right side of the scale.                    You will be asked to rate each map for a given concept before moving on to the next concept.<br>Press the
                    'Continue' button for instructions on how to use the slider.                    <br>
                </div>

                <div style=""width: 500px; margin: 0 auto;"">
                    <!-- Centered text paragraphs -->
                    <div style=""text-align: center; width: 500px;"">
                        <p style=""font-size:25px; line-height:15px;"">
                            sad&nbsp;&nbsp;&nbsp;&nbsp;
                            disgust&nbsp;&nbsp;&nbsp;&nbsp;
                            angry&nbsp;&nbsp;&nbsp;&nbsp;
                            fearful&nbsp;&nbsp;&nbsp;&nbsp;
                            happy
                        </p>
                        <!-- <p style=""font-size:20px; line-height:15px;"">disgust</p>
                        <p style=""font-size:20px;line-height:15px;"">angry</p>
                        <p style=""font-size:20px;line-height:15px;"">fearful</p>
                        <p style=""font-size:20px;line-height:15px;"">happy</p> -->
                    </div>
            

                    <!-- Grid section -->
                   <div style=""display: flex; justify-content: center; padding-top: 15px;"">
                    <div style=""display: grid; grid-template-columns: repeat(10, 55px); grid-gap: 5px; width: auto;"">
                        <img src=""images/map02_plasma_scaleRev_orientMir_180.png"" alt=""map"" style=""width: 100%;""><img src=""images/map12_PuRd_scaleRev_orientDef_000.png"" alt=""map"" style=""width: 100%;""><img src=""images/map02_turbo_scaleRev_orientDef_180.png"" alt=""map"" style=""width: 100%;""><img src=""images/map02_inferno_scaleDef_orientMir_270.png"" alt=""map"" style=""width: 100%;""><img src=""images/map15_BrBG_scaleRev_orientMir_180.png"" alt=""map"" style=""width: 100%;""><img src=""images/map26_coolwarm_scaleDef_orientDef_270.png"" alt=""map"" style=""width: 100%;""><img src=""images/map12_PuBu_scaleDef_orientMir_270.png"" alt=""map"" style=""width: 100%;""><img src=""images/map05_magma_scaleRev_orientDef_180.png"" alt=""map"" style=""width: 100%;""><img src=""images/map13_BuGn_scaleRev_orientMir_180.png"" alt=""map"" style=""width: 100%;""><img src=""images/map10_YlOrRd_scaleDef_orientDef_270.png"" alt=""map"" style=""width: 100%;""><img src=""images/map23_RdYlBu_scaleRev_orientMir_180.png"" alt=""map"" style=""width: 100%;""><img src=""images/map23_RdGy_scaleDef_orientDef_090.png"" alt=""map"" style=""width: 100%;""><img src=""images/map26_Spectral_scaleRev_orientDef_180.png"" alt=""map"" style=""width: 100%;""><img src=""images/map27_vanimo_scaleDef_orientMir_090.png"" alt=""map"" style=""width: 100%;""><img src=""images/map10_Reds_scaleRev_orientDef_000.png"" alt=""map"" style=""width: 100%;""><img src=""images/map10_YlOrBr_scaleRev_orientDef_180.png"" alt=""map"" style=""width: 100%;""><img src=""images/map23_PuOr_scaleRev_orientDef_000.png"" alt=""map"" style=""width: 100%;""><img src=""images/map05_cividis_scaleDef_orientDef_270.png"" alt=""map"" style=""width: 100%;""><img src=""images/map07_Purples_scaleRev_orientDef_000.png"" alt=""map"" style=""width: 100%;""><img src=""images/map13_YlGn_scaleDef_orientMir_270.png"" alt=""map"" style=""width: 100%;""><img src=""images/map12_GnBu_scaleRev_orientMir_180.png"" alt=""map"" style=""width: 100%;""><img src=""images/map12_BuPu_scaleRev_orientMir_000.png"" alt=""map"" style=""width: 100%;""><img src=""images/map07_Blues_scaleRev_orientDef_180.png"" alt=""map"" style=""width: 100%;""><img src=""images/map07_Oranges_scaleRev_orientMir_180.png"" alt=""map"" style=""width: 100%;""><img src=""images/map10_OrRd_scaleRev_orientMir_180.png"" alt=""map"" style=""width: 100%;""><img src=""images/map27_managua_scaleDef_orientDef_270.png"" alt=""map"" style=""width: 100%;""><img src=""images/map26_RdYlGn_scaleRev_orientDef_000.png"" alt=""map"" style=""width: 100%;""><img src=""images/map26_bwr_scaleRev_orientMir_180.png"" alt=""map"" style=""width: 100%;""><img src=""images/map23_RdBu_scaleDef_orientDef_270.png"" alt=""map"" style=""width: 100%;""><img src=""images/map27_seismic_scaleRev_orientDef_000.png"" alt=""map"" style=""width: 100%;""><img src=""images/map13_PuBuGn_scaleRev_orientMir_000.png"" alt=""map"" style=""width: 100%;""><img src=""images/map02_viridis_scaleRev_orientMir_000.png"" alt=""map"" style=""width: 100%;""><img src=""images/map05_Greys_scaleDef_orientMir_090.png"" alt=""map"" style=""width: 100%;""><img src=""images/map13_YlGnBu_scaleRev_orientDef_180.png"" alt=""map"" style=""width: 100%;""><img src=""images/map15_PiYG_scaleRev_orientDef_180.png"" alt=""map"" style=""width: 100%;""><img src=""images/map27_gist_earth_scaleDef_orientMir_270.png"" alt=""map"" style=""width: 100%;""><img src=""images/map07_Greens_scaleRev_orientMir_000.png"" alt=""map"" style=""width: 100%;""><img src=""images/map15_PRGn_scaleRev_orientMir_000.png"" alt=""map"" style=""width: 100%;""><img src=""images/map27_berlin_scaleDef_orientDef_090.png"" alt=""map"" style=""width: 100%;""><img src=""images/map12_RdPu_scaleDef_orientDef_090.png"" alt=""map"" style=""width: 100%;"">
                    </div>
                </div>

                    <!-- Clear floats -->
                    <div style=""clear: both;""></div>
                </div>
                            ","108","","0","true","","","","","","","","","","","","",""
"","","","","","html-button-response","7","97935","0.0-7.0","s5q89ba7dw","3","1990","<div style=""width:800px;""><p style=""text-align:left"">To move the slider, click and drag your cursor to the location of the scale where you would like to make your rating and then let go. When you let go of the slider, your response will be recorded and the next trial will begin. <br>
                    We are interested in your initial impressions of each map for the given concept, so please go with your first intuition. <br>
                    Before you begin the experiment, there will be four training trials for you to practice using the scale. <br>
                     When you are ready to start the training trials, please click ""Continue"".</p><br></div>","0","","","","","","","","","","","","","","","",""
"","","","","","html-slider-response","8","100872","0.0-8.0-0.0","s5q89ba7dw","3","NaN","<div style=""width:500px;"">
                                    <p style=""font-size:25px;"">Please move the slider all the way to the <br> right endpoint of the scale</p>

                                    </div>
                                </div>","200","","0","true","0","true","","","","","","","","","","",""
"","","","","","html-button-response","9","102761","0.0-8.0-1.0","s5q89ba7dw","3","1375","<p align='center'><b>Good job!</b> Click on 'Continue' to proceed.</p>","0","","","","","","","","","","","","","","","",""
"","","","","","html-slider-response","10","104153","0.0-9.0-0.0","s5q89ba7dw","3","NaN","<div style=""width:500px;"">
                                    <p style=""font-size:25px;"">Please move the slider all the way to the <br> left endpoint of the scale</p>

                                    </div>
                                </div>","6","","0","true","1","false","","","","","","","","","","",""
"","","","","","html-button-response","11","105494","0.0-9.0-1.0","s5q89ba7dw","3","832","<p align='center'><b>Not quite!</b> The slider was not placed near the instructed located. Click on 'Continue' to try again. </p>","0","","","","","","","","","","","","","","","",""
"","","","","","html-slider-response","12","107026","0.0-9.1-0.1","s5q89ba7dw","3","NaN","<div style=""width:500px;"">
                                    <p style=""font-size:25px;"">Please move the slider all the way to the <br> left endpoint of the scale</p>

                                    </div>
                                </div>","-200","","0","true","1","true","","","","","","","","","","",""
"","","","","","html-button-response","13","108825","0.0-9.1-1.1","s5q89ba7dw","3","1293","<p align='center'><b>Good job!</b> Click on 'Continue' to proceed.</p>","0","","","","","","","","","","","","","","","",""
"","","","","","html-slider-response","14","115162","0.0-10.0-0.0","s5q89ba7dw","3","NaN","<div style=""width:500px;"">
                                    <p style=""font-size:25px;"">Please move the slider halfway between the center and right endpoint of the scale</p>

                                    </div>
                                </div>","102","","0","true","2","true","","","","","","","","","","",""
"","","","","","html-button-response","15","116672","0.0-10.0-1.0","s5q89ba7dw","3","1005","<p align='center'><b>Good job!</b> Click on 'Continue' to proceed.</p>","0","","","","","","","","","","","","","","","",""
"","","","","","html-slider-response","16","118862","0.0-11.0-0.0","s5q89ba7dw","3","NaN","<div style=""width:500px;"">
                                    <p style=""font-size:25px;"">Please move the slider halfway between the center and left endpoint of the scale</p>

                                    </div>
                                </div>","-105","","0","true","3","true","","","","","","","","","","",""
"","","","","","html-button-response","17","120210","0.0-11.0-1.0","s5q89ba7dw","3","834","<p align='center'><b>Good job!</b> Click on 'Continue' to proceed.</p>","0","","","","","","","","","","","","","","","",""
"","","","","","html-button-response","18","121899","0.0-12.0","s5q89ba7dw","3","1687","<p>Great job! You've completed the practice trials. Now you will begin the main task.</p>","0","","","","","","","","","","","","","","","",""
"","","","","","html-button-response","19","125399","0.0-13.0","s5q89ba7dw","3","3499","<p>In this block of trials, you will be asked to rate how much you associate each map with:</p > <p style = 'font-size:150%; font-weight: bold'>sad</p><br></br>","0","","","","","","","","","","","","","","","",""
"","","","","","html-slider-response","20","128292","0.0-14.0","s5q89ba7dw","3","NaN","<div style=""width:500px;"">
                            <p style=""font-size:50px; font-weight:bold;""
                            >sad</p>
                            <div style=""width:240px; margin: auto;"">
                                <img src=""images/map02_viridis_scaleDef_orientDef_270.png"" style= ""width:200px""alt=""img"">
                            </div>
                        </div>","43","","0","","","","images/map02_viridis_scaleDef_orientDef_270.png","sad","1","02","02","viridis","orientDef","scaleDef","270","",""
"","","","","","html-slider-response","21","132670","0.0-15.0","s5q89ba7dw","3","NaN","<div style=""width:500px;"">
                            <p style=""font-size:50px; font-weight:bold;""
                            >sad</p>
                            <div style=""width:240px; margin: auto;"">
                                <img src=""images/map05_inferno_scaleRev_orientDef_000.png"" style= ""width:200px""alt=""img"">
                            </div>
                        </div>","-94","","0","","","","images/map05_inferno_scaleRev_orientDef_000.png","sad","1","05","05","inferno","orientDef","scaleRev","000","",""
"","","","","","html-slider-response","22","136278","0.0-16.0","s5q89ba7dw","3","NaN","<div style=""width:500px;"">
                            <p style=""font-size:50px; font-weight:bold;""
                            >sad</p>
                            <div style=""width:240px; margin: auto;"">
                                <img src=""images/map07_Purples_scaleRev_orientDef_000.png"" style= ""width:200px""alt=""img"">
                            </div>
                        </div>","82","","0","","","","images/map07_Purples_scaleRev_orientDef_000.png","sad","1","07","07","Purples","orientDef","scaleRev","000","",""
"","","","","","html-slider-response","23","146218","0.0-17.0","s5q89ba7dw","3","NaN","<div style=""width:500px;"">
                            <p style=""font-size:50px; font-weight:bold;""
                            >sad</p>
                            <div style=""width:240px; margin: auto;"">
                                <img src=""images/map15_PiYG_scaleDef_orientDef_090.png"" style= ""width:200px""alt=""img"">
                            </div>
                        </div>","-50","","0","","","","images/map15_PiYG_scaleDef_orientDef_090.png","sad","1","15","15","PiYG","orientDef","scaleDef","090","",""
"","","","","","html-slider-response","24","149090","0.0-18.0","s5q89ba7dw","3","NaN","<div style=""width:500px;"">
                            <p style=""font-size:50px; font-weight:bold;""
                            >sad</p>
                            <div style=""width:240px; margin: auto;"">
                                <img src=""images/map10_PuRd_scaleDef_orientMir_270.png"" style= ""width:200px""alt=""img"">
                            </div>
                        </div>","-124","","0","","","","images/map10_PuRd_scaleDef_orientMir_270.png","sad","1","10","10","PuRd","orientMir","scaleDef","270","",""
"","","","","","html-slider-response","25","151850","0.0-19.0","s5q89ba7dw","3","NaN","<div style=""width:500px;"">
                            <p style=""font-size:50px; font-weight:bold;""
                            >sad</p>
                            <div style=""width:240px; margin: auto;"">
                                <img src=""images/map05_Greys_scaleRev_orientMir_180.png"" style= ""width:200px""alt=""img"">
                            </div>
                        </div>","-200","","0","","","","images/map05_Greys_scaleRev_orientMir_180.png","sad","1","05","05","Greys","orientMir","scaleRev","180","",""
"","","","","","html-slider-response","26","153805","0.0-20.0","s5q89ba7dw","3","NaN","<div style=""width:500px;"">
                            <p style=""font-size:50px; font-weight:bold;""
                            >sad</p>
                            <div style=""width:240px; margin: auto;"">
                                <img src=""images/map05_Greys_scaleDef_orientMir_090.png"" style= ""width:200px""alt=""img"">
                            </div>
                        </div>","-200","","0","","","","images/map05_Greys_scaleDef_orientMir_090.png","sad","1","05","05","Greys","orientMir","scaleDef","090","",""
"","","","","","html-slider-response","27","156966","0.0-21.0","s5q89ba7dw","3","NaN","<div style=""width:500px;"">
                            <p style=""font-size:50px; font-weight:bold;""
                            >sad</p>
                            <div style=""width:240px; margin: auto;"">
                                <img src=""images/map26_coolwarm_scaleDef_orientDef_270.png"" style= ""width:200px""alt=""img"">
                            </div>
                        </div>","37","","0","","","","images/map26_coolwarm_scaleDef_orientDef_270.png","sad","1","26","26","coolwarm","orientDef","scaleDef","270","",""
"","","","","","html-slider-response","28","159557","0.0-22.0","s5q89ba7dw","3","NaN","<div style=""width:500px;"">
                            <p style=""font-size:50px; font-weight:bold;""
                            >sad</p>
                            <div style=""width:240px; margin: auto;"">
                                <img src=""images/map10_YlOrBr_scaleRev_orientDef_180.png"" style= ""width:200px""alt=""img"">
                            </div>
                        </div>","-71","","0","","","","images/map10_YlOrBr_scaleRev_orientDef_180.png","sad","1","10","10","YlOrBr","orientDef","scaleRev","180","",""
"","","","","","html-slider-response","29","161760","0.0-23.0","s5q89ba7dw","3","NaN","<div style=""width:500px;"">
                            <p style=""font-size:50px; font-weight:bold;""
                            >sad</p>
                            <div style=""width:240px; margin: auto;"">
                                <img src=""images/map13_PuBuGn_scaleDef_orientDef_270.png"" style= ""width:200px""alt=""img"">
                            </div>
                        </div>","22","","0","","","","images/map13_PuBuGn_scaleDef_orientDef_270.png","sad","1","13","13","PuBuGn","orientDef","scaleDef","270","",""
"","","","","","html-slider-response","30","166792","0.0-24.0","s5q89ba7dw","3","NaN","<div style=""width:500px;"">
                            <p style=""font-size:50px; font-weight:bold;""
                            >sad</p>
                            <div style=""width:240px; margin: auto;"">
                                <img src=""images/map23_PuOr_scaleRev_orientDef_000.png"" style= ""width:200px""alt=""img"">
                            </div>
                        </div>","155","","0","","","","images/map23_PuOr_scaleRev_orientDef_000.png","sad","1","23","23","PuOr","orientDef","scaleRev","000","",""
"","","","","","html-slider-response","31","172766","0.0-25.0","s5q89ba7dw","3","NaN","<div style=""width:500px;"">
                            <p style=""font-size:50px; font-weight:bold;""
                            >sad</p>
                            <div style=""width:240px; margin: auto;"">
                                <img src=""images/map10_YlOrRd_scaleDef_orientDef_270.png"" style= ""width:200px""alt=""img"">
                            </div>
                        </div>","-17","","0","","","","images/map10_YlOrRd_scaleDef_orientDef_270.png","sad","1","10","10","YlOrRd","orientDef","scaleDef","270","",""
"","","","","","html-slider-response","32","175126","0.0-26.0","s5q89ba7dw","3","NaN","<div style=""width:500px;"">
                            <p style=""font-size:50px; font-weight:bold;""
                            >sad</p>
                            <div style=""width:240px; margin: auto;"">
                                <img src=""images/map12_GnBu_scaleDef_orientMir_090.png"" style= ""width:200px""alt=""img"">
                            </div>
                        </div>","46","","0","","","","images/map12_GnBu_scaleDef_orientMir_090.png","sad","1","12","12","GnBu","orientMir","scaleDef","090","",""
"","","","","","html-slider-response","33","178950","0.0-27.0","s5q89ba7dw","3","NaN","<div style=""width:500px;"">
                            <p style=""font-size:50px; font-weight:bold;""
                            >sad</p>
                            <div style=""width:240px; margin: auto;"">
                                <img src=""images/map15_PRGn_scaleDef_orientDef_270.png"" style= ""width:200px""alt=""img"">
                            </div>
                        </div>","52","","0","","","","images/map15_PRGn_scaleDef_orientDef_270.png","sad","1","15","15","PRGn","orientDef","scaleDef","270","",""
"","","","","","html-slider-response","34","186107","0.0-28.0","s5q89ba7dw","3","NaN","<div style=""width:500px;"">
                            <p style=""font-size:50px; font-weight:bold;""
                            >sad</p>
                            <div style=""width:240px; margin: auto;"">
                                <img src=""images/map10_OrRd_scaleDef_orientMir_090.png"" style= ""width:200px""alt=""img"">
                            </div>
                        </div>","-96","","0","","","","images/map10_OrRd_scaleDef_orientMir_090.png","sad","1","10","10","OrRd","orientMir","scaleDef","090","",""
"","","","","","html-slider-response","35","190858","0.0-29.0","s5q89ba7dw","3","NaN","<div style=""width:500px;"">
                            <p style=""font-size:50px; font-weight:bold;""
                            >sad</p>
                            <div style=""width:240px; margin: auto;"">
                                <img src=""images/map27_managua_scaleDef_orientDef_270.png"" style= ""width:200px""alt=""img"">
                            </div>
                        </div>","-144","","0","","","","images/map27_managua_scaleDef_orientDef_270.png","sad","1","27","27","managua","orientDef","scaleDef","270","",""
"","","","","","html-slider-response","36","193634","0.0-30.0","s5q89ba7dw","3","NaN","<div style=""width:500px;"">
                            <p style=""font-size:50px; font-weight:bold;""
                            >sad</p>
                            <div style=""width:240px; margin: auto;"">
                                <img src=""images/map07_Greens_scaleDef_orientDef_270.png"" style= ""width:200px""alt=""img"">
                            </div>
                        </div>","-72","","0","","","","images/map07_Greens_scaleDef_orientDef_270.png","sad","1","07","07","Greens","orientDef","scaleDef","270","",""
"","","","","","html-slider-response","37","197006","0.0-31.0","s5q89ba7dw","3","NaN","<div style=""width:500px;"">
                            <p style=""font-size:50px; font-weight:bold;""
                            >sad</p>
                            <div style=""width:240px; margin: auto;"">
                                <img src=""images/map13_YlGnBu_scaleDef_orientDef_090.png"" style= ""width:200px""alt=""img"">
                            </div>
                        </div>","1","","0","","","","images/map13_YlGnBu_scaleDef_orientDef_090.png","sad","1","13","13","YlGnBu","orientDef","scaleDef","090","",""
"","","","","","html-slider-response","38","199023","0.0-32.0","s5q89ba7dw","3","NaN","<div style=""width:500px;"">
                            <p style=""font-size:50px; font-weight:bold;""
                            >sad</p>
                            <div style=""width:240px; margin: auto;"">
                                <img src=""images/map23_RdBu_scaleDef_orientDef_270.png"" style= ""width:200px""alt=""img"">
                            </div>
                        </div>","-125","","0","","","","images/map23_RdBu_scaleDef_orientDef_270.png","sad","1","23","23","RdBu","orientDef","scaleDef","270","",""
"","","","","","html-slider-response","39","200689","0.0-33.0","s5q89ba7dw","3","NaN","<div style=""width:500px;"">
                            <p style=""font-size:50px; font-weight:bold;""
                            >sad</p>
                            <div style=""width:240px; margin: auto;"">
                                <img src=""images/map23_RdBu_scaleRev_orientMir_000.png"" style= ""width:200px""alt=""img"">
                            </div>
                        </div>","-98","","0","","","","images/map23_RdBu_scaleRev_orientMir_000.png","sad","1","23","23","RdBu","orientMir","scaleRev","000","",""
"","","","","","html-slider-response","40","209784","0.0-34.0","s5q89ba7dw","3","NaN","<div style=""width:500px;"">
                            <p style=""font-size:50px; font-weight:bold;""
                            >sad</p>
                            <div style=""width:240px; margin: auto;"">
                                <img src=""images/map07_Reds_scaleDef_orientMir_270.png"" style= ""width:200px""alt=""img"">
                            </div>
                        </div>","-100","","0","","","","images/map07_Reds_scaleDef_orientMir_270.png","sad","1","07","07","Reds","orientMir","scaleDef","270","",""
"","","","","","html-slider-response","41","214172","0.0-35.0","s5q89ba7dw","3","NaN","<div style=""width:500px;"">
                            <p style=""font-size:50px; font-weight:bold;""
                            >sad</p>
                            <div style=""width:240px; margin: auto;"">
                                <img src=""images/map12_PuRd_scaleRev_orientDef_000.png"" style= ""width:200px""alt=""img"">
                            </div>
                        </div>","-146","","0","","","","images/map12_PuRd_scaleRev_orientDef_000.png","sad","1","12","12","PuRd","orientDef","scaleRev","000","",""
"","","","","","html-slider-response","42","216660","0.0-36.0","s5q89ba7dw","3","NaN","<div style=""width:500px;"">
                            <p style=""font-size:50px; font-weight:bold;""
                            >sad</p>
                            <div style=""width:240px; margin: auto;"">
                                <img src=""images/map27_gist_earth_scaleDef_orientMir_270.png"" style= ""width:200px""alt=""img"">
                            </div>
                        </div>","-48","","0","","","","images/map27_gist_earth_scaleDef_orientMir_270.png","sad","1","27","27","gist","scaleDef","earth","orientMir","",""
"","","","","","html-slider-response","43","225846","0.0-37.0","s5q89ba7dw","3","NaN","<div style=""width:500px;"">
                            <p style=""font-size:50px; font-weight:bold;""
                            >sad</p>
                            <div style=""width:240px; margin: auto;"">
                                <img src=""images/map13_YlGnBu_scaleRev_orientDef_180.png"" style= ""width:200px""alt=""img"">
                            </div>
                        </div>","89","","0","","","","images/map13_YlGnBu_scaleRev_orientDef_180.png","sad","1","13","13","YlGnBu","orientDef","scaleRev","180","",""
"","","","","","html-slider-response","44","227671","0.0-38.0","s5q89ba7dw","3","NaN","<div style=""width:500px;"">
                            <p style=""font-size:50px; font-weight:bold;""
                            >sad</p>
                            <div style=""width:240px; margin: auto;"">
                                <img src=""images/map13_PuBuGn_scaleRev_orientMir_000.png"" style= ""width:200px""alt=""img"">
                            </div>
                        </div>","32","","0","","","","images/map13_PuBuGn_scaleRev_orientMir_000.png","sad","1","13","13","PuBuGn","orientMir","scaleRev","000","",""
"","","","","","html-slider-response","45","229401","0.0-39.0","s5q89ba7dw","3","NaN","<div style=""width:500px;"">
                            <p style=""font-size:50px; font-weight:bold;""
                            >sad</p>
                            <div style=""width:240px; margin: auto;"">
                                <img src=""images/map15_PRGn_scaleRev_orientMir_000.png"" style= ""width:200px""alt=""img"">
                            </div>
                        </div>","-85","","0","","","","images/map15_PRGn_scaleRev_orientMir_000.png","sad","1","15","15","PRGn","orientMir","scaleRev","000","",""
"","","","","","html-slider-response","46","232440","0.0-40.0","s5q89ba7dw","3","NaN","<div style=""width:500px;"">
                            <p style=""font-size:50px; font-weight:bold;""
                            >sad</p>
                            <div style=""width:240px; margin: auto;"">
                                <img src=""images/map26_coolwarm_scaleRev_orientMir_000.png"" style= ""width:200px""alt=""img"">
                            </div>
                        </div>","-150","","0","","","","images/map26_coolwarm_scaleRev_orientMir_000.png","sad","1","26","26","coolwarm","orientMir","scaleRev","000","",""
"","","","","","html-slider-response","47","236721","0.0-41.0","s5q89ba7dw","3","NaN","<div style=""width:500px;"">
                            <p style=""font-size:50px; font-weight:bold;""
                            >sad</p>
                            <div style=""width:240px; margin: auto;"">
                                <img src=""images/map13_BuGn_scaleRev_orientMir_180.png"" style= ""width:200px""alt=""img"">
                            </div>
                        </div>","-52","","0","","","","images/map13_BuGn_scaleRev_orientMir_180.png","sad","1","13","13","BuGn","orientMir","scaleRev","180","",""
"","","","","","html-slider-response","48","239635","0.0-42.0","s5q89ba7dw","3","NaN","<div style=""width:500px;"">
                            <p style=""font-size:50px; font-weight:bold;""
                            >sad</p>
                            <div style=""width:240px; margin: auto;"">
                                <img src=""images/map23_RdYlBu_scaleDef_orientMir_090.png"" style= ""width:200px""alt=""img"">
                            </div>
                        </div>","-45","","0","","","","images/map23_RdYlBu_scaleDef_orientMir_090.png","sad","1","23","23","RdYlBu","orientMir","scaleDef","090","",""
"","","","","","html-slider-response","49","241854","0.0-43.0","s5q89ba7dw","3","NaN","<div style=""width:500px;"">
                            <p style=""font-size:50px; font-weight:bold;""
                            >sad</p>
                            <div style=""width:240px; margin: auto;"">
                                <img src=""images/map05_magma_scaleDef_orientDef_090.png"" style= ""width:200px""alt=""img"">
                            </div>
                        </div>","23","","0","","","","images/map05_magma_scaleDef_orientDef_090.png","sad","1","05","05","magma","orientDef","scaleDef","090","",""
"","","","","","html-slider-response","50","244230","0.0-44.0","s5q89ba7dw","3","NaN","<div style=""width:500px;"">
                            <p style=""font-size:50px; font-weight:bold;""
                            >sad</p>
                            <div style=""width:240px; margin: auto;"">
                                <img src=""images/map12_RdPu_scaleRev_orientDef_180.png"" style= ""width:200px""alt=""img"">
                            </div>
                        </div>","36","","0","","","","images/map12_RdPu_scaleRev_orientDef_180.png","sad","1","12","12","RdPu","orientDef","scaleRev","180","",""
"","","","","","html-slider-response","51","245865","0.0-45.0","s5q89ba7dw","3","NaN","<div style=""width:500px;"">
                            <p style=""font-size:50px; font-weight:bold;""
                            >sad</p>
                            <div style=""width:240px; margin: auto;"">
                                <img src=""images/map10_Reds_scaleRev_orientDef_000.png"" style= ""width:200px""alt=""img"">
                            </div>
                        </div>","-22","","0","","","","images/map10_Reds_scaleRev_orientDef_000.png","sad","1","10","10","Reds","orientDef","scaleRev","000","",""
"","","","","","html-slider-response","52","248933","0.0-46.0","s5q89ba7dw","3","NaN","<div style=""width:500px;"">
                            <p style=""font-size:50px; font-weight:bold;""
                            >sad</p>
                            <div style=""width:240px; margin: auto;"">
                                <img src=""images/map27_vanimo_scaleRev_orientMir_180.png"" style= ""width:200px""alt=""img"">
                            </div>
                        </div>","141","","0","","","","images/map27_vanimo_scaleRev_orientMir_180.png","sad","1","27","27","vanimo","orientMir","scaleRev","180","",""
"","","","","","html-slider-response","53","250887","0.0-47.0","s5q89ba7dw","3","NaN","<div style=""width:500px;"">
                            <p style=""font-size:50px; font-weight:bold;""
                            >sad</p>
                            <div style=""width:240px; margin: auto;"">
                                <img src=""images/map27_berlin_scaleRev_orientDef_180.png"" style= ""width:200px""alt=""img"">
                            </div>
                        </div>","155","","0","","","","images/map27_berlin_scaleRev_orientDef_180.png","sad","1","27","27","berlin","orientDef","scaleRev","180","",""
"","","","","","html-slider-response","54","252725","0.0-48.0","s5q89ba7dw","3","NaN","<div style=""width:500px;"">
                            <p style=""font-size:50px; font-weight:bold;""
                            >sad</p>
                            <div style=""width:240px; margin: auto;"">
                                <img src=""images/map26_bwr_scaleDef_orientMir_090.png"" style= ""width:200px""alt=""img"">
                            </div>
                        </div>","-70","","0","","","","images/map26_bwr_scaleDef_orientMir_090.png","sad","1","26","26","bwr","orientMir","scaleDef","090","",""
"","","","","","html-slider-response","55","255211","0.0-49.0","s5q89ba7dw","3","NaN","<div style=""width:500px;"">
                            <p style=""font-size:50px; font-weight:bold;""
                            >sad</p>
                            <div style=""width:240px; margin: auto;"">
                                <img src=""images/map02_plasma_scaleDef_orientMir_090.png"" style= ""width:200px""alt=""img"">
                            </div>
                        </div>","-200","","0","","","","images/map02_plasma_scaleDef_orientMir_090.png","sad","1","02","02","plasma","orientMir","scaleDef","090","",""
"","","","","","html-slider-response","56","257763","0.0-50.0","s5q89ba7dw","3","NaN","<div style=""width:500px;"">
                            <p style=""font-size:50px; font-weight:bold;""
                            >sad</p>
                            <div style=""width:240px; margin: auto;"">
                                <img src=""images/map02_gist_earth_scaleRev_orientDef_000.png"" style= ""width:200px""alt=""img"">
                            </div>
                        </div>","-30","","0","","","","images/map02_gist_earth_scaleRev_orientDef_000.png","sad","1","02","02","gist","scaleRev","earth","orientDef","",""
"","","","","","html-slider-response","57","260694","0.0-51.0","s5q89ba7dw","3","NaN","<div style=""width:500px;"">
                            <p style=""font-size:50px; font-weight:bold;""
                            >sad</p>
                            <div style=""width:240px; margin: auto;"">
                                <img src=""images/map02_turbo_scaleDef_orientDef_090.png"" style= ""width:200px""alt=""img"">
                            </div>
                        </div>","20","","0","","","","images/map02_turbo_scaleDef_orientDef_090.png","sad","1","02","02","turbo","orientDef","scaleDef","090","",""
"","","","","","html-slider-response","58","270547","0.0-52.0","s5q89ba7dw","3","NaN","<div style=""width:500px;"">
                            <p style=""font-size:50px; font-weight:bold;""
                            >sad</p>
                            <div style=""width:240px; margin: auto;"">
                                <img src=""images/map02_inferno_scaleDef_orientMir_270.png"" style= ""width:200px""alt=""img"">
                            </div>
                        </div>","-65","","0","","","","images/map02_inferno_scaleDef_orientMir_270.png","sad","1","02","02","inferno","orientMir","scaleDef","270","",""
"","","","","","html-slider-response","59","272855","0.0-53.0","s5q89ba7dw","3","NaN","<div style=""width:500px;"">
                            <p style=""font-size:50px; font-weight:bold;""
                            >sad</p>
                            <div style=""width:240px; margin: auto;"">
                                <img src=""images/map26_RdYlGn_scaleRev_orientDef_000.png"" style= ""width:200px""alt=""img"">
                            </div>
                        </div>","-117","","0","","","","images/map26_RdYlGn_scaleRev_orientDef_000.png","sad","1","26","26","RdYlGn","orientDef","scaleRev","000","",""
"","","","","","html-button-response","60","276756","0.0-54.0","s5q89ba7dw","3","3393","<p>You are doing great!<br></br> You are halway done with the current block. When you are ready to continue, click the 'Continue' button.</p>","0","","","","","","","","","","","","","","","",""
"","","","","","html-slider-response","61","279691","0.0-55.0","s5q89ba7dw","3","NaN","<div style=""width:500px;"">
                            <p style=""font-size:50px; font-weight:bold;""
                            >sad</p>
                            <div style=""width:240px; margin: auto;"">
                                <img src=""images/map23_RdYlBu_scaleRev_orientMir_180.png"" style= ""width:200px""alt=""img"">
                            </div>
                        </div>","-72","","0","","","","images/map23_RdYlBu_scaleRev_orientMir_180.png","sad","1","23","23","RdYlBu","orientMir","scaleRev","180","",""
"","","","","","html-slider-response","62","282413","0.0-56.0","s5q89ba7dw","3","NaN","<div style=""width:500px;"">
                            <p style=""font-size:50px; font-weight:bold;""
                            >sad</p>
                            <div style=""width:240px; margin: auto;"">
                                <img src=""images/map27_managua_scaleRev_orientMir_000.png"" style= ""width:200px""alt=""img"">
                            </div>
                        </div>","-125","","0","","","","images/map27_managua_scaleRev_orientMir_000.png","sad","1","27","27","managua","orientMir","scaleRev","000","",""
"","","","","","html-slider-response","63","284223","0.0-57.0","s5q89ba7dw","3","NaN","<div style=""width:500px;"">
                            <p style=""font-size:50px; font-weight:bold;""
                            >sad</p>
                            <div style=""width:240px; margin: auto;"">
                                <img src=""images/map26_bwr_scaleRev_orientMir_180.png"" style= ""width:200px""alt=""img"">
                            </div>
                        </div>","62","","0","","","","images/map26_bwr_scaleRev_orientMir_180.png","sad","1","26","26","bwr","orientMir","scaleRev","180","",""
"","","","","","html-slider-response","64","286239","0.0-58.0","s5q89ba7dw","3","NaN","<div style=""width:500px;"">
                            <p style=""font-size:50px; font-weight:bold;""
                            >sad</p>
                            <div style=""width:240px; margin: auto;"">
                                <img src=""images/map15_PuOr_scaleDef_orientMir_270.png"" style= ""width:200px""alt=""img"">
                            </div>
                        </div>","41","","0","","","","images/map15_PuOr_scaleDef_orientMir_270.png","sad","1","15","15","PuOr","orientMir","scaleDef","270","",""
"","","","","","html-slider-response","65","288217","0.0-59.0","s5q89ba7dw","3","NaN","<div style=""width:500px;"">
                            <p style=""font-size:50px; font-weight:bold;""
                            >sad</p>
                            <div style=""width:240px; margin: auto;"">
                                <img src=""images/map05_magma_scaleRev_orientDef_180.png"" style= ""width:200px""alt=""img"">
                            </div>
                        </div>","-195","","0","","","","images/map05_magma_scaleRev_orientDef_180.png","sad","1","05","05","magma","orientDef","scaleRev","180","",""
"","","","","","html-slider-response","66","291085","0.0-60.0","s5q89ba7dw","3","NaN","<div style=""width:500px;"">
                            <p style=""font-size:50px; font-weight:bold;""
                            >sad</p>
                            <div style=""width:240px; margin: auto;"">
                                <img src=""images/map07_Blues_scaleDef_orientDef_090.png"" style= ""width:200px""alt=""img"">
                            </div>
                        </div>","1","","0","","","","images/map07_Blues_scaleDef_orientDef_090.png","sad","1","07","07","Blues","orientDef","scaleDef","090","",""
"","","","","","html-slider-response","67","293214","0.0-61.0","s5q89ba7dw","3","NaN","<div style=""width:500px;"">
                            <p style=""font-size:50px; font-weight:bold;""
                            >sad</p>
                            <div style=""width:240px; margin: auto;"">
                                <img src=""images/map07_Oranges_scaleDef_orientMir_090.png"" style= ""width:200px""alt=""img"">
                            </div>
                        </div>","-59","","0","","","","images/map07_Oranges_scaleDef_orientMir_090.png","sad","1","07","07","Oranges","orientMir","scaleDef","090","",""
"","","","","","html-slider-response","68","295601","0.0-62.0","s5q89ba7dw","3","NaN","<div style=""width:500px;"">
                            <p style=""font-size:50px; font-weight:bold;""
                            >sad</p>
                            <div style=""width:240px; margin: auto;"">
                                <img src=""images/map05_Purples_scaleDef_orientMir_270.png"" style= ""width:200px""alt=""img"">
                            </div>
                        </div>","-131","","0","","","","images/map05_Purples_scaleDef_orientMir_270.png","sad","1","05","05","Purples","orientMir","scaleDef","270","",""
"","","","","","html-slider-response","69","299015","0.0-63.0","s5q89ba7dw","3","NaN","<div style=""width:500px;"">
                            <p style=""font-size:50px; font-weight:bold;""
                            >sad</p>
                            <div style=""width:240px; margin: auto;"">
                                <img src=""images/map23_RdYlGn_scaleDef_orientMir_270.png"" style= ""width:200px""alt=""img"">
                            </div>
                        </div>","37","","0","","","","images/map23_RdYlGn_scaleDef_orientMir_270.png","sad","1","23","23","RdYlGn","orientMir","scaleDef","270","",""
"","","","","","html-slider-response","70","302044","0.0-64.0","s5q89ba7dw","3","NaN","<div style=""width:500px;"">
                            <p style=""font-size:50px; font-weight:bold;""
                            >sad</p>
                            <div style=""width:240px; margin: auto;"">
                                <img src=""images/map27_seismic_scaleRev_orientDef_000.png"" style= ""width:200px""alt=""img"">
                            </div>
                        </div>","-37","","0","","","","images/map27_seismic_scaleRev_orientDef_000.png","sad","1","27","27","seismic","orientDef","scaleRev","000","",""
"","","","","","html-slider-response","71","306535","0.0-65.0","s5q89ba7dw","3","NaN","<div style=""width:500px;"">
                            <p style=""font-size:50px; font-weight:bold;""
                            >sad</p>
                            <div style=""width:240px; margin: auto;"">
                                <img src=""images/map12_BuPu_scaleRev_orientMir_000.png"" style= ""width:200px""alt=""img"">
                            </div>
                        </div>","58","","0","","","","images/map12_BuPu_scaleRev_orientMir_000.png","sad","1","12","12","BuPu","orientMir","scaleRev","000","",""
"","","","","","html-slider-response","72","308913","0.0-66.0","s5q89ba7dw","3","NaN","<div style=""width:500px;"">
                            <p style=""font-size:50px; font-weight:bold;""
                            >sad</p>
                            <div style=""width:240px; margin: auto;"">
                                <img src=""images/map10_YlOrRd_scaleRev_orientMir_000.png"" style= ""width:200px""alt=""img"">
                            </div>
                        </div>","-47","","0","","","","images/map10_YlOrRd_scaleRev_orientMir_000.png","sad","1","10","10","YlOrRd","orientMir","scaleRev","000","",""
"","","","","","html-slider-response","73","310518","0.0-67.0","s5q89ba7dw","3","NaN","<div style=""width:500px;"">
                            <p style=""font-size:50px; font-weight:bold;""
                            >sad</p>
                            <div style=""width:240px; margin: auto;"">
                                <img src=""images/map23_RdGy_scaleRev_orientDef_180.png"" style= ""width:200px""alt=""img"">
                            </div>
                        </div>","-48","","0","","","","images/map23_RdGy_scaleRev_orientDef_180.png","sad","1","23","23","RdGy","orientDef","scaleRev","180","",""
"","","","","","html-slider-response","74","312977","0.0-68.0","s5q89ba7dw","3","NaN","<div style=""width:500px;"">
                            <p style=""font-size:50px; font-weight:bold;""
                            >sad</p>
                            <div style=""width:240px; margin: auto;"">
                                <img src=""images/map15_PiYG_scaleRev_orientDef_180.png"" style= ""width:200px""alt=""img"">
                            </div>
                        </div>","72","","0","","","","images/map15_PiYG_scaleRev_orientDef_180.png","sad","1","15","15","PiYG","orientDef","scaleRev","180","",""
"","","","","","html-slider-response","75","315601","0.0-69.0","s5q89ba7dw","3","NaN","<div style=""width:500px;"">
                            <p style=""font-size:50px; font-weight:bold;""
                            >sad</p>
                            <div style=""width:240px; margin: auto;"">
                                <img src=""images/map07_Greens_scaleRev_orientMir_000.png"" style= ""width:200px""alt=""img"">
                            </div>
                        </div>","27","","0","","","","images/map07_Greens_scaleRev_orientMir_000.png","sad","1","07","07","Greens","orientMir","scaleRev","000","",""
"","","","","","html-slider-response","76","331529","0.0-70.0","s5q89ba7dw","3","NaN","<div style=""width:500px;"">
                            <p style=""font-size:50px; font-weight:bold;""
                            >sad</p>
                            <div style=""width:240px; margin: auto;"">
                                <img src=""images/map15_BrBG_scaleDef_orientMir_090.png"" style= ""width:200px""alt=""img"">
                            </div>
                        </div>","-38","","0","","","","images/map15_BrBG_scaleDef_orientMir_090.png","sad","1","15","15","BrBG","orientMir","scaleDef","090","",""
"","","","","","html-slider-response","77","333769","0.0-71.0","s5q89ba7dw","3","NaN","<div style=""width:500px;"">
                            <p style=""font-size:50px; font-weight:bold;""
                            >sad</p>
                            <div style=""width:240px; margin: auto;"">
                                <img src=""images/map27_vanimo_scaleDef_orientMir_090.png"" style= ""width:200px""alt=""img"">
                            </div>
                        </div>","99","","0","","","","images/map27_vanimo_scaleDef_orientMir_090.png","sad","1","27","27","vanimo","orientMir","scaleDef","090","",""
"","","","","","html-slider-response","78","336874","0.0-72.0","s5q89ba7dw","3","NaN","<div style=""width:500px;"">
                            <p style=""font-size:50px; font-weight:bold;""
                            >sad</p>
                            <div style=""width:240px; margin: auto;"">
                                <img src=""images/map13_YlGn_scaleDef_orientMir_270.png"" style= ""width:200px""alt=""img"">
                            </div>
                        </div>","-111","","0","","","","images/map13_YlGn_scaleDef_orientMir_270.png","sad","1","13","13","YlGn","orientMir","scaleDef","270","",""
"","","","","","html-slider-response","79","338882","0.0-73.0","s5q89ba7dw","3","NaN","<div style=""width:500px;"">
                            <p style=""font-size:50px; font-weight:bold;""
                            >sad</p>
                            <div style=""width:240px; margin: auto;"">
                                <img src=""images/map07_Blues_scaleRev_orientDef_180.png"" style= ""width:200px""alt=""img"">
                            </div>
                        </div>","-14","","0","","","","images/map07_Blues_scaleRev_orientDef_180.png","sad","1","07","07","Blues","orientDef","scaleRev","180","",""
"","","","","","html-slider-response","80","340417","0.0-74.0","s5q89ba7dw","3","NaN","<div style=""width:500px;"">
                            <p style=""font-size:50px; font-weight:bold;""
                            >sad</p>
                            <div style=""width:240px; margin: auto;"">
                                <img src=""images/map10_OrRd_scaleRev_orientMir_180.png"" style= ""width:200px""alt=""img"">
                            </div>
                        </div>","-46","","0","","","","images/map10_OrRd_scaleRev_orientMir_180.png","sad","1","10","10","OrRd","orientMir","scaleRev","180","",""
"","","","","","html-slider-response","81","342993","0.0-75.0","s5q89ba7dw","3","NaN","<div style=""width:500px;"">
                            <p style=""font-size:50px; font-weight:bold;""
                            >sad</p>
                            <div style=""width:240px; margin: auto;"">
                                <img src=""images/map15_YlGn_scaleRev_orientDef_000.png"" style= ""width:200px""alt=""img"">
                            </div>
                        </div>","-101","","0","","","","images/map15_YlGn_scaleRev_orientDef_000.png","sad","1","15","15","YlGn","orientDef","scaleRev","000","",""
"","","","","","html-slider-response","82","345965","0.0-76.0","s5q89ba7dw","3","NaN","<div style=""width:500px;"">
                            <p style=""font-size:50px; font-weight:bold;""
                            >sad</p>
                            <div style=""width:240px; margin: auto;"">
                                <img src=""images/map05_cividis_scaleRev_orientMir_000.png"" style= ""width:200px""alt=""img"">
                            </div>
                        </div>","67","","0","","","","images/map05_cividis_scaleRev_orientMir_000.png","sad","1","05","05","cividis","orientMir","scaleRev","000","",""
"","","","","","html-slider-response","83","348706","0.0-77.0","s5q89ba7dw","3","NaN","<div style=""width:500px;"">
                            <p style=""font-size:50px; font-weight:bold;""
                            >sad</p>
                            <div style=""width:240px; margin: auto;"">
                                <img src=""images/map26_seismic_scaleDef_orientMir_270.png"" style= ""width:200px""alt=""img"">
                            </div>
                        </div>","21","","0","","","","images/map26_seismic_scaleDef_orientMir_270.png","sad","1","26","26","seismic","orientMir","scaleDef","270","",""
"","","","","","html-slider-response","84","351265","0.0-78.0","s5q89ba7dw","3","NaN","<div style=""width:500px;"">
                            <p style=""font-size:50px; font-weight:bold;""
                            >sad</p>
                            <div style=""width:240px; margin: auto;"">
                                <img src=""images/map23_RdGy_scaleDef_orientDef_090.png"" style= ""width:200px""alt=""img"">
                            </div>
                        </div>","21","","0","","","","images/map23_RdGy_scaleDef_orientDef_090.png","sad","1","23","23","RdGy","orientDef","scaleDef","090","",""
"","","","","","html-slider-response","85","354106","0.0-79.0","s5q89ba7dw","3","NaN","<div style=""width:500px;"">
                            <p style=""font-size:50px; font-weight:bold;""
                            >sad</p>
                            <div style=""width:240px; margin: auto;"">
                                <img src=""images/map26_Spectral_scaleRev_orientDef_180.png"" style= ""width:200px""alt=""img"">
                            </div>
                        </div>","26","","0","","","","images/map26_Spectral_scaleRev_orientDef_180.png","sad","1","26","26","Spectral","orientDef","scaleRev","180","",""
"","","","","","html-slider-response","86","356949","0.0-80.0","s5q89ba7dw","3","NaN","<div style=""width:500px;"">
                            <p style=""font-size:50px; font-weight:bold;""
                            >sad</p>
                            <div style=""width:240px; margin: auto;"">
                                <img src=""images/map13_BuGn_scaleDef_orientMir_090.png"" style= ""width:200px""alt=""img"">
                            </div>
                        </div>","-98","","0","","","","images/map13_BuGn_scaleDef_orientMir_090.png","sad","1","13","13","BuGn","orientMir","scaleDef","090","",""
"","","","","","html-slider-response","87","358871","0.0-81.0","s5q89ba7dw","3","NaN","<div style=""width:500px;"">
                            <p style=""font-size:50px; font-weight:bold;""
                            >sad</p>
                            <div style=""width:240px; margin: auto;"">
                                <img src=""images/map12_GnBu_scaleRev_orientMir_180.png"" style= ""width:200px""alt=""img"">
                            </div>
                        </div>","-34","","0","","","","images/map12_GnBu_scaleRev_orientMir_180.png","sad","1","12","12","GnBu","orientMir","scaleRev","180","",""
"","","","","","html-slider-response","88","360432","0.0-82.0","s5q89ba7dw","3","NaN","<div style=""width:500px;"">
                            <p style=""font-size:50px; font-weight:bold;""
                            >sad</p>
                            <div style=""width:240px; margin: auto;"">
                                <img src=""images/map15_BrBG_scaleRev_orientMir_180.png"" style= ""width:200px""alt=""img"">
                            </div>
                        </div>","25","","0","","","","images/map15_BrBG_scaleRev_orientMir_180.png","sad","1","15","15","BrBG","orientMir","scaleRev","180","",""
"","","","","","html-slider-response","89","362355","0.0-83.0","s5q89ba7dw","3","NaN","<div style=""width:500px;"">
                            <p style=""font-size:50px; font-weight:bold;""
                            >sad</p>
                            <div style=""width:240px; margin: auto;"">
                                <img src=""images/map10_YlOrBr_scaleDef_orientDef_090.png"" style= ""width:200px""alt=""img"">
                            </div>
                        </div>","-200","","0","","","","images/map10_YlOrBr_scaleDef_orientDef_090.png","sad","1","10","10","YlOrBr","orientDef","scaleDef","090","",""
"","","","","","html-slider-response","90","364154","0.0-84.0","s5q89ba7dw","3","NaN","<div style=""width:500px;"">
                            <p style=""font-size:50px; font-weight:bold;""
                            >sad</p>
                            <div style=""width:240px; margin: auto;"">
                                <img src=""images/map07_Oranges_scaleRev_orientMir_180.png"" style= ""width:200px""alt=""img"">
                            </div>
                        </div>","30","","0","","","","images/map07_Oranges_scaleRev_orientMir_180.png","sad","1","07","07","Oranges","orientMir","scaleRev","180","",""
"","","","","","html-slider-response","91","365876","0.0-85.0","s5q89ba7dw","3","NaN","<div style=""width:500px;"">
                            <p style=""font-size:50px; font-weight:bold;""
                            >sad</p>
                            <div style=""width:240px; margin: auto;"">
                                <img src=""images/map05_cividis_scaleDef_orientDef_270.png"" style= ""width:200px""alt=""img"">
                            </div>
                        </div>","-200","","0","","","","images/map05_cividis_scaleDef_orientDef_270.png","sad","1","05","05","cividis","orientDef","scaleDef","270","",""
"","","","","","html-slider-response","92","367653","0.0-86.0","s5q89ba7dw","3","NaN","<div style=""width:500px;"">
                            <p style=""font-size:50px; font-weight:bold;""
                            >sad</p>
                            <div style=""width:240px; margin: auto;"">
                                <img src=""images/map12_PuBu_scaleDef_orientMir_270.png"" style= ""width:200px""alt=""img"">
                            </div>
                        </div>","-74","","0","","","","images/map12_PuBu_scaleDef_orientMir_270.png","sad","1","12","12","PuBu","orientMir","scaleDef","270","",""
"","","","","","html-slider-response","93","369403","0.0-87.0","s5q89ba7dw","3","NaN","<div style=""width:500px;"">
                            <p style=""font-size:50px; font-weight:bold;""
                            >sad</p>
                            <div style=""width:240px; margin: auto;"">
                                <img src=""images/map27_berlin_scaleDef_orientDef_090.png"" style= ""width:200px""alt=""img"">
                            </div>
                        </div>","40","","0","","","","images/map27_berlin_scaleDef_orientDef_090.png","sad","1","27","27","berlin","orientDef","scaleDef","090","",""
"","","","","","html-slider-response","94","371398","0.0-88.0","s5q89ba7dw","3","NaN","<div style=""width:500px;"">
                            <p style=""font-size:50px; font-weight:bold;""
                            >sad</p>
                            <div style=""width:240px; margin: auto;"">
                                <img src=""images/map26_Spectral_scaleDef_orientDef_090.png"" style= ""width:200px""alt=""img"">
                            </div>
                        </div>","79","","0","","","","images/map26_Spectral_scaleDef_orientDef_090.png","sad","1","26","26","Spectral","orientDef","scaleDef","090","",""
"","","","","","html-slider-response","95","373622","0.0-89.0","s5q89ba7dw","3","NaN","<div style=""width:500px;"">
                            <p style=""font-size:50px; font-weight:bold;""
                            >sad</p>
                            <div style=""width:240px; margin: auto;"">
                                <img src=""images/map13_PuBu_scaleRev_orientDef_000.png"" style= ""width:200px""alt=""img"">
                            </div>
                        </div>","-132","","0","","","","images/map13_PuBu_scaleRev_orientDef_000.png","sad","1","13","13","PuBu","orientDef","scaleRev","000","",""
"","","","","","html-slider-response","96","375373","0.0-90.0","s5q89ba7dw","3","NaN","<div style=""width:500px;"">
                            <p style=""font-size:50px; font-weight:bold;""
                            >sad</p>
                            <div style=""width:240px; margin: auto;"">
                                <img src=""images/map02_turbo_scaleRev_orientDef_180.png"" style= ""width:200px""alt=""img"">
                            </div>
                        </div>","45","","0","","","","images/map02_turbo_scaleRev_orientDef_180.png","sad","1","02","02","turbo","orientDef","scaleRev","180","",""
"","","","","","html-slider-response","97","377063","0.0-91.0","s5q89ba7dw","3","NaN","<div style=""width:500px;"">
                            <p style=""font-size:50px; font-weight:bold;""
                            >sad</p>
                            <div style=""width:240px; margin: auto;"">
                                <img src=""images/map12_RdPu_scaleDef_orientDef_090.png"" style= ""width:200px""alt=""img"">
                            </div>
                        </div>","-163","","0","","","","images/map12_RdPu_scaleDef_orientDef_090.png","sad","1","12","12","RdPu","orientDef","scaleDef","090","",""
"","","","","","html-slider-response","98","378798","0.0-92.0","s5q89ba7dw","3","NaN","<div style=""width:500px;"">
                            <p style=""font-size:50px; font-weight:bold;""
                            >sad</p>
                            <div style=""width:240px; margin: auto;"">
                                <img src=""images/map02_viridis_scaleRev_orientMir_000.png"" style= ""width:200px""alt=""img"">
                            </div>
                        </div>","-139","","0","","","","images/map02_viridis_scaleRev_orientMir_000.png","sad","1","02","02","viridis","orientMir","scaleRev","000","",""
"","","","","","html-slider-response","99","380714","0.0-93.0","s5q89ba7dw","3","NaN","<div style=""width:500px;"">
                            <p style=""font-size:50px; font-weight:bold;""
                            >sad</p>
                            <div style=""width:240px; margin: auto;"">
                                <img src=""images/map02_plasma_scaleRev_orientMir_180.png"" style= ""width:200px""alt=""img"">
                            </div>
                        </div>","-143","","0","","","","images/map02_plasma_scaleRev_orientMir_180.png","sad","1","02","02","plasma","orientMir","scaleRev","180","",""
"","","","","","html-slider-response","100","382999","0.0-94.0","s5q89ba7dw","3","NaN","<div style=""width:500px;"">
                            <p style=""font-size:50px; font-weight:bold;""
                            >sad</p>
                            <div style=""width:240px; margin: auto;"">
                                <img src=""images/map12_BuPu_scaleDef_orientDef_270.png"" style= ""width:200px""alt=""img"">
                            </div>
                        </div>","-115","","0","","","","images/map12_BuPu_scaleDef_orientDef_270.png","sad","1","12","12","BuPu","orientDef","scaleDef","270","",""
"","","","","","html-button-response","101","385053","0.0-95.0","s5q89ba7dw","3","1551","<p>Great Job! You've finished block 1.<br></br> You have 4 block(s) left to go.<br></br></p>","0","","","","","","","","","","","","","","","",""
"","","","","","html-button-response","102","386144","0.0-96.0","s5q89ba7dw","3","1089","<p>In this block of trials, you will be asked to rate how much you associate each map with:</p > <p style = 'font-size:150%; font-weight: bold'>disgust</p><br></br>","0","","","","","","","","","","","","","","","",""
"","","","","","html-slider-response","103","388047","0.0-97.0","s5q89ba7dw","3","NaN","<div style=""width:500px;"">
                            <p style=""font-size:50px; font-weight:bold;""
                            >disgust</p>
                            <div style=""width:240px; margin: auto;"">
                                <img src=""images/map15_PuOr_scaleDef_orientMir_270.png"" style= ""width:200px""alt=""img"">
                            </div>
                        </div>","121","","0","","","","images/map15_PuOr_scaleDef_orientMir_270.png","disgust","1","15","15","PuOr","orientMir","scaleDef","270","",""
"","","","","","html-slider-response","104","389696","0.0-98.0","s5q89ba7dw","3","NaN","<div style=""width:500px;"">
                            <p style=""font-size:50px; font-weight:bold;""
                            >disgust</p>
                            <div style=""width:240px; margin: auto;"">
                                <img src=""images/map12_GnBu_scaleRev_orientMir_180.png"" style= ""width:200px""alt=""img"">
                            </div>
                        </div>","-200","","0","","","","images/map12_GnBu_scaleRev_orientMir_180.png","disgust","1","12","12","GnBu","orientMir","scaleRev","180","",""
"","","","","","html-slider-response","105","392166","0.0-99.0","s5q89ba7dw","3","NaN","<div style=""width:500px;"">
                            <p style=""font-size:50px; font-weight:bold;""
                            >disgust</p>
                            <div style=""width:240px; margin: auto;"">
                                <img src=""images/map02_inferno_scaleDef_orientMir_270.png"" style= ""width:200px""alt=""img"">
                            </div>
                        </div>","-46","","0","","","","images/map02_inferno_scaleDef_orientMir_270.png","disgust","1","02","02","inferno","orientMir","scaleDef","270","",""
"","","","","","html-slider-response","106","394162","0.0-100.0","s5q89ba7dw","3","NaN","<div style=""width:500px;"">
                            <p style=""font-size:50px; font-weight:bold;""
                            >disgust</p>
                            <div style=""width:240px; margin: auto;"">
                                <img src=""images/map02_viridis_scaleDef_orientDef_270.png"" style= ""width:200px""alt=""img"">
                            </div>
                        </div>","-35","","0","","","","images/map02_viridis_scaleDef_orientDef_270.png","disgust","1","02","02","viridis","orientDef","scaleDef","270","",""
"","","","","","html-slider-response","107","396649","0.0-101.0","s5q89ba7dw","3","NaN","<div style=""width:500px;"">
                            <p style=""font-size:50px; font-weight:bold;""
                            >disgust</p>
                            <div style=""width:240px; margin: auto;"">
                                <img src=""images/map15_PRGn_scaleRev_orientMir_000.png"" style= ""width:200px""alt=""img"">
                            </div>
                        </div>","200","","0","","","","images/map15_PRGn_scaleRev_orientMir_000.png","disgust","1","15","15","PRGn","orientMir","scaleRev","000","",""
"","","","","","html-slider-response","108","398541","0.0-102.0","s5q89ba7dw","3","NaN","<div style=""width:500px;"">
                            <p style=""font-size:50px; font-weight:bold;""
                            >disgust</p>
                            <div style=""width:240px; margin: auto;"">
                                <img src=""images/map10_OrRd_scaleRev_orientMir_180.png"" style= ""width:200px""alt=""img"">
                            </div>
                        </div>","-83","","0","","","","images/map10_OrRd_scaleRev_orientMir_180.png","disgust","1","10","10","OrRd","orientMir","scaleRev","180","",""
"","","","","","html-slider-response","109","400732","0.0-103.0","s5q89ba7dw","3","NaN","<div style=""width:500px;"">
                            <p style=""font-size:50px; font-weight:bold;""
                            >disgust</p>
                            <div style=""width:240px; margin: auto;"">
                                <img src=""images/map26_RdYlGn_scaleRev_orientDef_000.png"" style= ""width:200px""alt=""img"">
                            </div>
                        </div>","152","","0","","","","images/map26_RdYlGn_scaleRev_orientDef_000.png","disgust","1","26","26","RdYlGn","orientDef","scaleRev","000","",""
"","","","","","html-slider-response","110","402477","0.0-104.0","s5q89ba7dw","3","NaN","<div style=""width:500px;"">
                            <p style=""font-size:50px; font-weight:bold;""
                            >disgust</p>
                            <div style=""width:240px; margin: auto;"">
                                <img src=""images/map23_RdYlGn_scaleDef_orientMir_270.png"" style= ""width:200px""alt=""img"">
                            </div>
                        </div>","110","","0","","","","images/map23_RdYlGn_scaleDef_orientMir_270.png","disgust","1","23","23","RdYlGn","orientMir","scaleDef","270","",""
"","","","","","html-slider-response","111","404333","0.0-105.0","s5q89ba7dw","3","NaN","<div style=""width:500px;"">
                            <p style=""font-size:50px; font-weight:bold;""
                            >disgust</p>
                            <div style=""width:240px; margin: auto;"">
                                <img src=""images/map12_RdPu_scaleRev_orientDef_180.png"" style= ""width:200px""alt=""img"">
                            </div>
                        </div>","-84","","0","","","","images/map12_RdPu_scaleRev_orientDef_180.png","disgust","1","12","12","RdPu","orientDef","scaleRev","180","",""
"","","","","","html-slider-response","112","406991","0.0-106.0","s5q89ba7dw","3","NaN","<div style=""width:500px;"">
                            <p style=""font-size:50px; font-weight:bold;""
                            >disgust</p>
                            <div style=""width:240px; margin: auto;"">
                                <img src=""images/map13_YlGn_scaleDef_orientMir_270.png"" style= ""width:200px""alt=""img"">
                            </div>
                        </div>","-105","","0","","","","images/map13_YlGn_scaleDef_orientMir_270.png","disgust","1","13","13","YlGn","orientMir","scaleDef","270","",""
"","","","","","html-slider-response","113","409049","0.0-107.0","s5q89ba7dw","3","NaN","<div style=""width:500px;"">
                            <p style=""font-size:50px; font-weight:bold;""
                            >disgust</p>
                            <div style=""width:240px; margin: auto;"">
                                <img src=""images/map05_Greys_scaleDef_orientMir_090.png"" style= ""width:200px""alt=""img"">
                            </div>
                        </div>","-125","","0","","","","images/map05_Greys_scaleDef_orientMir_090.png","disgust","1","05","05","Greys","orientMir","scaleDef","090","",""
"","","","","","html-slider-response","114","412264","0.0-108.0","s5q89ba7dw","3","NaN","<div style=""width:500px;"">
                            <p style=""font-size:50px; font-weight:bold;""
                            >disgust</p>
                            <div style=""width:240px; margin: auto;"">
                                <img src=""images/map23_PuOr_scaleRev_orientDef_000.png"" style= ""width:200px""alt=""img"">
                            </div>
                        </div>","103","","0","","","","images/map23_PuOr_scaleRev_orientDef_000.png","disgust","1","23","23","PuOr","orientDef","scaleRev","000","",""
"","","","","","html-slider-response","115","415546","0.0-109.0","s5q89ba7dw","3","NaN","<div style=""width:500px;"">
                            <p style=""font-size:50px; font-weight:bold;""
                            >disgust</p>
                            <div style=""width:240px; margin: auto;"">
                                <img src=""images/map02_plasma_scaleRev_orientMir_180.png"" style= ""width:200px""alt=""img"">
                            </div>
                        </div>","-120","","0","","","","images/map02_plasma_scaleRev_orientMir_180.png","disgust","1","02","02","plasma","orientMir","scaleRev","180","",""
"","","","","","html-slider-response","116","419581","0.0-110.0","s5q89ba7dw","3","NaN","<div style=""width:500px;"">
                            <p style=""font-size:50px; font-weight:bold;""
                            >disgust</p>
                            <div style=""width:240px; margin: auto;"">
                                <img src=""images/map27_berlin_scaleRev_orientDef_180.png"" style= ""width:200px""alt=""img"">
                            </div>
                        </div>","30","","0","","","","images/map27_berlin_scaleRev_orientDef_180.png","disgust","1","27","27","berlin","orientDef","scaleRev","180","",""
"","","","","","html-slider-response","117","421844","0.0-111.0","s5q89ba7dw","3","NaN","<div style=""width:500px;"">
                            <p style=""font-size:50px; font-weight:bold;""
                            >disgust</p>
                            <div style=""width:240px; margin: auto;"">
                                <img src=""images/map26_bwr_scaleDef_orientMir_090.png"" style= ""width:200px""alt=""img"">
                            </div>
                        </div>","-109","","0","","","","images/map26_bwr_scaleDef_orientMir_090.png","disgust","1","26","26","bwr","orientMir","scaleDef","090","",""
"","","","","","html-slider-response","118","423795","0.0-112.0","s5q89ba7dw","3","NaN","<div style=""width:500px;"">
                            <p style=""font-size:50px; font-weight:bold;""
                            >disgust</p>
                            <div style=""width:240px; margin: auto;"">
                                <img src=""images/map05_Greys_scaleRev_orientMir_180.png"" style= ""width:200px""alt=""img"">
                            </div>
                        </div>","-106","","0","","","","images/map05_Greys_scaleRev_orientMir_180.png","disgust","1","05","05","Greys","orientMir","scaleRev","180","",""
"","","","","","html-slider-response","119","425879","0.0-113.0","s5q89ba7dw","3","NaN","<div style=""width:500px;"">
                            <p style=""font-size:50px; font-weight:bold;""
                            >disgust</p>
                            <div style=""width:240px; margin: auto;"">
                                <img src=""images/map13_BuGn_scaleRev_orientMir_180.png"" style= ""width:200px""alt=""img"">
                            </div>
                        </div>","-48","","0","","","","images/map13_BuGn_scaleRev_orientMir_180.png","disgust","1","13","13","BuGn","orientMir","scaleRev","180","",""
"","","","","","html-slider-response","120","429558","0.0-114.0","s5q89ba7dw","3","NaN","<div style=""width:500px;"">
                            <p style=""font-size:50px; font-weight:bold;""
                            >disgust</p>
                            <div style=""width:240px; margin: auto;"">
                                <img src=""images/map05_inferno_scaleRev_orientDef_000.png"" style= ""width:200px""alt=""img"">
                            </div>
                        </div>","114","","0","","","","images/map05_inferno_scaleRev_orientDef_000.png","disgust","1","05","05","inferno","orientDef","scaleRev","000","",""
"","","","","","html-slider-response","121","442376","0.0-115.0","s5q89ba7dw","3","NaN","<div style=""width:500px;"">
                            <p style=""font-size:50px; font-weight:bold;""
                            >disgust</p>
                            <div style=""width:240px; margin: auto;"">
                                <img src=""images/map23_RdGy_scaleRev_orientDef_180.png"" style= ""width:200px""alt=""img"">
                            </div>
                        </div>","90","","0","","","","images/map23_RdGy_scaleRev_orientDef_180.png","disgust","1","23","23","RdGy","orientDef","scaleRev","180","",""
"","","","","","html-slider-response","122","444670","0.0-116.0","s5q89ba7dw","3","NaN","<div style=""width:500px;"">
                            <p style=""font-size:50px; font-weight:bold;""
                            >disgust</p>
                            <div style=""width:240px; margin: auto;"">
                                <img src=""images/map13_PuBuGn_scaleRev_orientMir_000.png"" style= ""width:200px""alt=""img"">
                            </div>
                        </div>","-62","","0","","","","images/map13_PuBuGn_scaleRev_orientMir_000.png","disgust","1","13","13","PuBuGn","orientMir","scaleRev","000","",""
"","","","","","html-slider-response","123","446880","0.0-117.0","s5q89ba7dw","3","NaN","<div style=""width:500px;"">
                            <p style=""font-size:50px; font-weight:bold;""
                            >disgust</p>
                            <div style=""width:240px; margin: auto;"">
                                <img src=""images/map02_gist_earth_scaleRev_orientDef_000.png"" style= ""width:200px""alt=""img"">
                            </div>
                        </div>","44","","0","","","","images/map02_gist_earth_scaleRev_orientDef_000.png","disgust","1","02","02","gist","scaleRev","earth","orientDef","",""
"","","","","","html-slider-response","124","449790","0.0-118.0","s5q89ba7dw","3","NaN","<div style=""width:500px;"">
                            <p style=""font-size:50px; font-weight:bold;""
                            >disgust</p>
                            <div style=""width:240px; margin: auto;"">
                                <img src=""images/map13_YlGnBu_scaleRev_orientDef_180.png"" style= ""width:200px""alt=""img"">
                            </div>
                        </div>","-82","","0","","","","images/map13_YlGnBu_scaleRev_orientDef_180.png","disgust","1","13","13","YlGnBu","orientDef","scaleRev","180","",""
"","","","","","html-slider-response","125","452488","0.0-119.0","s5q89ba7dw","3","NaN","<div style=""width:500px;"">
                            <p style=""font-size:50px; font-weight:bold;""
                            >disgust</p>
                            <div style=""width:240px; margin: auto;"">
                                <img src=""images/map26_Spectral_scaleDef_orientDef_090.png"" style= ""width:200px""alt=""img"">
                            </div>
                        </div>","123","","0","","","","images/map26_Spectral_scaleDef_orientDef_090.png","disgust","1","26","26","Spectral","orientDef","scaleDef","090","",""
"","","","","","html-slider-response","126","454308","0.0-120.0","s5q89ba7dw","3","NaN","<div style=""width:500px;"">
                            <p style=""font-size:50px; font-weight:bold;""
                            >disgust</p>
                            <div style=""width:240px; margin: auto;"">
                                <img src=""images/map13_PuBuGn_scaleDef_orientDef_270.png"" style= ""width:200px""alt=""img"">
                            </div>
                        </div>","-72","","0","","","","images/map13_PuBuGn_scaleDef_orientDef_270.png","disgust","1","13","13","PuBuGn","orientDef","scaleDef","270","",""
"","","","","","html-slider-response","127","456262","0.0-121.0","s5q89ba7dw","3","NaN","<div style=""width:500px;"">
                            <p style=""font-size:50px; font-weight:bold;""
                            >disgust</p>
                            <div style=""width:240px; margin: auto;"">
                                <img src=""images/map15_BrBG_scaleDef_orientMir_090.png"" style= ""width:200px""alt=""img"">
                            </div>
                        </div>","121","","0","","","","images/map15_BrBG_scaleDef_orientMir_090.png","disgust","1","15","15","BrBG","orientMir","scaleDef","090","",""
"","","","","","html-slider-response","128","459511","0.0-122.0","s5q89ba7dw","3","NaN","<div style=""width:500px;"">
                            <p style=""font-size:50px; font-weight:bold;""
                            >disgust</p>
                            <div style=""width:240px; margin: auto;"">
                                <img src=""images/map27_managua_scaleDef_orientDef_270.png"" style= ""width:200px""alt=""img"">
                            </div>
                        </div>","-194","","0","","","","images/map27_managua_scaleDef_orientDef_270.png","disgust","1","27","27","managua","orientDef","scaleDef","270","",""
"","","","","","html-slider-response","129","462992","0.0-123.0","s5q89ba7dw","3","NaN","<div style=""width:500px;"">
                            <p style=""font-size:50px; font-weight:bold;""
                            >disgust</p>
                            <div style=""width:240px; margin: auto;"">
                                <img src=""images/map07_Greens_scaleDef_orientDef_270.png"" style= ""width:200px""alt=""img"">
                            </div>
                        </div>","-105","","0","","","","images/map07_Greens_scaleDef_orientDef_270.png","disgust","1","07","07","Greens","orientDef","scaleDef","270","",""
"","","","","","html-slider-response","130","464957","0.0-124.0","s5q89ba7dw","3","NaN","<div style=""width:500px;"">
                            <p style=""font-size:50px; font-weight:bold;""
                            >disgust</p>
                            <div style=""width:240px; margin: auto;"">
                                <img src=""images/map07_Blues_scaleDef_orientDef_090.png"" style= ""width:200px""alt=""img"">
                            </div>
                        </div>","-110","","0","","","","images/map07_Blues_scaleDef_orientDef_090.png","disgust","1","07","07","Blues","orientDef","scaleDef","090","",""
"","","","","","html-slider-response","131","466830","0.0-125.0","s5q89ba7dw","3","NaN","<div style=""width:500px;"">
                            <p style=""font-size:50px; font-weight:bold;""
                            >disgust</p>
                            <div style=""width:240px; margin: auto;"">
                                <img src=""images/map26_seismic_scaleDef_orientMir_270.png"" style= ""width:200px""alt=""img"">
                            </div>
                        </div>","126","","0","","","","images/map26_seismic_scaleDef_orientMir_270.png","disgust","1","26","26","seismic","orientMir","scaleDef","270","",""
"","","","","","html-slider-response","132","468818","0.0-126.0","s5q89ba7dw","3","NaN","<div style=""width:500px;"">
                            <p style=""font-size:50px; font-weight:bold;""
                            >disgust</p>
                            <div style=""width:240px; margin: auto;"">
                                <img src=""images/map12_PuBu_scaleDef_orientMir_270.png"" style= ""width:200px""alt=""img"">
                            </div>
                        </div>","-200","","0","","","","images/map12_PuBu_scaleDef_orientMir_270.png","disgust","1","12","12","PuBu","orientMir","scaleDef","270","",""
"","","","","","html-slider-response","133","470762","0.0-127.0","s5q89ba7dw","3","NaN","<div style=""width:500px;"">
                            <p style=""font-size:50px; font-weight:bold;""
                            >disgust</p>
                            <div style=""width:240px; margin: auto;"">
                                <img src=""images/map05_Purples_scaleDef_orientMir_270.png"" style= ""width:200px""alt=""img"">
                            </div>
                        </div>","-155","","0","","","","images/map05_Purples_scaleDef_orientMir_270.png","disgust","1","05","05","Purples","orientMir","scaleDef","270","",""
"","","","","","html-slider-response","134","472434","0.0-128.0","s5q89ba7dw","3","NaN","<div style=""width:500px;"">
                            <p style=""font-size:50px; font-weight:bold;""
                            >disgust</p>
                            <div style=""width:240px; margin: auto;"">
                                <img src=""images/map26_coolwarm_scaleRev_orientMir_000.png"" style= ""width:200px""alt=""img"">
                            </div>
                        </div>","76","","0","","","","images/map26_coolwarm_scaleRev_orientMir_000.png","disgust","1","26","26","coolwarm","orientMir","scaleRev","000","",""
"","","","","","html-slider-response","135","474144","0.0-129.0","s5q89ba7dw","3","NaN","<div style=""width:500px;"">
                            <p style=""font-size:50px; font-weight:bold;""
                            >disgust</p>
                            <div style=""width:240px; margin: auto;"">
                                <img src=""images/map23_RdYlBu_scaleRev_orientMir_180.png"" style= ""width:200px""alt=""img"">
                            </div>
                        </div>","121","","0","","","","images/map23_RdYlBu_scaleRev_orientMir_180.png","disgust","1","23","23","RdYlBu","orientMir","scaleRev","180","",""
"","","","","","html-slider-response","136","475819","0.0-130.0","s5q89ba7dw","3","NaN","<div style=""width:500px;"">
                            <p style=""font-size:50px; font-weight:bold;""
                            >disgust</p>
                            <div style=""width:240px; margin: auto;"">
                                <img src=""images/map10_YlOrBr_scaleDef_orientDef_090.png"" style= ""width:200px""alt=""img"">
                            </div>
                        </div>","-130","","0","","","","images/map10_YlOrBr_scaleDef_orientDef_090.png","disgust","1","10","10","YlOrBr","orientDef","scaleDef","090","",""
"","","","","","html-slider-response","137","477401","0.0-131.0","s5q89ba7dw","3","NaN","<div style=""width:500px;"">
                            <p style=""font-size:50px; font-weight:bold;""
                            >disgust</p>
                            <div style=""width:240px; margin: auto;"">
                                <img src=""images/map26_coolwarm_scaleDef_orientDef_270.png"" style= ""width:200px""alt=""img"">
                            </div>
                        </div>","109","","0","","","","images/map26_coolwarm_scaleDef_orientDef_270.png","disgust","1","26","26","coolwarm","orientDef","scaleDef","270","",""
"","","","","","html-slider-response","138","479310","0.0-132.0","s5q89ba7dw","3","NaN","<div style=""width:500px;"">
                            <p style=""font-size:50px; font-weight:bold;""
                            >disgust</p>
                            <div style=""width:240px; margin: auto;"">
                                <img src=""images/map13_YlGnBu_scaleDef_orientDef_090.png"" style= ""width:200px""alt=""img"">
                            </div>
                        </div>","-41","","0","","","","images/map13_YlGnBu_scaleDef_orientDef_090.png","disgust","1","13","13","YlGnBu","orientDef","scaleDef","090","",""
"","","","","","html-slider-response","139","481076","0.0-133.0","s5q89ba7dw","3","NaN","<div style=""width:500px;"">
                            <p style=""font-size:50px; font-weight:bold;""
                            >disgust</p>
                            <div style=""width:240px; margin: auto;"">
                                <img src=""images/map12_GnBu_scaleDef_orientMir_090.png"" style= ""width:200px""alt=""img"">
                            </div>
                        </div>","-39","","0","","","","images/map12_GnBu_scaleDef_orientMir_090.png","disgust","1","12","12","GnBu","orientMir","scaleDef","090","",""
"","","","","","html-slider-response","140","482993","0.0-134.0","s5q89ba7dw","3","NaN","<div style=""width:500px;"">
                            <p style=""font-size:50px; font-weight:bold;""
                            >disgust</p>
                            <div style=""width:240px; margin: auto;"">
                                <img src=""images/map12_BuPu_scaleDef_orientDef_270.png"" style= ""width:200px""alt=""img"">
                            </div>
                        </div>","-144","","0","","","","images/map12_BuPu_scaleDef_orientDef_270.png","disgust","1","12","12","BuPu","orientDef","scaleDef","270","",""
"","","","","","html-slider-response","141","485467","0.0-135.0","s5q89ba7dw","3","NaN","<div style=""width:500px;"">
                            <p style=""font-size:50px; font-weight:bold;""
                            >disgust</p>
                            <div style=""width:240px; margin: auto;"">
                                <img src=""images/map23_RdBu_scaleRev_orientMir_000.png"" style= ""width:200px""alt=""img"">
                            </div>
                        </div>","21","","0","","","","images/map23_RdBu_scaleRev_orientMir_000.png","disgust","1","23","23","RdBu","orientMir","scaleRev","000","",""
"","","","","","html-slider-response","142","487156","0.0-136.0","s5q89ba7dw","3","NaN","<div style=""width:500px;"">
                            <p style=""font-size:50px; font-weight:bold;""
                            >disgust</p>
                            <div style=""width:240px; margin: auto;"">
                                <img src=""images/map23_RdBu_scaleDef_orientDef_270.png"" style= ""width:200px""alt=""img"">
                            </div>
                        </div>","23","","0","","","","images/map23_RdBu_scaleDef_orientDef_270.png","disgust","1","23","23","RdBu","orientDef","scaleDef","270","",""
"","","","","","html-button-response","143","488747","0.0-137.0","s5q89ba7dw","3","1083","<p>You are doing great!<br></br> You are halway done with the current block. When you are ready to continue, click the 'Continue' button.</p>","0","","","","","","","","","","","","","","","",""
"","","","","","html-slider-response","144","490575","0.0-138.0","s5q89ba7dw","3","NaN","<div style=""width:500px;"">
                            <p style=""font-size:50px; font-weight:bold;""
                            >disgust</p>
                            <div style=""width:240px; margin: auto;"">
                                <img src=""images/map12_RdPu_scaleDef_orientDef_090.png"" style= ""width:200px""alt=""img"">
                            </div>
                        </div>","-133","","0","","","","images/map12_RdPu_scaleDef_orientDef_090.png","disgust","1","12","12","RdPu","orientDef","scaleDef","090","",""
"","","","","","html-slider-response","145","492741","0.0-139.0","s5q89ba7dw","3","NaN","<div style=""width:500px;"">
                            <p style=""font-size:50px; font-weight:bold;""
                            >disgust</p>
                            <div style=""width:240px; margin: auto;"">
                                <img src=""images/map10_OrRd_scaleDef_orientMir_090.png"" style= ""width:200px""alt=""img"">
                            </div>
                        </div>","-88","","0","","","","images/map10_OrRd_scaleDef_orientMir_090.png","disgust","1","10","10","OrRd","orientMir","scaleDef","090","",""
"","","","","","html-slider-response","146","495492","0.0-140.0","s5q89ba7dw","3","NaN","<div style=""width:500px;"">
                            <p style=""font-size:50px; font-weight:bold;""
                            >disgust</p>
                            <div style=""width:240px; margin: auto;"">
                                <img src=""images/map02_plasma_scaleDef_orientMir_090.png"" style= ""width:200px""alt=""img"">
                            </div>
                        </div>","-15","","0","","","","images/map02_plasma_scaleDef_orientMir_090.png","disgust","1","02","02","plasma","orientMir","scaleDef","090","",""
"","","","","","html-slider-response","147","497614","0.0-141.0","s5q89ba7dw","3","NaN","<div style=""width:500px;"">
                            <p style=""font-size:50px; font-weight:bold;""
                            >disgust</p>
                            <div style=""width:240px; margin: auto;"">
                                <img src=""images/map12_PuRd_scaleRev_orientDef_000.png"" style= ""width:200px""alt=""img"">
                            </div>
                        </div>","-15","","0","","","","images/map12_PuRd_scaleRev_orientDef_000.png","disgust","1","12","12","PuRd","orientDef","scaleRev","000","",""
"","","","","","html-slider-response","148","499661","0.0-142.0","s5q89ba7dw","3","NaN","<div style=""width:500px;"">
                            <p style=""font-size:50px; font-weight:bold;""
                            >disgust</p>
                            <div style=""width:240px; margin: auto;"">
                                <img src=""images/map15_YlGn_scaleRev_orientDef_000.png"" style= ""width:200px""alt=""img"">
                            </div>
                        </div>","-56","","0","","","","images/map15_YlGn_scaleRev_orientDef_000.png","disgust","1","15","15","YlGn","orientDef","scaleRev","000","",""
"","","","","","html-slider-response","149","501844","0.0-143.0","s5q89ba7dw","3","NaN","<div style=""width:500px;"">
                            <p style=""font-size:50px; font-weight:bold;""
                            >disgust</p>
                            <div style=""width:240px; margin: auto;"">
                                <img src=""images/map05_cividis_scaleRev_orientMir_000.png"" style= ""width:200px""alt=""img"">
                            </div>
                        </div>","-133","","0","","","","images/map05_cividis_scaleRev_orientMir_000.png","disgust","1","05","05","cividis","orientMir","scaleRev","000","",""
"","","","","","html-slider-response","150","503684","0.0-144.0","s5q89ba7dw","3","NaN","<div style=""width:500px;"">
                            <p style=""font-size:50px; font-weight:bold;""
                            >disgust</p>
                            <div style=""width:240px; margin: auto;"">
                                <img src=""images/map15_PiYG_scaleRev_orientDef_180.png"" style= ""width:200px""alt=""img"">
                            </div>
                        </div>","138","","0","","","","images/map15_PiYG_scaleRev_orientDef_180.png","disgust","1","15","15","PiYG","orientDef","scaleRev","180","",""
"","","","","","html-slider-response","151","506276","0.0-145.0","s5q89ba7dw","3","NaN","<div style=""width:500px;"">
                            <p style=""font-size:50px; font-weight:bold;""
                            >disgust</p>
                            <div style=""width:240px; margin: auto;"">
                                <img src=""images/map05_magma_scaleDef_orientDef_090.png"" style= ""width:200px""alt=""img"">
                            </div>
                        </div>","13","","0","","","","images/map05_magma_scaleDef_orientDef_090.png","disgust","1","05","05","magma","orientDef","scaleDef","090","",""
"","","","","","html-slider-response","152","508412","0.0-146.0","s5q89ba7dw","3","NaN","<div style=""width:500px;"">
                            <p style=""font-size:50px; font-weight:bold;""
                            >disgust</p>
                            <div style=""width:240px; margin: auto;"">
                                <img src=""images/map10_YlOrBr_scaleRev_orientDef_180.png"" style= ""width:200px""alt=""img"">
                            </div>
                        </div>","-100","","0","","","","images/map10_YlOrBr_scaleRev_orientDef_180.png","disgust","1","10","10","YlOrBr","orientDef","scaleRev","180","",""
"","","","","","html-slider-response","153","512141","0.0-147.0","s5q89ba7dw","3","NaN","<div style=""width:500px;"">
                            <p style=""font-size:50px; font-weight:bold;""
                            >disgust</p>
                            <div style=""width:240px; margin: auto;"">
                                <img src=""images/map07_Reds_scaleDef_orientMir_270.png"" style= ""width:200px""alt=""img"">
                            </div>
                        </div>","-136","","0","","","","images/map07_Reds_scaleDef_orientMir_270.png","disgust","1","07","07","Reds","orientMir","scaleDef","270","",""
"","","","","","html-slider-response","154","514640","0.0-148.0","s5q89ba7dw","3","NaN","<div style=""width:500px;"">
                            <p style=""font-size:50px; font-weight:bold;""
                            >disgust</p>
                            <div style=""width:240px; margin: auto;"">
                                <img src=""images/map07_Blues_scaleRev_orientDef_180.png"" style= ""width:200px""alt=""img"">
                            </div>
                        </div>","-120","","0","","","","images/map07_Blues_scaleRev_orientDef_180.png","disgust","1","07","07","Blues","orientDef","scaleRev","180","",""
"","","","","","html-slider-response","155","517554","0.0-149.0","s5q89ba7dw","3","NaN","<div style=""width:500px;"">
                            <p style=""font-size:50px; font-weight:bold;""
                            >disgust</p>
                            <div style=""width:240px; margin: auto;"">
                                <img src=""images/map27_vanimo_scaleRev_orientMir_180.png"" style= ""width:200px""alt=""img"">
                            </div>
                        </div>","198","","0","","","","images/map27_vanimo_scaleRev_orientMir_180.png","disgust","1","27","27","vanimo","orientMir","scaleRev","180","",""
"","","","","","html-slider-response","156","519274","0.0-150.0","s5q89ba7dw","3","NaN","<div style=""width:500px;"">
                            <p style=""font-size:50px; font-weight:bold;""
                            >disgust</p>
                            <div style=""width:240px; margin: auto;"">
                                <img src=""images/map10_YlOrRd_scaleRev_orientMir_000.png"" style= ""width:200px""alt=""img"">
                            </div>
                        </div>","-78","","0","","","","images/map10_YlOrRd_scaleRev_orientMir_000.png","disgust","1","10","10","YlOrRd","orientMir","scaleRev","000","",""
"","","","","","html-slider-response","157","521490","0.0-151.0","s5q89ba7dw","3","NaN","<div style=""width:500px;"">
                            <p style=""font-size:50px; font-weight:bold;""
                            >disgust</p>
                            <div style=""width:240px; margin: auto;"">
                                <img src=""images/map10_Reds_scaleRev_orientDef_000.png"" style= ""width:200px""alt=""img"">
                            </div>
                        </div>","-79","","0","","","","images/map10_Reds_scaleRev_orientDef_000.png","disgust","1","10","10","Reds","orientDef","scaleRev","000","",""
"","","","","","html-slider-response","158","523624","0.0-152.0","s5q89ba7dw","3","NaN","<div style=""width:500px;"">
                            <p style=""font-size:50px; font-weight:bold;""
                            >disgust</p>
                            <div style=""width:240px; margin: auto;"">
                                <img src=""images/map12_BuPu_scaleRev_orientMir_000.png"" style= ""width:200px""alt=""img"">
                            </div>
                        </div>","-160","","0","","","","images/map12_BuPu_scaleRev_orientMir_000.png","disgust","1","12","12","BuPu","orientMir","scaleRev","000","",""
"","","","","","html-slider-response","159","525557","0.0-153.0","s5q89ba7dw","3","NaN","<div style=""width:500px;"">
                            <p style=""font-size:50px; font-weight:bold;""
                            >disgust</p>
                            <div style=""width:240px; margin: auto;"">
