"success","timeout","failed_images","failed_audio","failed_video","trial_type","trial_index","time_elapsed","internal_node_id","subject_id","condition_num","rt","stimulus","response","question_order","slider_start","practiceTrial","practiceTrialNum","correct","image_path","concept","repetition","map_id","map_num","scale_name","orientation_code","mapping_code","rotation_code","ishihara_plate","correct_response"
"true","false","[]","[]","[]","preload","0","349","0.0-0.0","tbvwfrjhy3","59","","","","","","","","","","","","","","","","","","",""
"","","","","","html-button-response","1","1916","0.0-1.0","tbvwfrjhy3","59","1566","Welcome to our experiment!<p>At the bottom of this screen, you will see a button that says ""Begin Experiment"".<br>Please only click that button when you are ready to complete the 30 minute experiment in one sitting.</p><p> Once you click that button, it will not be possible to restart the experiment.","0","","","","","","","","","","","","","","","",""
"true","","","","","fullscreen","2","3786","0.0-2.0","tbvwfrjhy3","59","865","","","","","","","","","","","","","","","","","",""
"","","","","","survey-multi-select","3","11101","0.0-3.0","tbvwfrjhy3","59","7312","","{""Consent"":[""<strong>I consent</strong>""]}","[0]","","","","","","","","","","","","","","",""
"","","","","","html-button-response","4","13999","0.0-4.0","tbvwfrjhy3","59","2896","Welcome! <p> This experiment involves two parts: demographic information, followed by the experimental task.<p> It will take about 30 minutes to complete both parts.","0","","","","","","","","","","","","","","","",""
"","","","","","survey-text","5","44484","0.0-5.0","tbvwfrjhy3","59","30476","","{""Age"":""22"",""Gender"":""Male"",""Race/ethnicity"":""Asian"",""Languages"":""English, Indonesian (Bahasa)""}","","","","","","","","","","","","","","","",""
"","","","","","html-slider-response","6","125496","0.0-6.0","tbvwfrjhy3","59","81011","<div style='text-align:left; font-size:20px; line-height:25px; width: 1000px;'>
                                During this experiment you will be asked to rate how much you associate maps with                    different concepts.<br> Below, you can see some examples of the maps you will be asked to rate. Above the maps
                    is the list of concepts.<br>You will be asked                    to rate how much you associate each map with each concept on a scale from 'not at all' to 'very much' like the
                    one below. <br><br>
                    Now, please look at the list of concepts and maps. For each concept, think about the map you associate 'very
                    much' with the concept.<br>                     When you see that map during the experiment, please rate it near the 'very much' endpoint of the
                    scale.<br>Now, please think about which map you associate 'not at all'                     with each concept. When you see that map during the experiment, please rate it near the 'not at all' endpoint
                    of the scale.<br>
                    Please use the full range of the scale. That is, if a map is somewhat associated with the concept, you would
                    click partway between the middle point and right side of the scale.                    You will be asked to rate each map for a given concept before moving on to the next concept.<br>Press the
                    'Continue' button for instructions on how to use the slider.                    <br>
                </div>

                <div style=""width: 500px; margin: 0 auto;"">
                    <!-- Centered text paragraphs -->
                    <div style=""text-align: center; width: 500px;"">
                        <p style=""font-size:25px; line-height:15px;"">
                            disgust&nbsp;&nbsp;&nbsp;&nbsp;
                            angry&nbsp;&nbsp;&nbsp;&nbsp;
                            fearful&nbsp;&nbsp;&nbsp;&nbsp;
                            happy&nbsp;&nbsp;&nbsp;&nbsp;
                            sad
                        </p>
                        <!-- <p style=""font-size:20px; line-height:15px;"">angry</p>
                        <p style=""font-size:20px;line-height:15px;"">fearful</p>
                        <p style=""font-size:20px;line-height:15px;"">happy</p>
                        <p style=""font-size:20px;line-height:15px;"">sad</p> -->
                    </div>
            

                    <!-- Grid section -->
                   <div style=""display: flex; justify-content: center; padding-top: 15px;"">
                    <div style=""display: grid; grid-template-columns: repeat(10, 55px); grid-gap: 5px; width: auto;"">
                        <img src=""images/map12_PuBu_scaleRev_orientDef_180.png"" alt=""map"" style=""width: 100%;""><img src=""images/map12_PuBuGn_scaleRev_orientMir_180.png"" alt=""map"" style=""width: 100%;""><img src=""images/map07_Reds_scaleRev_orientDef_180.png"" alt=""map"" style=""width: 100%;""><img src=""images/map12_YlGnBu_scaleRev_orientMir_000.png"" alt=""map"" style=""width: 100%;""><img src=""images/map02_Greys_scaleDef_orientMir_270.png"" alt=""map"" style=""width: 100%;""><img src=""images/map13_PRGn_scaleRev_orientMir_180.png"" alt=""map"" style=""width: 100%;""><img src=""images/map10_BuPu_scaleRev_orientMir_180.png"" alt=""map"" style=""width: 100%;""><img src=""images/map23_RdYlGn_scaleDef_orientDef_090.png"" alt=""map"" style=""width: 100%;""><img src=""images/map13_PiYG_scaleDef_orientDef_270.png"" alt=""map"" style=""width: 100%;""><img src=""images/map15_RdGy_scaleDef_orientDef_270.png"" alt=""map"" style=""width: 100%;""><img src=""images/map26_seismic_scaleDef_orientDef_090.png"" alt=""map"" style=""width: 100%;""><img src=""images/map23_RdYlBu_scaleRev_orientDef_000.png"" alt=""map"" style=""width: 100%;""><img src=""images/map27_vanimo_scaleRev_orientDef_000.png"" alt=""map"" style=""width: 100%;""><img src=""images/map27_turbo_scaleDef_orientDef_270.png"" alt=""map"" style=""width: 100%;""><img src=""images/map23_coolwarm_scaleRev_orientMir_180.png"" alt=""map"" style=""width: 100%;""><img src=""images/map05_Purples_scaleRev_orientDef_180.png"" alt=""map"" style=""width: 100%;""><img src=""images/map10_PuRd_scaleDef_orientDef_090.png"" alt=""map"" style=""width: 100%;""><img src=""images/map10_GnBu_scaleDef_orientMir_270.png"" alt=""map"" style=""width: 100%;""><img src=""images/map27_gist_earth_scaleDef_orientDef_090.png"" alt=""map"" style=""width: 100%;""><img src=""images/map02_plasma_scaleRev_orientDef_000.png"" alt=""map"" style=""width: 100%;""><img src=""images/map15_RdBu_scaleRev_orientMir_180.png"" alt=""map"" style=""width: 100%;""><img src=""images/map05_Blues_scaleRev_orientMir_000.png"" alt=""map"" style=""width: 100%;""><img src=""images/map07_YlOrBr_scaleRev_orientMir_000.png"" alt=""map"" style=""width: 100%;""><img src=""images/map02_inferno_scaleRev_orientDef_180.png"" alt=""map"" style=""width: 100%;""><img src=""images/map10_RdPu_scaleDef_orientDef_270.png"" alt=""map"" style=""width: 100%;""><img src=""images/map07_YlOrRd_scaleDef_orientMir_090.png"" alt=""map"" style=""width: 100%;""><img src=""images/map26_managua_scaleDef_orientMir_090.png"" alt=""map"" style=""width: 100%;""><img src=""images/map02_cividis_scaleRev_orientMir_180.png"" alt=""map"" style=""width: 100%;""><img src=""images/map02_magma_scaleDef_orientDef_270.png"" alt=""map"" style=""width: 100%;""><img src=""images/map05_Oranges_scaleDef_orientMir_270.png"" alt=""map"" style=""width: 100%;""><img src=""images/map15_PuOr_scaleDef_orientDef_090.png"" alt=""map"" style=""width: 100%;""><img src=""images/map13_BuGn_scaleRev_orientDef_000.png"" alt=""map"" style=""width: 100%;""><img src=""images/map26_berlin_scaleDef_orientDef_270.png"" alt=""map"" style=""width: 100%;""><img src=""images/map26_bwr_scaleRev_orientDef_000.png"" alt=""map"" style=""width: 100%;""><img src=""images/map07_OrRd_scaleDef_orientMir_270.png"" alt=""map"" style=""width: 100%;""><img src=""images/map23_Spectral_scaleDef_orientDef_270.png"" alt=""map"" style=""width: 100%;""><img src=""images/map05_Greens_scaleDef_orientMir_090.png"" alt=""map"" style=""width: 100%;""><img src=""images/map27_viridis_scaleRev_orientMir_180.png"" alt=""map"" style=""width: 100%;""><img src=""images/map13_YlGn_scaleRev_orientDef_180.png"" alt=""map"" style=""width: 100%;""><img src=""images/map13_BrBG_scaleDef_orientMir_270.png"" alt=""map"" style=""width: 100%;"">
                    </div>
                </div>

                    <!-- Clear floats -->
                    <div style=""clear: both;""></div>
                </div>
                            ","0","","0","true","","","","","","","","","","","","",""
"","","","","","html-button-response","7","140946","0.0-7.0","tbvwfrjhy3","59","15449","<div style=""width:800px;""><p style=""text-align:left"">To move the slider, click and drag your cursor to the location of the scale where you would like to make your rating and then let go. When you let go of the slider, your response will be recorded and the next trial will begin. <br>
                    We are interested in your initial impressions of each map for the given concept, so please go with your first intuition. <br>
                    Before you begin the experiment, there will be four training trials for you to practice using the scale. <br>
                     When you are ready to start the training trials, please click ""Continue"".</p><br></div>","0","","","","","","","","","","","","","","","",""
"","","","","","html-slider-response","8","143540","0.0-8.0-0.0","tbvwfrjhy3","59","NaN","<div style=""width:500px;"">
                                    <p style=""font-size:25px;"">Please move the slider all the way to the <br> right endpoint of the scale</p>

                                    </div>
                                </div>","200","","0","true","0","true","","","","","","","","","","",""
"","","","","","html-button-response","9","144763","0.0-8.0-1.0","tbvwfrjhy3","59","720","<p align='center'><b>Good job!</b> Click on 'Continue' to proceed.</p>","0","","","","","","","","","","","","","","","",""
"","","","","","html-slider-response","10","146091","0.0-9.0-0.0","tbvwfrjhy3","59","NaN","<div style=""width:500px;"">
                                    <p style=""font-size:25px;"">Please move the slider all the way to the <br> left endpoint of the scale</p>

                                    </div>
                                </div>","-200","","0","true","1","true","","","","","","","","","","",""
"","","","","","html-button-response","11","147413","0.0-9.0-1.0","tbvwfrjhy3","59","819","<p align='center'><b>Good job!</b> Click on 'Continue' to proceed.</p>","0","","","","","","","","","","","","","","","",""
"","","","","","html-slider-response","12","152456","0.0-10.0-0.0","tbvwfrjhy3","59","NaN","<div style=""width:500px;"">
                                    <p style=""font-size:25px;"">Please move the slider halfway between the center and right endpoint of the scale</p>

                                    </div>
                                </div>","111","","0","true","2","false","","","","","","","","","","",""
"","","","","","html-button-response","13","153662","0.0-10.0-1.0","tbvwfrjhy3","59","704","<p align='center'><b>Not quite!</b> The slider was not placed near the instructed located. Click on 'Continue' to try again. </p>","0","","","","","","","","","","","","","","","",""
"","","","","","html-slider-response","14","157106","0.0-10.1-0.1","tbvwfrjhy3","59","NaN","<div style=""width:500px;"">
                                    <p style=""font-size:25px;"">Please move the slider halfway between the center and right endpoint of the scale</p>

                                    </div>
                                </div>","104","","0","true","2","true","","","","","","","","","","",""
"","","","","","html-button-response","15","158678","0.0-10.1-1.1","tbvwfrjhy3","59","1069","<p align='center'><b>Good job!</b> Click on 'Continue' to proceed.</p>","0","","","","","","","","","","","","","","","",""
"","","","","","html-slider-response","16","162656","0.0-11.0-0.0","tbvwfrjhy3","59","NaN","<div style=""width:500px;"">
                                    <p style=""font-size:25px;"">Please move the slider halfway between the center and left endpoint of the scale</p>

                                    </div>
                                </div>","-104","","0","true","3","true","","","","","","","","","","",""
"","","","","","html-button-response","17","164195","0.0-11.0-1.0","tbvwfrjhy3","59","1036","<p align='center'><b>Good job!</b> Click on 'Continue' to proceed.</p>","0","","","","","","","","","","","","","","","",""
"","","","","","html-button-response","18","166228","0.0-12.0","tbvwfrjhy3","59","2032","<p>Great job! You've completed the practice trials. Now you will begin the main task.</p>","0","","","","","","","","","","","","","","","",""
"","","","","","html-button-response","19","173528","0.0-13.0","tbvwfrjhy3","59","7299","<p>In this block of trials, you will be asked to rate how much you associate each map with:</p > <p style = 'font-size:150%; font-weight: bold'>disgust</p><br></br>","0","","","","","","","","","","","","","","","",""
"","","","","","html-slider-response","20","179988","0.0-14.0","tbvwfrjhy3","59","NaN","<div style=""width:500px;"">
                            <p style=""font-size:50px; font-weight:bold;""
                            >disgust</p>
                            <div style=""width:240px; margin: auto;"">
                                <img src=""images/map07_Oranges_scaleRev_orientDef_000.png"" style= ""width:200px""alt=""img"">
                            </div>
                        </div>","98","","0","","","","images/map07_Oranges_scaleRev_orientDef_000.png","disgust","1","07","07","Oranges","orientDef","scaleRev","000","",""
"","","","","","html-slider-response","21","185373","0.0-15.0","tbvwfrjhy3","59","NaN","<div style=""width:500px;"">
                            <p style=""font-size:50px; font-weight:bold;""
                            >disgust</p>
                            <div style=""width:240px; margin: auto;"">
                                <img src=""images/map02_inferno_scaleRev_orientDef_180.png"" style= ""width:200px""alt=""img"">
                            </div>
                        </div>","-100","","0","","","","images/map02_inferno_scaleRev_orientDef_180.png","disgust","1","02","02","inferno","orientDef","scaleRev","180","",""
"","","","","","html-slider-response","22","189407","0.0-16.0","tbvwfrjhy3","59","NaN","<div style=""width:500px;"">
                            <p style=""font-size:50px; font-weight:bold;""
                            >disgust</p>
                            <div style=""width:240px; margin: auto;"">
                                <img src=""images/map12_PuBu_scaleDef_orientDef_090.png"" style= ""width:200px""alt=""img"">
                            </div>
                        </div>","-90","","0","","","","images/map12_PuBu_scaleDef_orientDef_090.png","disgust","1","12","12","PuBu","orientDef","scaleDef","090","",""
"","","","","","html-slider-response","23","191773","0.0-17.0","tbvwfrjhy3","59","NaN","<div style=""width:500px;"">
                            <p style=""font-size:50px; font-weight:bold;""
                            >disgust</p>
                            <div style=""width:240px; margin: auto;"">
                                <img src=""images/map10_BuPu_scaleDef_orientMir_090.png"" style= ""width:200px""alt=""img"">
                            </div>
                        </div>","98","","0","","","","images/map10_BuPu_scaleDef_orientMir_090.png","disgust","1","10","10","BuPu","orientMir","scaleDef","090","",""
"","","","","","html-slider-response","24","193572","0.0-18.0","tbvwfrjhy3","59","NaN","<div style=""width:500px;"">
                            <p style=""font-size:50px; font-weight:bold;""
                            >disgust</p>
                            <div style=""width:240px; margin: auto;"">
                                <img src=""images/map23_RdYlBu_scaleRev_orientDef_000.png"" style= ""width:200px""alt=""img"">
                            </div>
                        </div>","41","","0","","","","images/map23_RdYlBu_scaleRev_orientDef_000.png","disgust","1","23","23","RdYlBu","orientDef","scaleRev","000","",""
"","","","","","html-slider-response","25","195577","0.0-19.0","tbvwfrjhy3","59","NaN","<div style=""width:500px;"">
                            <p style=""font-size:50px; font-weight:bold;""
                            >disgust</p>
                            <div style=""width:240px; margin: auto;"">
                                <img src=""images/map15_PuOr_scaleDef_orientDef_090.png"" style= ""width:200px""alt=""img"">
                            </div>
                        </div>","115","","0","","","","images/map15_PuOr_scaleDef_orientDef_090.png","disgust","1","15","15","PuOr","orientDef","scaleDef","090","",""
"","","","","","html-slider-response","26","197472","0.0-20.0","tbvwfrjhy3","59","NaN","<div style=""width:500px;"">
                            <p style=""font-size:50px; font-weight:bold;""
                            >disgust</p>
                            <div style=""width:240px; margin: auto;"">
                                <img src=""images/map10_OrRd_scaleRev_orientDef_000.png"" style= ""width:200px""alt=""img"">
                            </div>
                        </div>","110","","0","","","","images/map10_OrRd_scaleRev_orientDef_000.png","disgust","1","10","10","OrRd","orientDef","scaleRev","000","",""
"","","","","","html-slider-response","27","199606","0.0-21.0","tbvwfrjhy3","59","NaN","<div style=""width:500px;"">
                            <p style=""font-size:50px; font-weight:bold;""
                            >disgust</p>
                            <div style=""width:240px; margin: auto;"">
                                <img src=""images/map13_PiYG_scaleDef_orientDef_270.png"" style= ""width:200px""alt=""img"">
                            </div>
                        </div>","42","","0","","","","images/map13_PiYG_scaleDef_orientDef_270.png","disgust","1","13","13","PiYG","orientDef","scaleDef","270","",""
"","","","","","html-slider-response","28","201322","0.0-22.0","tbvwfrjhy3","59","NaN","<div style=""width:500px;"">
                            <p style=""font-size:50px; font-weight:bold;""
                            >disgust</p>
                            <div style=""width:240px; margin: auto;"">
                                <img src=""images/map10_PuRd_scaleRev_orientDef_180.png"" style= ""width:200px""alt=""img"">
                            </div>
                        </div>","-64","","0","","","","images/map10_PuRd_scaleRev_orientDef_180.png","disgust","1","10","10","PuRd","orientDef","scaleRev","180","",""
"","","","","","html-slider-response","29","203941","0.0-23.0","tbvwfrjhy3","59","NaN","<div style=""width:500px;"">
                            <p style=""font-size:50px; font-weight:bold;""
                            >disgust</p>
                            <div style=""width:240px; margin: auto;"">
                                <img src=""images/map26_berlin_scaleDef_orientDef_270.png"" style= ""width:200px""alt=""img"">
                            </div>
                        </div>","-138","","0","","","","images/map26_berlin_scaleDef_orientDef_270.png","disgust","1","26","26","berlin","orientDef","scaleDef","270","",""
"","","","","","html-slider-response","30","206055","0.0-24.0","tbvwfrjhy3","59","NaN","<div style=""width:500px;"">
                            <p style=""font-size:50px; font-weight:bold;""
                            >disgust</p>
                            <div style=""width:240px; margin: auto;"">
                                <img src=""images/map27_turbo_scaleRev_orientMir_000.png"" style= ""width:200px""alt=""img"">
                            </div>
                        </div>","-135","","0","","","","images/map27_turbo_scaleRev_orientMir_000.png","disgust","1","27","27","turbo","orientMir","scaleRev","000","",""
"","","","","","html-slider-response","31","208239","0.0-25.0","tbvwfrjhy3","59","NaN","<div style=""width:500px;"">
                            <p style=""font-size:50px; font-weight:bold;""
                            >disgust</p>
                            <div style=""width:240px; margin: auto;"">
                                <img src=""images/map23_Spectral_scaleDef_orientDef_270.png"" style= ""width:200px""alt=""img"">
                            </div>
                        </div>","57","","0","","","","images/map23_Spectral_scaleDef_orientDef_270.png","disgust","1","23","23","Spectral","orientDef","scaleDef","270","",""
"","","","","","html-slider-response","32","210005","0.0-26.0","tbvwfrjhy3","59","NaN","<div style=""width:500px;"">
                            <p style=""font-size:50px; font-weight:bold;""
                            >disgust</p>
                            <div style=""width:240px; margin: auto;"">
                                <img src=""images/map26_managua_scaleDef_orientMir_090.png"" style= ""width:200px""alt=""img"">
                            </div>
                        </div>","-99","","0","","","","images/map26_managua_scaleDef_orientMir_090.png","disgust","1","26","26","managua","orientMir","scaleDef","090","",""
"","","","","","html-slider-response","33","211689","0.0-27.0","tbvwfrjhy3","59","NaN","<div style=""width:500px;"">
                            <p style=""font-size:50px; font-weight:bold;""
                            >disgust</p>
                            <div style=""width:240px; margin: auto;"">
                                <img src=""images/map07_YlOrBr_scaleRev_orientMir_000.png"" style= ""width:200px""alt=""img"">
                            </div>
                        </div>","34","","0","","","","images/map07_YlOrBr_scaleRev_orientMir_000.png","disgust","1","07","07","YlOrBr","orientMir","scaleRev","000","",""
"","","","","","html-slider-response","34","213354","0.0-28.0","tbvwfrjhy3","59","NaN","<div style=""width:500px;"">
                            <p style=""font-size:50px; font-weight:bold;""
                            >disgust</p>
                            <div style=""width:240px; margin: auto;"">
                                <img src=""images/map26_berlin_scaleRev_orientMir_000.png"" style= ""width:200px""alt=""img"">
                            </div>
                        </div>","-117","","0","","","","images/map26_berlin_scaleRev_orientMir_000.png","disgust","1","26","26","berlin","orientMir","scaleRev","000","",""
"","","","","","html-slider-response","35","215105","0.0-29.0","tbvwfrjhy3","59","NaN","<div style=""width:500px;"">
                            <p style=""font-size:50px; font-weight:bold;""
                            >disgust</p>
                            <div style=""width:240px; margin: auto;"">
                                <img src=""images/map12_PuBuGn_scaleDef_orientMir_090.png"" style= ""width:200px""alt=""img"">
                            </div>
                        </div>","-97","","0","","","","images/map12_PuBuGn_scaleDef_orientMir_090.png","disgust","1","12","12","PuBuGn","orientMir","scaleDef","090","",""
"","","","","","html-slider-response","36","216789","0.0-30.0","tbvwfrjhy3","59","NaN","<div style=""width:500px;"">
                            <p style=""font-size:50px; font-weight:bold;""
                            >disgust</p>
                            <div style=""width:240px; margin: auto;"">
                                <img src=""images/map10_GnBu_scaleDef_orientMir_270.png"" style= ""width:200px""alt=""img"">
                            </div>
                        </div>","-124","","0","","","","images/map10_GnBu_scaleDef_orientMir_270.png","disgust","1","10","10","GnBu","orientMir","scaleDef","270","",""
"","","","","","html-slider-response","37","218638","0.0-31.0","tbvwfrjhy3","59","NaN","<div style=""width:500px;"">
                            <p style=""font-size:50px; font-weight:bold;""
                            >disgust</p>
                            <div style=""width:240px; margin: auto;"">
                                <img src=""images/map15_RdGy_scaleDef_orientDef_270.png"" style= ""width:200px""alt=""img"">
                            </div>
                        </div>","11","","0","","","","images/map15_RdGy_scaleDef_orientDef_270.png","disgust","1","15","15","RdGy","orientDef","scaleDef","270","",""
"","","","","","html-slider-response","38","220337","0.0-32.0","tbvwfrjhy3","59","NaN","<div style=""width:500px;"">
                            <p style=""font-size:50px; font-weight:bold;""
                            >disgust</p>
                            <div style=""width:240px; margin: auto;"">
                                <img src=""images/map27_gist_earth_scaleDef_orientDef_090.png"" style= ""width:200px""alt=""img"">
                            </div>
                        </div>","8","","0","","","","images/map27_gist_earth_scaleDef_orientDef_090.png","disgust","1","27","27","gist","scaleDef","earth","orientDef","",""
"","","","","","html-slider-response","39","221889","0.0-33.0","tbvwfrjhy3","59","NaN","<div style=""width:500px;"">
                            <p style=""font-size:50px; font-weight:bold;""
                            >disgust</p>
                            <div style=""width:240px; margin: auto;"">
                                <img src=""images/map05_Greys_scaleRev_orientDef_000.png"" style= ""width:200px""alt=""img"">
                            </div>
                        </div>","-198","","0","","","","images/map05_Greys_scaleRev_orientDef_000.png","disgust","1","05","05","Greys","orientDef","scaleRev","000","",""
"","","","","","html-slider-response","40","223754","0.0-34.0","tbvwfrjhy3","59","NaN","<div style=""width:500px;"">
                            <p style=""font-size:50px; font-weight:bold;""
                            >disgust</p>
                            <div style=""width:240px; margin: auto;"">
                                <img src=""images/map13_PRGn_scaleRev_orientMir_180.png"" style= ""width:200px""alt=""img"">
                            </div>
                        </div>","17","","0","","","","images/map13_PRGn_scaleRev_orientMir_180.png","disgust","1","13","13","PRGn","orientMir","scaleRev","180","",""
"","","","","","html-slider-response","41","225222","0.0-35.0","tbvwfrjhy3","59","NaN","<div style=""width:500px;"">
                            <p style=""font-size:50px; font-weight:bold;""
                            >disgust</p>
                            <div style=""width:240px; margin: auto;"">
                                <img src=""images/map12_YlGnBu_scaleRev_orientMir_000.png"" style= ""width:200px""alt=""img"">
                            </div>
                        </div>","-200","","0","","","","images/map12_YlGnBu_scaleRev_orientMir_000.png","disgust","1","12","12","YlGnBu","orientMir","scaleRev","000","",""
"","","","","","html-slider-response","42","227140","0.0-36.0","tbvwfrjhy3","59","NaN","<div style=""width:500px;"">
                            <p style=""font-size:50px; font-weight:bold;""
                            >disgust</p>
                            <div style=""width:240px; margin: auto;"">
                                <img src=""images/map02_cividis_scaleRev_orientMir_180.png"" style= ""width:200px""alt=""img"">
                            </div>
                        </div>","-200","","0","","","","images/map02_cividis_scaleRev_orientMir_180.png","disgust","1","02","02","cividis","orientMir","scaleRev","180","",""
"","","","","","html-slider-response","43","228755","0.0-37.0","tbvwfrjhy3","59","NaN","<div style=""width:500px;"">
                            <p style=""font-size:50px; font-weight:bold;""
                            >disgust</p>
                            <div style=""width:240px; margin: auto;"">
                                <img src=""images/map10_RdPu_scaleRev_orientMir_000.png"" style= ""width:200px""alt=""img"">
                            </div>
                        </div>","-82","","0","","","","images/map10_RdPu_scaleRev_orientMir_000.png","disgust","1","10","10","RdPu","orientMir","scaleRev","000","",""
"","","","","","html-slider-response","44","230255","0.0-38.0","tbvwfrjhy3","59","NaN","<div style=""width:500px;"">
                            <p style=""font-size:50px; font-weight:bold;""
                            >disgust</p>
                            <div style=""width:240px; margin: auto;"">
                                <img src=""images/map02_magma_scaleRev_orientMir_000.png"" style= ""width:200px""alt=""img"">
                            </div>
                        </div>","-98","","0","","","","images/map02_magma_scaleRev_orientMir_000.png","disgust","1","02","02","magma","orientMir","scaleRev","000","",""
"","","","","","html-slider-response","45","231887","0.0-39.0","tbvwfrjhy3","59","NaN","<div style=""width:500px;"">
                            <p style=""font-size:50px; font-weight:bold;""
                            >disgust</p>
                            <div style=""width:240px; margin: auto;"">
                                <img src=""images/map02_magma_scaleDef_orientDef_270.png"" style= ""width:200px""alt=""img"">
                            </div>
                        </div>","-104","","0","","","","images/map02_magma_scaleDef_orientDef_270.png","disgust","1","02","02","magma","orientDef","scaleDef","270","",""
"","","","","","html-slider-response","46","233805","0.0-40.0","tbvwfrjhy3","59","NaN","<div style=""width:500px;"">
                            <p style=""font-size:50px; font-weight:bold;""
                            >disgust</p>
                            <div style=""width:240px; margin: auto;"">
                                <img src=""images/map12_PuBu_scaleRev_orientDef_180.png"" style= ""width:200px""alt=""img"">
                            </div>
                        </div>","-190","","0","","","","images/map12_PuBu_scaleRev_orientDef_180.png","disgust","1","12","12","PuBu","orientDef","scaleRev","180","",""
"","","","","","html-slider-response","47","235520","0.0-41.0","tbvwfrjhy3","59","NaN","<div style=""width:500px;"">
                            <p style=""font-size:50px; font-weight:bold;""
                            >disgust</p>
                            <div style=""width:240px; margin: auto;"">
                                <img src=""images/map07_YlOrRd_scaleRev_orientMir_180.png"" style= ""width:200px""alt=""img"">
                            </div>
                        </div>","22","","0","","","","images/map07_YlOrRd_scaleRev_orientMir_180.png","disgust","1","07","07","YlOrRd","orientMir","scaleRev","180","",""
"","","","","","html-slider-response","48","236971","0.0-42.0","tbvwfrjhy3","59","NaN","<div style=""width:500px;"">
                            <p style=""font-size:50px; font-weight:bold;""
                            >disgust</p>
                            <div style=""width:240px; margin: auto;"">
                                <img src=""images/map13_PRGn_scaleDef_orientMir_090.png"" style= ""width:200px""alt=""img"">
                            </div>
                        </div>","18","","0","","","","images/map13_PRGn_scaleDef_orientMir_090.png","disgust","1","13","13","PRGn","orientMir","scaleDef","090","",""
"","","","","","html-slider-response","49","238389","0.0-43.0","tbvwfrjhy3","59","NaN","<div style=""width:500px;"">
                            <p style=""font-size:50px; font-weight:bold;""
                            >disgust</p>
                            <div style=""width:240px; margin: auto;"">
                                <img src=""images/map13_PiYG_scaleRev_orientMir_000.png"" style= ""width:200px""alt=""img"">
                            </div>
                        </div>","35","","0","","","","images/map13_PiYG_scaleRev_orientMir_000.png","disgust","1","13","13","PiYG","orientMir","scaleRev","000","",""
"","","","","","html-slider-response","50","240074","0.0-44.0","tbvwfrjhy3","59","NaN","<div style=""width:500px;"">
                            <p style=""font-size:50px; font-weight:bold;""
                            >disgust</p>
                            <div style=""width:240px; margin: auto;"">
                                <img src=""images/map07_Reds_scaleDef_orientDef_090.png"" style= ""width:200px""alt=""img"">
                            </div>
                        </div>","-108","","0","","","","images/map07_Reds_scaleDef_orientDef_090.png","disgust","1","07","07","Reds","orientDef","scaleDef","090","",""
"","","","","","html-slider-response","51","241639","0.0-45.0","tbvwfrjhy3","59","NaN","<div style=""width:500px;"">
                            <p style=""font-size:50px; font-weight:bold;""
                            >disgust</p>
                            <div style=""width:240px; margin: auto;"">
                                <img src=""images/map27_gist_earth_scaleRev_orientDef_180.png"" style= ""width:200px""alt=""img"">
                            </div>
                        </div>","23","","0","","","","images/map27_gist_earth_scaleRev_orientDef_180.png","disgust","1","27","27","gist","scaleRev","earth","orientDef","",""
"","","","","","html-slider-response","52","243725","0.0-46.0","tbvwfrjhy3","59","NaN","<div style=""width:500px;"">
                            <p style=""font-size:50px; font-weight:bold;""
                            >disgust</p>
                            <div style=""width:240px; margin: auto;"">
                                <img src=""images/map23_bwr_scaleDef_orientMir_270.png"" style= ""width:200px""alt=""img"">
                            </div>
                        </div>","-75","","0","","","","images/map23_bwr_scaleDef_orientMir_270.png","disgust","1","23","23","bwr","orientMir","scaleDef","270","",""
"","","","","","html-slider-response","53","245390","0.0-47.0","tbvwfrjhy3","59","NaN","<div style=""width:500px;"">
                            <p style=""font-size:50px; font-weight:bold;""
                            >disgust</p>
                            <div style=""width:240px; margin: auto;"">
                                <img src=""images/map15_RdYlBu_scaleDef_orientMir_270.png"" style= ""width:200px""alt=""img"">
                            </div>
                        </div>","-66","","0","","","","images/map15_RdYlBu_scaleDef_orientMir_270.png","disgust","1","15","15","RdYlBu","orientMir","scaleDef","270","",""
"","","","","","html-slider-response","54","246755","0.0-48.0","tbvwfrjhy3","59","NaN","<div style=""width:500px;"">
                            <p style=""font-size:50px; font-weight:bold;""
                            >disgust</p>
                            <div style=""width:240px; margin: auto;"">
                                <img src=""images/map23_RdYlGn_scaleRev_orientDef_180.png"" style= ""width:200px""alt=""img"">
                            </div>
                        </div>","19","","0","","","","images/map23_RdYlGn_scaleRev_orientDef_180.png","disgust","1","23","23","RdYlGn","orientDef","scaleRev","180","",""
"","","","","","html-slider-response","55","248188","0.0-49.0","tbvwfrjhy3","59","NaN","<div style=""width:500px;"">
                            <p style=""font-size:50px; font-weight:bold;""
                            >disgust</p>
                            <div style=""width:240px; margin: auto;"">
                                <img src=""images/map15_BrBG_scaleRev_orientDef_000.png"" style= ""width:200px""alt=""img"">
                            </div>
                        </div>","21","","0","","","","images/map15_BrBG_scaleRev_orientDef_000.png","disgust","1","15","15","BrBG","orientDef","scaleRev","000","",""
"","","","","","html-slider-response","56","249771","0.0-50.0","tbvwfrjhy3","59","NaN","<div style=""width:500px;"">
                            <p style=""font-size:50px; font-weight:bold;""
                            >disgust</p>
                            <div style=""width:240px; margin: auto;"">
                                <img src=""images/map26_bwr_scaleRev_orientDef_000.png"" style= ""width:200px""alt=""img"">
                            </div>
                        </div>","-82","","0","","","","images/map26_bwr_scaleRev_orientDef_000.png","disgust","1","26","26","bwr","orientDef","scaleRev","000","",""
"","","","","","html-slider-response","57","251520","0.0-51.0","tbvwfrjhy3","59","NaN","<div style=""width:500px;"">
                            <p style=""font-size:50px; font-weight:bold;""
                            >disgust</p>
                            <div style=""width:240px; margin: auto;"">
                                <img src=""images/map15_PuOr_scaleRev_orientDef_180.png"" style= ""width:200px""alt=""img"">
                            </div>
                        </div>","-30","","0","","","","images/map15_PuOr_scaleRev_orientDef_180.png","disgust","1","15","15","PuOr","orientDef","scaleRev","180","",""
"","","","","","html-slider-response","58","253470","0.0-52.0","tbvwfrjhy3","59","NaN","<div style=""width:500px;"">
                            <p style=""font-size:50px; font-weight:bold;""
                            >disgust</p>
                            <div style=""width:240px; margin: auto;"">
                                <img src=""images/map07_YlOrRd_scaleDef_orientMir_090.png"" style= ""width:200px""alt=""img"">
                            </div>
                        </div>","-39","","0","","","","images/map07_YlOrRd_scaleDef_orientMir_090.png","disgust","1","07","07","YlOrRd","orientMir","scaleDef","090","",""
"","","","","","html-slider-response","59","255153","0.0-53.0","tbvwfrjhy3","59","NaN","<div style=""width:500px;"">
                            <p style=""font-size:50px; font-weight:bold;""
                            >disgust</p>
                            <div style=""width:240px; margin: auto;"">
                                <img src=""images/map27_vanimo_scaleRev_orientDef_000.png"" style= ""width:200px""alt=""img"">
                            </div>
                        </div>","12","","0","","","","images/map27_vanimo_scaleRev_orientDef_000.png","disgust","1","27","27","vanimo","orientDef","scaleRev","000","",""
"","","","","","html-button-response","60","258577","0.0-54.0","tbvwfrjhy3","59","2921","<p>You are doing great!<br></br> You are halway done with the current block. When you are ready to continue, click the 'Continue' button.</p>","0","","","","","","","","","","","","","","","",""
"","","","","","html-slider-response","61","261036","0.0-55.0","tbvwfrjhy3","59","NaN","<div style=""width:500px;"">
                            <p style=""font-size:50px; font-weight:bold;""
                            >disgust</p>
                            <div style=""width:240px; margin: auto;"">
                                <img src=""images/map05_Blues_scaleDef_orientDef_270.png"" style= ""width:200px""alt=""img"">
                            </div>
                        </div>","-56","","0","","","","images/map05_Blues_scaleDef_orientDef_270.png","disgust","1","05","05","Blues","orientDef","scaleDef","270","",""
"","","","","","html-slider-response","62","262637","0.0-56.0","tbvwfrjhy3","59","NaN","<div style=""width:500px;"">
                            <p style=""font-size:50px; font-weight:bold;""
                            >disgust</p>
                            <div style=""width:240px; margin: auto;"">
                                <img src=""images/map13_BuGn_scaleRev_orientDef_000.png"" style= ""width:200px""alt=""img"">
                            </div>
                        </div>","22","","0","","","","images/map13_BuGn_scaleRev_orientDef_000.png","disgust","1","13","13","BuGn","orientDef","scaleRev","000","",""
"","","","","","html-slider-response","63","264023","0.0-57.0","tbvwfrjhy3","59","NaN","<div style=""width:500px;"">
                            <p style=""font-size:50px; font-weight:bold;""
                            >disgust</p>
                            <div style=""width:240px; margin: auto;"">
                                <img src=""images/map13_YlGn_scaleRev_orientDef_180.png"" style= ""width:200px""alt=""img"">
                            </div>
                        </div>","13","","0","","","","images/map13_YlGn_scaleRev_orientDef_180.png","disgust","1","13","13","YlGn","orientDef","scaleRev","180","",""
"","","","","","html-slider-response","64","265471","0.0-58.0","tbvwfrjhy3","59","NaN","<div style=""width:500px;"">
                            <p style=""font-size:50px; font-weight:bold;""
                            >disgust</p>
                            <div style=""width:240px; margin: auto;"">
                                <img src=""images/map23_RdYlGn_scaleDef_orientDef_090.png"" style= ""width:200px""alt=""img"">
                            </div>
                        </div>","11","","0","","","","images/map23_RdYlGn_scaleDef_orientDef_090.png","disgust","1","23","23","RdYlGn","orientDef","scaleDef","090","",""
"","","","","","html-slider-response","65","266786","0.0-59.0","tbvwfrjhy3","59","NaN","<div style=""width:500px;"">
                            <p style=""font-size:50px; font-weight:bold;""
                            >disgust</p>
                            <div style=""width:240px; margin: auto;"">
                                <img src=""images/map13_BrBG_scaleDef_orientMir_270.png"" style= ""width:200px""alt=""img"">
                            </div>
                        </div>","-84","","0","","","","images/map13_BrBG_scaleDef_orientMir_270.png","disgust","1","13","13","BrBG","orientMir","scaleDef","270","",""
"","","","","","html-slider-response","66","268355","0.0-60.0","tbvwfrjhy3","59","NaN","<div style=""width:500px;"">
                            <p style=""font-size:50px; font-weight:bold;""
                            >disgust</p>
                            <div style=""width:240px; margin: auto;"">
                                <img src=""images/map26_managua_scaleRev_orientMir_180.png"" style= ""width:200px""alt=""img"">
                            </div>
                        </div>","-84","","0","","","","images/map26_managua_scaleRev_orientMir_180.png","disgust","1","26","26","managua","orientMir","scaleRev","180","",""
"","","","","","html-slider-response","67","269804","0.0-61.0","tbvwfrjhy3","59","NaN","<div style=""width:500px;"">
                            <p style=""font-size:50px; font-weight:bold;""
                            >disgust</p>
                            <div style=""width:240px; margin: auto;"">
                                <img src=""images/map05_Oranges_scaleDef_orientMir_270.png"" style= ""width:200px""alt=""img"">
                            </div>
                        </div>","-97","","0","","","","images/map05_Oranges_scaleDef_orientMir_270.png","disgust","1","05","05","Oranges","orientMir","scaleDef","270","",""
"","","","","","html-slider-response","68","271286","0.0-62.0","tbvwfrjhy3","59","NaN","<div style=""width:500px;"">
                            <p style=""font-size:50px; font-weight:bold;""
                            >disgust</p>
                            <div style=""width:240px; margin: auto;"">
                                <img src=""images/map26_vanimo_scaleDef_orientMir_270.png"" style= ""width:200px""alt=""img"">
                            </div>
                        </div>","82","","0","","","","images/map26_vanimo_scaleDef_orientMir_270.png","disgust","1","26","26","vanimo","orientMir","scaleDef","270","",""
"","","","","","html-slider-response","69","272555","0.0-63.0","tbvwfrjhy3","59","NaN","<div style=""width:500px;"">
                            <p style=""font-size:50px; font-weight:bold;""
                            >disgust</p>
                            <div style=""width:240px; margin: auto;"">
                                <img src=""images/map26_seismic_scaleRev_orientDef_180.png"" style= ""width:200px""alt=""img"">
                            </div>
                        </div>","-94","","0","","","","images/map26_seismic_scaleRev_orientDef_180.png","disgust","1","26","26","seismic","orientDef","scaleRev","180","",""
"","","","","","html-slider-response","70","274271","0.0-64.0","tbvwfrjhy3","59","NaN","<div style=""width:500px;"">
                            <p style=""font-size:50px; font-weight:bold;""
                            >disgust</p>
                            <div style=""width:240px; margin: auto;"">
                                <img src=""images/map05_Greens_scaleDef_orientMir_090.png"" style= ""width:200px""alt=""img"">
                            </div>
                        </div>","70","","0","","","","images/map05_Greens_scaleDef_orientMir_090.png","disgust","1","05","05","Greens","orientMir","scaleDef","090","",""
"","","","","","html-slider-response","71","275803","0.0-65.0","tbvwfrjhy3","59","NaN","<div style=""width:500px;"">
                            <p style=""font-size:50px; font-weight:bold;""
                            >disgust</p>
                            <div style=""width:240px; margin: auto;"">
                                <img src=""images/map02_plasma_scaleRev_orientDef_000.png"" style= ""width:200px""alt=""img"">
                            </div>
                        </div>","-64","","0","","","","images/map02_plasma_scaleRev_orientDef_000.png","disgust","1","02","02","plasma","orientDef","scaleRev","000","",""
"","","","","","html-slider-response","72","277287","0.0-66.0","tbvwfrjhy3","59","NaN","<div style=""width:500px;"">
                            <p style=""font-size:50px; font-weight:bold;""
                            >disgust</p>
                            <div style=""width:240px; margin: auto;"">
                                <img src=""images/map27_viridis_scaleDef_orientMir_090.png"" style= ""width:200px""alt=""img"">
                            </div>
                        </div>","44","","0","","","","images/map27_viridis_scaleDef_orientMir_090.png","disgust","1","27","27","viridis","orientMir","scaleDef","090","",""
"","","","","","html-slider-response","73","279453","0.0-67.0","tbvwfrjhy3","59","NaN","<div style=""width:500px;"">
                            <p style=""font-size:50px; font-weight:bold;""
                            >disgust</p>
                            <div style=""width:240px; margin: auto;"">
                                <img src=""images/map15_RdGy_scaleRev_orientMir_000.png"" style= ""width:200px""alt=""img"">
                            </div>
                        </div>","-28","","0","","","","images/map15_RdGy_scaleRev_orientMir_000.png","disgust","1","15","15","RdGy","orientMir","scaleRev","000","",""
"","","","","","html-slider-response","74","280853","0.0-68.0","tbvwfrjhy3","59","NaN","<div style=""width:500px;"">
                            <p style=""font-size:50px; font-weight:bold;""
                            >disgust</p>
                            <div style=""width:240px; margin: auto;"">
                                <img src=""images/map05_Purples_scaleRev_orientDef_180.png"" style= ""width:200px""alt=""img"">
                            </div>
                        </div>","-90","","0","","","","images/map05_Purples_scaleRev_orientDef_180.png","disgust","1","05","05","Purples","orientDef","scaleRev","180","",""
"","","","","","html-slider-response","75","282404","0.0-69.0","tbvwfrjhy3","59","NaN","<div style=""width:500px;"">
                            <p style=""font-size:50px; font-weight:bold;""
                            >disgust</p>
                            <div style=""width:240px; margin: auto;"">
                                <img src=""images/map13_YlGn_scaleDef_orientDef_090.png"" style= ""width:200px""alt=""img"">
                            </div>
                        </div>","34","","0","","","","images/map13_YlGn_scaleDef_orientDef_090.png","disgust","1","13","13","YlGn","orientDef","scaleDef","090","",""
"","","","","","html-slider-response","76","283719","0.0-70.0","tbvwfrjhy3","59","NaN","<div style=""width:500px;"">
                            <p style=""font-size:50px; font-weight:bold;""
                            >disgust</p>
                            <div style=""width:240px; margin: auto;"">
                                <img src=""images/map07_YlOrBr_scaleDef_orientDef_270.png"" style= ""width:200px""alt=""img"">
                            </div>
                        </div>","-114","","0","","","","images/map07_YlOrBr_scaleDef_orientDef_270.png","disgust","1","07","07","YlOrBr","orientDef","scaleDef","270","",""
"","","","","","html-slider-response","77","285138","0.0-71.0","tbvwfrjhy3","59","NaN","<div style=""width:500px;"">
                            <p style=""font-size:50px; font-weight:bold;""
                            >disgust</p>
                            <div style=""width:240px; margin: auto;"">
                                <img src=""images/map27_viridis_scaleRev_orientMir_180.png"" style= ""width:200px""alt=""img"">
                            </div>
                        </div>","39","","0","","","","images/map27_viridis_scaleRev_orientMir_180.png","disgust","1","27","27","viridis","orientMir","scaleRev","180","",""
"","","","","","html-slider-response","78","286370","0.0-72.0","tbvwfrjhy3","59","NaN","<div style=""width:500px;"">
                            <p style=""font-size:50px; font-weight:bold;""
                            >disgust</p>
                            <div style=""width:240px; margin: auto;"">
                                <img src=""images/map23_coolwarm_scaleDef_orientMir_090.png"" style= ""width:200px""alt=""img"">
                            </div>
                        </div>","-82","","0","","","","images/map23_coolwarm_scaleDef_orientMir_090.png","disgust","1","23","23","coolwarm","orientMir","scaleDef","090","",""
"","","","","","html-slider-response","79","287855","0.0-73.0","tbvwfrjhy3","59","NaN","<div style=""width:500px;"">
                            <p style=""font-size:50px; font-weight:bold;""
                            >disgust</p>
                            <div style=""width:240px; margin: auto;"">
                                <img src=""images/map12_PuBuGn_scaleRev_orientMir_180.png"" style= ""width:200px""alt=""img"">
                            </div>
                        </div>","-151","","0","","","","images/map12_PuBuGn_scaleRev_orientMir_180.png","disgust","1","12","12","PuBuGn","orientMir","scaleRev","180","",""
"","","","","","html-slider-response","80","289404","0.0-74.0","tbvwfrjhy3","59","NaN","<div style=""width:500px;"">
                            <p style=""font-size:50px; font-weight:bold;""
                            >disgust</p>
                            <div style=""width:240px; margin: auto;"">
                                <img src=""images/map10_PuRd_scaleDef_orientDef_090.png"" style= ""width:200px""alt=""img"">
                            </div>
                        </div>","-97","","0","","","","images/map10_PuRd_scaleDef_orientDef_090.png","disgust","1","10","10","PuRd","orientDef","scaleDef","090","",""
"","","","","","html-slider-response","81","290804","0.0-75.0","tbvwfrjhy3","59","NaN","<div style=""width:500px;"">
                            <p style=""font-size:50px; font-weight:bold;""
                            >disgust</p>
                            <div style=""width:240px; margin: auto;"">
                                <img src=""images/map27_turbo_scaleDef_orientDef_270.png"" style= ""width:200px""alt=""img"">
                            </div>
                        </div>","24","","0","","","","images/map27_turbo_scaleDef_orientDef_270.png","disgust","1","27","27","turbo","orientDef","scaleDef","270","",""
"","","","","","html-slider-response","82","292603","0.0-76.0","tbvwfrjhy3","59","NaN","<div style=""width:500px;"">
                            <p style=""font-size:50px; font-weight:bold;""
                            >disgust</p>
                            <div style=""width:240px; margin: auto;"">
                                <img src=""images/map23_Spectral_scaleRev_orientMir_000.png"" style= ""width:200px""alt=""img"">
                            </div>
                        </div>","26","","0","","","","images/map23_Spectral_scaleRev_orientMir_000.png","disgust","1","23","23","Spectral","orientMir","scaleRev","000","",""
"","","","","","html-slider-response","83","293871","0.0-77.0","tbvwfrjhy3","59","NaN","<div style=""width:500px;"">
                            <p style=""font-size:50px; font-weight:bold;""
                            >disgust</p>
                            <div style=""width:240px; margin: auto;"">
                                <img src=""images/map27_plasma_scaleDef_orientMir_270.png"" style= ""width:200px""alt=""img"">
                            </div>
                        </div>","-126","","0","","","","images/map27_plasma_scaleDef_orientMir_270.png","disgust","1","27","27","plasma","orientMir","scaleDef","270","",""
"","","","","","html-slider-response","84","295470","0.0-78.0","tbvwfrjhy3","59","NaN","<div style=""width:500px;"">
                            <p style=""font-size:50px; font-weight:bold;""
                            >disgust</p>
                            <div style=""width:240px; margin: auto;"">
                                <img src=""images/map15_RdBu_scaleDef_orientMir_090.png"" style= ""width:200px""alt=""img"">
                            </div>
                        </div>","-89","","0","","","","images/map15_RdBu_scaleDef_orientMir_090.png","disgust","1","15","15","RdBu","orientMir","scaleDef","090","",""
"","","","","","html-slider-response","85","297004","0.0-79.0","tbvwfrjhy3","59","NaN","<div style=""width:500px;"">
                            <p style=""font-size:50px; font-weight:bold;""
                            >disgust</p>
                            <div style=""width:240px; margin: auto;"">
                                <img src=""images/map15_RdBu_scaleRev_orientMir_180.png"" style= ""width:200px""alt=""img"">
                            </div>
                        </div>","-150","","0","","","","images/map15_RdBu_scaleRev_orientMir_180.png","disgust","1","15","15","RdBu","orientMir","scaleRev","180","",""
"","","","","","html-slider-response","86","298504","0.0-80.0","tbvwfrjhy3","59","NaN","<div style=""width:500px;"">
                            <p style=""font-size:50px; font-weight:bold;""
                            >disgust</p>
                            <div style=""width:240px; margin: auto;"">
                                <img src=""images/map05_Blues_scaleRev_orientMir_000.png"" style= ""width:200px""alt=""img"">
                            </div>
                        </div>","-98","","0","","","","images/map05_Blues_scaleRev_orientMir_000.png","disgust","1","05","05","Blues","orientMir","scaleRev","000","",""
"","","","","","html-slider-response","87","299971","0.0-81.0","tbvwfrjhy3","59","NaN","<div style=""width:500px;"">
                            <p style=""font-size:50px; font-weight:bold;""
                            >disgust</p>
                            <div style=""width:240px; margin: auto;"">
                                <img src=""images/map07_OrRd_scaleDef_orientMir_270.png"" style= ""width:200px""alt=""img"">
                            </div>
                        </div>","-37","","0","","","","images/map07_OrRd_scaleDef_orientMir_270.png","disgust","1","07","07","OrRd","orientMir","scaleDef","270","",""
"","","","","","html-slider-response","88","301538","0.0-82.0","tbvwfrjhy3","59","NaN","<div style=""width:500px;"">
                            <p style=""font-size:50px; font-weight:bold;""
                            >disgust</p>
                            <div style=""width:240px; margin: auto;"">
                                <img src=""images/map02_cividis_scaleDef_orientMir_090.png"" style= ""width:200px""alt=""img"">
                            </div>
                        </div>","-86","","0","","","","images/map02_cividis_scaleDef_orientMir_090.png","disgust","1","02","02","cividis","orientMir","scaleDef","090","",""
"","","","","","html-slider-response","89","303054","0.0-83.0","tbvwfrjhy3","59","NaN","<div style=""width:500px;"">
                            <p style=""font-size:50px; font-weight:bold;""
                            >disgust</p>
                            <div style=""width:240px; margin: auto;"">
                                <img src=""images/map05_Purples_scaleDef_orientDef_090.png"" style= ""width:200px""alt=""img"">
                            </div>
                        </div>","-128","","0","","","","images/map05_Purples_scaleDef_orientDef_090.png","disgust","1","05","05","Purples","orientDef","scaleDef","090","",""
"","","","","","html-slider-response","90","305020","0.0-84.0","tbvwfrjhy3","59","NaN","<div style=""width:500px;"">
                            <p style=""font-size:50px; font-weight:bold;""
                            >disgust</p>
                            <div style=""width:240px; margin: auto;"">
                                <img src=""images/map12_GnBu_scaleRev_orientDef_000.png"" style= ""width:200px""alt=""img"">
                            </div>
                        </div>","-60","","0","","","","images/map12_GnBu_scaleRev_orientDef_000.png","disgust","1","12","12","GnBu","orientDef","scaleRev","000","",""
"","","","","","html-slider-response","91","306537","0.0-85.0","tbvwfrjhy3","59","NaN","<div style=""width:500px;"">
                            <p style=""font-size:50px; font-weight:bold;""
                            >disgust</p>
                            <div style=""width:240px; margin: auto;"">
                                <img src=""images/map07_Reds_scaleRev_orientDef_180.png"" style= ""width:200px""alt=""img"">
                            </div>
                        </div>","-94","","0","","","","images/map07_Reds_scaleRev_orientDef_180.png","disgust","1","07","07","Reds","orientDef","scaleRev","180","",""
"","","","","","html-slider-response","92","308370","0.0-86.0","tbvwfrjhy3","59","NaN","<div style=""width:500px;"">
                            <p style=""font-size:50px; font-weight:bold;""
                            >disgust</p>
                            <div style=""width:240px; margin: auto;"">
                                <img src=""images/map23_coolwarm_scaleRev_orientMir_180.png"" style= ""width:200px""alt=""img"">
                            </div>
                        </div>","-112","","0","","","","images/map23_coolwarm_scaleRev_orientMir_180.png","disgust","1","23","23","coolwarm","orientMir","scaleRev","180","",""
"","","","","","html-slider-response","93","309954","0.0-87.0","tbvwfrjhy3","59","NaN","<div style=""width:500px;"">
                            <p style=""font-size:50px; font-weight:bold;""
                            >disgust</p>
                            <div style=""width:240px; margin: auto;"">
                                <img src=""images/map12_YlGnBu_scaleDef_orientDef_270.png"" style= ""width:200px""alt=""img"">
                            </div>
                        </div>","-114","","0","","","","images/map12_YlGnBu_scaleDef_orientDef_270.png","disgust","1","12","12","YlGnBu","orientDef","scaleDef","270","",""
"","","","","","html-slider-response","94","311319","0.0-88.0","tbvwfrjhy3","59","NaN","<div style=""width:500px;"">
                            <p style=""font-size:50px; font-weight:bold;""
                            >disgust</p>
                            <div style=""width:240px; margin: auto;"">
                                <img src=""images/map10_BuPu_scaleRev_orientMir_180.png"" style= ""width:200px""alt=""img"">
                            </div>
                        </div>","-103","","0","","","","images/map10_BuPu_scaleRev_orientMir_180.png","disgust","1","10","10","BuPu","orientMir","scaleRev","180","",""
"","","","","","html-slider-response","95","312637","0.0-89.0","tbvwfrjhy3","59","NaN","<div style=""width:500px;"">
                            <p style=""font-size:50px; font-weight:bold;""
                            >disgust</p>
                            <div style=""width:240px; margin: auto;"">
                                <img src=""images/map26_seismic_scaleDef_orientDef_090.png"" style= ""width:200px""alt=""img"">
                            </div>
                        </div>","-40","","0","","","","images/map26_seismic_scaleDef_orientDef_090.png","disgust","1","26","26","seismic","orientDef","scaleDef","090","",""
"","","","","","html-slider-response","96","314352","0.0-90.0","tbvwfrjhy3","59","NaN","<div style=""width:500px;"">
                            <p style=""font-size:50px; font-weight:bold;""
                            >disgust</p>
                            <div style=""width:240px; margin: auto;"">
                                <img src=""images/map02_inferno_scaleDef_orientDef_090.png"" style= ""width:200px""alt=""img"">
                            </div>
                        </div>","-59","","0","","","","images/map02_inferno_scaleDef_orientDef_090.png","disgust","1","02","02","inferno","orientDef","scaleDef","090","",""
"","","","","","html-slider-response","97","315970","0.0-91.0","tbvwfrjhy3","59","NaN","<div style=""width:500px;"">
                            <p style=""font-size:50px; font-weight:bold;""
                            >disgust</p>
                            <div style=""width:240px; margin: auto;"">
                                <img src=""images/map10_RdPu_scaleDef_orientDef_270.png"" style= ""width:200px""alt=""img"">
                            </div>
                        </div>","-173","","0","","","","images/map10_RdPu_scaleDef_orientDef_270.png","disgust","1","10","10","RdPu","orientDef","scaleDef","270","",""
"","","","","","html-slider-response","98","317470","0.0-92.0","tbvwfrjhy3","59","NaN","<div style=""width:500px;"">
                            <p style=""font-size:50px; font-weight:bold;""
                            >disgust</p>
                            <div style=""width:240px; margin: auto;"">
                                <img src=""images/map12_BuGn_scaleDef_orientMir_270.png"" style= ""width:200px""alt=""img"">
                            </div>
                        </div>","41","","0","","","","images/map12_BuGn_scaleDef_orientMir_270.png","disgust","1","12","12","BuGn","orientMir","scaleDef","270","",""
"","","","","","html-slider-response","99","319102","0.0-93.0","tbvwfrjhy3","59","NaN","<div style=""width:500px;"">
                            <p style=""font-size:50px; font-weight:bold;""
                            >disgust</p>
                            <div style=""width:240px; margin: auto;"">
                                <img src=""images/map05_Greens_scaleRev_orientMir_180.png"" style= ""width:200px""alt=""img"">
                            </div>
                        </div>","34","","0","","","","images/map05_Greens_scaleRev_orientMir_180.png","disgust","1","05","05","Greens","orientMir","scaleRev","180","",""
"","","","","","html-slider-response","100","321036","0.0-94.0","tbvwfrjhy3","59","NaN","<div style=""width:500px;"">
                            <p style=""font-size:50px; font-weight:bold;""
                            >disgust</p>
                            <div style=""width:240px; margin: auto;"">
                                <img src=""images/map02_Greys_scaleDef_orientMir_270.png"" style= ""width:200px""alt=""img"">
                            </div>
                        </div>","-55","","0","","","","images/map02_Greys_scaleDef_orientMir_270.png","disgust","1","02","02","Greys","orientMir","scaleDef","270","",""
"","","","","","html-button-response","101","322791","0.0-95.0","tbvwfrjhy3","59","1253","<p>Great Job! You've finished block 1.<br></br> You have 4 block(s) left to go.<br></br></p>","0","","","","","","","","","","","","","","","",""
"","","","","","html-button-response","102","324275","0.0-96.0","tbvwfrjhy3","59","1483","<p>In this block of trials, you will be asked to rate how much you associate each map with:</p > <p style = 'font-size:150%; font-weight: bold'>angry</p><br></br>","0","","","","","","","","","","","","","","","",""
"","","","","","html-slider-response","103","325836","0.0-97.0","tbvwfrjhy3","59","NaN","<div style=""width:500px;"">
                            <p style=""font-size:50px; font-weight:bold;""
                            >angry</p>
                            <div style=""width:240px; margin: auto;"">
                                <img src=""images/map15_RdBu_scaleRev_orientMir_180.png"" style= ""width:200px""alt=""img"">
                            </div>
                        </div>","49","","0","","","","images/map15_RdBu_scaleRev_orientMir_180.png","angry","1","15","15","RdBu","orientMir","scaleRev","180","",""
"","","","","","html-slider-response","104","327419","0.0-98.0","tbvwfrjhy3","59","NaN","<div style=""width:500px;"">
                            <p style=""font-size:50px; font-weight:bold;""
                            >angry</p>
                            <div style=""width:240px; margin: auto;"">
                                <img src=""images/map05_Purples_scaleDef_orientDef_090.png"" style= ""width:200px""alt=""img"">
                            </div>
                        </div>","-74","","0","","","","images/map05_Purples_scaleDef_orientDef_090.png","angry","1","05","05","Purples","orientDef","scaleDef","090","",""
"","","","","","html-slider-response","105","328685","0.0-99.0","tbvwfrjhy3","59","NaN","<div style=""width:500px;"">
                            <p style=""font-size:50px; font-weight:bold;""
                            >angry</p>
                            <div style=""width:240px; margin: auto;"">
                                <img src=""images/map07_YlOrBr_scaleDef_orientDef_270.png"" style= ""width:200px""alt=""img"">
                            </div>
                        </div>","104","","0","","","","images/map07_YlOrBr_scaleDef_orientDef_270.png","angry","1","07","07","YlOrBr","orientDef","scaleDef","270","",""
"","","","","","html-slider-response","106","330585","0.0-100.0","tbvwfrjhy3","59","NaN","<div style=""width:500px;"">
                            <p style=""font-size:50px; font-weight:bold;""
                            >angry</p>
                            <div style=""width:240px; margin: auto;"">
                                <img src=""images/map15_RdBu_scaleDef_orientMir_090.png"" style= ""width:200px""alt=""img"">
                            </div>
                        </div>","42","","0","","","","images/map15_RdBu_scaleDef_orientMir_090.png","angry","1","15","15","RdBu","orientMir","scaleDef","090","",""
"","","","","","html-slider-response","107","332919","0.0-101.0","tbvwfrjhy3","59","NaN","<div style=""width:500px;"">
                            <p style=""font-size:50px; font-weight:bold;""
                            >angry</p>
                            <div style=""width:240px; margin: auto;"">
                                <img src=""images/map10_PuRd_scaleDef_orientDef_090.png"" style= ""width:200px""alt=""img"">
                            </div>
                        </div>","19","","0","","","","images/map10_PuRd_scaleDef_orientDef_090.png","angry","1","10","10","PuRd","orientDef","scaleDef","090","",""
"","","","","","html-slider-response","108","335635","0.0-102.0","tbvwfrjhy3","59","NaN","<div style=""width:500px;"">
                            <p style=""font-size:50px; font-weight:bold;""
                            >angry</p>
                            <div style=""width:240px; margin: auto;"">
                                <img src=""images/map27_turbo_scaleRev_orientMir_000.png"" style= ""width:200px""alt=""img"">
                            </div>
                        </div>","50","","0","","","","images/map27_turbo_scaleRev_orientMir_000.png","angry","1","27","27","turbo","orientMir","scaleRev","000","",""
"","","","","","html-slider-response","109","337119","0.0-103.0","tbvwfrjhy3","59","NaN","<div style=""width:500px;"">
                            <p style=""font-size:50px; font-weight:bold;""
                            >angry</p>
                            <div style=""width:240px; margin: auto;"">
                                <img src=""images/map27_gist_earth_scaleRev_orientDef_180.png"" style= ""width:200px""alt=""img"">
                            </div>
                        </div>","-82","","0","","","","images/map27_gist_earth_scaleRev_orientDef_180.png","angry","1","27","27","gist","scaleRev","earth","orientDef","",""
"","","","","","html-slider-response","110","338635","0.0-104.0","tbvwfrjhy3","59","NaN","<div style=""width:500px;"">
                            <p style=""font-size:50px; font-weight:bold;""
                            >angry</p>
                            <div style=""width:240px; margin: auto;"">
                                <img src=""images/map05_Purples_scaleRev_orientDef_180.png"" style= ""width:200px""alt=""img"">
                            </div>
                        </div>","-141","","0","","","","images/map05_Purples_scaleRev_orientDef_180.png","angry","1","05","05","Purples","orientDef","scaleRev","180","",""
"","","","","","html-slider-response","111","339902","0.0-105.0","tbvwfrjhy3","59","NaN","<div style=""width:500px;"">
                            <p style=""font-size:50px; font-weight:bold;""
                            >angry</p>
                            <div style=""width:240px; margin: auto;"">
                                <img src=""images/map12_PuBuGn_scaleDef_orientMir_090.png"" style= ""width:200px""alt=""img"">
                            </div>
                        </div>","-114","","0","","","","images/map12_PuBuGn_scaleDef_orientMir_090.png","angry","1","12","12","PuBuGn","orientMir","scaleDef","090","",""
"","","","","","html-slider-response","112","341069","0.0-106.0","tbvwfrjhy3","59","NaN","<div style=""width:500px;"">
                            <p style=""font-size:50px; font-weight:bold;""
                            >angry</p>
                            <div style=""width:240px; margin: auto;"">
                                <img src=""images/map05_Blues_scaleRev_orientMir_000.png"" style= ""width:200px""alt=""img"">
                            </div>
                        </div>","-110","","0","","","","images/map05_Blues_scaleRev_orientMir_000.png","angry","1","05","05","Blues","orientMir","scaleRev","000","",""
"","","","","","html-slider-response","113","342885","0.0-107.0","tbvwfrjhy3","59","NaN","<div style=""width:500px;"">
                            <p style=""font-size:50px; font-weight:bold;""
                            >angry</p>
                            <div style=""width:240px; margin: auto;"">
                                <img src=""images/map02_inferno_scaleRev_orientDef_180.png"" style= ""width:200px""alt=""img"">
                            </div>
                        </div>","114","","0","","","","images/map02_inferno_scaleRev_orientDef_180.png","angry","1","02","02","inferno","orientDef","scaleRev","180","",""
"","","","","","html-slider-response","114","344503","0.0-108.0","tbvwfrjhy3","59","NaN","<div style=""width:500px;"">
                            <p style=""font-size:50px; font-weight:bold;""
                            >angry</p>
                            <div style=""width:240px; margin: auto;"">
                                <img src=""images/map12_BuGn_scaleDef_orientMir_270.png"" style= ""width:200px""alt=""img"">
                            </div>
                        </div>","-58","","0","","","","images/map12_BuGn_scaleDef_orientMir_270.png","angry","1","12","12","BuGn","orientMir","scaleDef","270","",""
"","","","","","html-slider-response","115","345935","0.0-109.0","tbvwfrjhy3","59","NaN","<div style=""width:500px;"">
                            <p style=""font-size:50px; font-weight:bold;""
                            >angry</p>
                            <div style=""width:240px; margin: auto;"">
                                <img src=""images/map27_viridis_scaleDef_orientMir_090.png"" style= ""width:200px""alt=""img"">
                            </div>
                        </div>","-17","","0","","","","images/map27_viridis_scaleDef_orientMir_090.png","angry","1","27","27","viridis","orientMir","scaleDef","090","",""
"","","","","","html-slider-response","116","347769","0.0-110.0","tbvwfrjhy3","59","NaN","<div style=""width:500px;"">
                            <p style=""font-size:50px; font-weight:bold;""
                            >angry</p>
                            <div style=""width:240px; margin: auto;"">
                                <img src=""images/map13_PRGn_scaleDef_orientMir_090.png"" style= ""width:200px""alt=""img"">
                            </div>
                        </div>","-95","","0","","","","images/map13_PRGn_scaleDef_orientMir_090.png","angry","1","13","13","PRGn","orientMir","scaleDef","090","",""
"","","","","","html-slider-response","117","349369","0.0-111.0","tbvwfrjhy3","59","NaN","<div style=""width:500px;"">
                            <p style=""font-size:50px; font-weight:bold;""
                            >angry</p>
                            <div style=""width:240px; margin: auto;"">
                                <img src=""images/map15_RdGy_scaleDef_orientDef_270.png"" style= ""width:200px""alt=""img"">
                            </div>
                        </div>","49","","0","","","","images/map15_RdGy_scaleDef_orientDef_270.png","angry","1","15","15","RdGy","orientDef","scaleDef","270","",""
"","","","","","html-slider-response","118","350802","0.0-112.0","tbvwfrjhy3","59","NaN","<div style=""width:500px;"">
                            <p style=""font-size:50px; font-weight:bold;""
                            >angry</p>
                            <div style=""width:240px; margin: auto;"">
                                <img src=""images/map26_managua_scaleRev_orientMir_180.png"" style= ""width:200px""alt=""img"">
                            </div>
                        </div>","-71","","0","","","","images/map26_managua_scaleRev_orientMir_180.png","angry","1","26","26","managua","orientMir","scaleRev","180","",""
"","","","","","html-slider-response","119","352818","0.0-113.0","tbvwfrjhy3","59","NaN","<div style=""width:500px;"">
                            <p style=""font-size:50px; font-weight:bold;""
                            >angry</p>
                            <div style=""width:240px; margin: auto;"">
                                <img src=""images/map07_Reds_scaleRev_orientDef_180.png"" style= ""width:200px""alt=""img"">
                            </div>
                        </div>","200","","0","","","","images/map07_Reds_scaleRev_orientDef_180.png","angry","1","07","07","Reds","orientDef","scaleRev","180","",""
"","","","","","html-slider-response","120","354719","0.0-114.0","tbvwfrjhy3","59","NaN","<div style=""width:500px;"">
                            <p style=""font-size:50px; font-weight:bold;""
                            >angry</p>
                            <div style=""width:240px; margin: auto;"">
                                <img src=""images/map27_viridis_scaleRev_orientMir_180.png"" style= ""width:200px""alt=""img"">
                            </div>
                        </div>","-155","","0","","","","images/map27_viridis_scaleRev_orientMir_180.png","angry","1","27","27","viridis","orientMir","scaleRev","180","",""
"","","","","","html-slider-response","121","356285","0.0-115.0","tbvwfrjhy3","59","NaN","<div style=""width:500px;"">
                            <p style=""font-size:50px; font-weight:bold;""
                            >angry</p>
                            <div style=""width:240px; margin: auto;"">
                                <img src=""images/map10_GnBu_scaleDef_orientMir_270.png"" style= ""width:200px""alt=""img"">
                            </div>
                        </div>","-158","","0","","","","images/map10_GnBu_scaleDef_orientMir_270.png","angry","1","10","10","GnBu","orientMir","scaleDef","270","",""
"","","","","","html-slider-response","122","357818","0.0-116.0","tbvwfrjhy3","59","NaN","<div style=""width:500px;"">
                            <p style=""font-size:50px; font-weight:bold;""
                            >angry</p>
                            <div style=""width:240px; margin: auto;"">
                                <img src=""images/map02_cividis_scaleDef_orientMir_090.png"" style= ""width:200px""alt=""img"">
                            </div>
                        </div>","-160","","0","","","","images/map02_cividis_scaleDef_orientMir_090.png","angry","1","02","02","cividis","orientMir","scaleDef","090","",""
"","","","","","html-slider-response","123","359517","0.0-117.0","tbvwfrjhy3","59","NaN","<div style=""width:500px;"">
                            <p style=""font-size:50px; font-weight:bold;""
                            >angry</p>
                            <div style=""width:240px; margin: auto;"">
                                <img src=""images/map07_YlOrRd_scaleRev_orientMir_180.png"" style= ""width:200px""alt=""img"">
                            </div>
                        </div>","150","","0","","","","images/map07_YlOrRd_scaleRev_orientMir_180.png","angry","1","07","07","YlOrRd","orientMir","scaleRev","180","",""
"","","","","","html-slider-response","124","361302","0.0-118.0","tbvwfrjhy3","59","NaN","<div style=""width:500px;"">
                            <p style=""font-size:50px; font-weight:bold;""
                            >angry</p>
                            <div style=""width:240px; margin: auto;"">
                                <img src=""images/map12_PuBu_scaleDef_orientDef_090.png"" style= ""width:200px""alt=""img"">
                            </div>
                        </div>","-93","","0","","","","images/map12_PuBu_scaleDef_orientDef_090.png","angry","1","12","12","PuBu","orientDef","scaleDef","090","",""
"","","","","","html-slider-response","125","363102","0.0-119.0","tbvwfrjhy3","59","NaN","<div style=""width:500px;"">
                            <p style=""font-size:50px; font-weight:bold;""
                            >angry</p>
                            <div style=""width:240px; margin: auto;"">
                                <img src=""images/map02_inferno_scaleDef_orientDef_090.png"" style= ""width:200px""alt=""img"">
                            </div>
                        </div>","94","","0","","","","images/map02_inferno_scaleDef_orientDef_090.png","angry","1","02","02","inferno","orientDef","scaleDef","090","",""
"","","","","","html-slider-response","126","365152","0.0-120.0","tbvwfrjhy3","59","NaN","<div style=""width:500px;"">
                            <p style=""font-size:50px; font-weight:bold;""
                            >angry</p>
                            <div style=""width:240px; margin: auto;"">
                                <img src=""images/map15_PuOr_scaleRev_orientDef_180.png"" style= ""width:200px""alt=""img"">
                            </div>
                        </div>","33","","0","","","","images/map15_PuOr_scaleRev_orientDef_180.png","angry","1","15","15","PuOr","orientDef","scaleRev","180","",""
"","","","","","html-slider-response","127","366717","0.0-121.0","tbvwfrjhy3","59","NaN","<div style=""width:500px;"">
                            <p style=""font-size:50px; font-weight:bold;""
                            >angry</p>
                            <div style=""width:240px; margin: auto;"">
                                <img src=""images/map15_RdYlBu_scaleDef_orientMir_270.png"" style= ""width:200px""alt=""img"">
                            </div>
                        </div>","68","","0","","","","images/map15_RdYlBu_scaleDef_orientMir_270.png","angry","1","15","15","RdYlBu","orientMir","scaleDef","270","",""
"","","","","","html-slider-response","128","368501","0.0-122.0","tbvwfrjhy3","59","NaN","<div style=""width:500px;"">
                            <p style=""font-size:50px; font-weight:bold;""
                            >angry</p>
                            <div style=""width:240px; margin: auto;"">
                                <img src=""images/map02_plasma_scaleRev_orientDef_000.png"" style= ""width:200px""alt=""img"">
                            </div>
                        </div>","114","","0","","","","images/map02_plasma_scaleRev_orientDef_000.png","angry","1","02","02","plasma","orientDef","scaleRev","000","",""
"","","","","","html-slider-response","129","369902","0.0-123.0","tbvwfrjhy3","59","NaN","<div style=""width:500px;"">
                            <p style=""font-size:50px; font-weight:bold;""
                            >angry</p>
                            <div style=""width:240px; margin: auto;"">
                                <img src=""images/map23_Spectral_scaleRev_orientMir_000.png"" style= ""width:200px""alt=""img"">
                            </div>
                        </div>","119","","0","","","","images/map23_Spectral_scaleRev_orientMir_000.png","angry","1","23","23","Spectral","orientMir","scaleRev","000","",""
"","","","","","html-slider-response","130","371535","0.0-124.0","tbvwfrjhy3","59","NaN","<div style=""width:500px;"">
                            <p style=""font-size:50px; font-weight:bold;""
                            >angry</p>
                            <div style=""width:240px; margin: auto;"">
                                <img src=""images/map12_PuBuGn_scaleRev_orientMir_180.png"" style= ""width:200px""alt=""img"">
                            </div>
                        </div>","-112","","0","","","","images/map12_PuBuGn_scaleRev_orientMir_180.png","angry","1","12","12","PuBuGn","orientMir","scaleRev","180","",""
"","","","","","html-slider-response","131","373285","0.0-125.0","tbvwfrjhy3","59","NaN","<div style=""width:500px;"">
                            <p style=""font-size:50px; font-weight:bold;""
                            >angry</p>
                            <div style=""width:240px; margin: auto;"">
                                <img src=""images/map10_OrRd_scaleRev_orientDef_000.png"" style= ""width:200px""alt=""img"">
                            </div>
                        </div>","154","","0","","","","images/map10_OrRd_scaleRev_orientDef_000.png","angry","1","10","10","OrRd","orientDef","scaleRev","000","",""
"","","","","","html-slider-response","132","374834","0.0-126.0","tbvwfrjhy3","59","NaN","<div style=""width:500px;"">
                            <p style=""font-size:50px; font-weight:bold;""
                            >angry</p>
                            <div style=""width:240px; margin: auto;"">
                                <img src=""images/map10_BuPu_scaleRev_orientMir_180.png"" style= ""width:200px""alt=""img"">
                            </div>
                        </div>","-110","","0","","","","images/map10_BuPu_scaleRev_orientMir_180.png","angry","1","10","10","BuPu","orientMir","scaleRev","180","",""
"","","","","","html-slider-response","133","376601","0.0-127.0","tbvwfrjhy3","59","NaN","<div style=""width:500px;"">
                            <p style=""font-size:50px; font-weight:bold;""
                            >angry</p>
                            <div style=""width:240px; margin: auto;"">
                                <img src=""images/map23_bwr_scaleDef_orientMir_270.png"" style= ""width:200px""alt=""img"">
                            </div>
                        </div>","47","","0","","","","images/map23_bwr_scaleDef_orientMir_270.png","angry","1","23","23","bwr","orientMir","scaleDef","270","",""
"","","","","","html-slider-response","134","378018","0.0-128.0","tbvwfrjhy3","59","NaN","<div style=""width:500px;"">
                            <p style=""font-size:50px; font-weight:bold;""
                            >angry</p>
                            <div style=""width:240px; margin: auto;"">
                                <img src=""images/map13_YlGn_scaleRev_orientDef_180.png"" style= ""width:200px""alt=""img"">
                            </div>
                        </div>","-84","","0","","","","images/map13_YlGn_scaleRev_orientDef_180.png","angry","1","13","13","YlGn","orientDef","scaleRev","180","",""
"","","","","","html-slider-response","135","379668","0.0-129.0","tbvwfrjhy3","59","NaN","<div style=""width:500px;"">
                            <p style=""font-size:50px; font-weight:bold;""
                            >angry</p>
                            <div style=""width:240px; margin: auto;"">
                                <img src=""images/map23_coolwarm_scaleDef_orientMir_090.png"" style= ""width:200px""alt=""img"">
                            </div>
                        </div>","94","","0","","","","images/map23_coolwarm_scaleDef_orientMir_090.png","angry","1","23","23","coolwarm","orientMir","scaleDef","090","",""
"","","","","","html-slider-response","136","381235","0.0-130.0","tbvwfrjhy3","59","NaN","<div style=""width:500px;"">
                            <p style=""font-size:50px; font-weight:bold;""
                            >angry</p>
                            <div style=""width:240px; margin: auto;"">
                                <img src=""images/map13_BrBG_scaleDef_orientMir_270.png"" style= ""width:200px""alt=""img"">
                            </div>
                        </div>","-76","","0","","","","images/map13_BrBG_scaleDef_orientMir_270.png","angry","1","13","13","BrBG","orientMir","scaleDef","270","",""
"","","","","","html-slider-response","137","382834","0.0-131.0","tbvwfrjhy3","59","NaN","<div style=""width:500px;"">
                            <p style=""font-size:50px; font-weight:bold;""
                            >angry</p>
                            <div style=""width:240px; margin: auto;"">
                                <img src=""images/map07_YlOrBr_scaleRev_orientMir_000.png"" style= ""width:200px""alt=""img"">
                            </div>
                        </div>","14","","0","","","","images/map07_YlOrBr_scaleRev_orientMir_000.png","angry","1","07","07","YlOrBr","orientMir","scaleRev","000","",""
"","","","","","html-slider-response","138","384518","0.0-132.0","tbvwfrjhy3","59","NaN","<div style=""width:500px;"">
                            <p style=""font-size:50px; font-weight:bold;""
                            >angry</p>
                            <div style=""width:240px; margin: auto;"">
                                <img src=""images/map12_YlGnBu_scaleRev_orientMir_000.png"" style= ""width:200px""alt=""img"">
                            </div>
                        </div>","-193","","0","","","","images/map12_YlGnBu_scaleRev_orientMir_000.png","angry","1","12","12","YlGnBu","orientMir","scaleRev","000","",""
"","","","","","html-slider-response","139","386235","0.0-133.0","tbvwfrjhy3","59","NaN","<div style=""width:500px;"">
                            <p style=""font-size:50px; font-weight:bold;""
                            >angry</p>
                            <div style=""width:240px; margin: auto;"">
                                <img src=""images/map13_PRGn_scaleRev_orientMir_180.png"" style= ""width:200px""alt=""img"">
                            </div>
                        </div>","-38","","0","","","","images/map13_PRGn_scaleRev_orientMir_180.png","angry","1","13","13","PRGn","orientMir","scaleRev","180","",""
"","","","","","html-slider-response","140","387751","0.0-134.0","tbvwfrjhy3","59","NaN","<div style=""width:500px;"">
                            <p style=""font-size:50px; font-weight:bold;""
                            >angry</p>
                            <div style=""width:240px; margin: auto;"">
                                <img src=""images/map12_GnBu_scaleRev_orientDef_000.png"" style= ""width:200px""alt=""img"">
                            </div>
                        </div>","-95","","0","","","","images/map12_GnBu_scaleRev_orientDef_000.png","angry","1","12","12","GnBu","orientDef","scaleRev","000","",""
"","","","","","html-slider-response","141","389300","0.0-135.0","tbvwfrjhy3","59","NaN","<div style=""width:500px;"">
                            <p style=""font-size:50px; font-weight:bold;""
                            >angry</p>
                            <div style=""width:240px; margin: auto;"">
                                <img src=""images/map15_RdGy_scaleRev_orientMir_000.png"" style= ""width:200px""alt=""img"">
                            </div>
                        </div>","39","","0","","","","images/map15_RdGy_scaleRev_orientMir_000.png","angry","1","15","15","RdGy","orientMir","scaleRev","000","",""
"","","","","","html-slider-response","142","390968","0.0-136.0","tbvwfrjhy3","59","NaN","<div style=""width:500px;"">
                            <p style=""font-size:50px; font-weight:bold;""
                            >angry</p>
                            <div style=""width:240px; margin: auto;"">
                                <img src=""images/map07_OrRd_scaleDef_orientMir_270.png"" style= ""width:200px""alt=""img"">
                            </div>
                        </div>","166","","0","","","","images/map07_OrRd_scaleDef_orientMir_270.png","angry","1","07","07","OrRd","orientMir","scaleDef","270","",""
"","","","","","html-button-response","143","392607","0.0-137.0","tbvwfrjhy3","59","1136","<p>You are doing great!<br></br> You are halway done with the current block. When you are ready to continue, click the 'Continue' button.</p>","0","","","","","","","","","","","","","","","",""
"","","","","","html-slider-response","144","394085","0.0-138.0","tbvwfrjhy3","59","NaN","<div style=""width:500px;"">
                            <p style=""font-size:50px; font-weight:bold;""
                            >angry</p>
                            <div style=""width:240px; margin: auto;"">
                                <img src=""images/map23_RdYlGn_scaleRev_orientDef_180.png"" style= ""width:200px""alt=""img"">
                            </div>
                        </div>","-66","","0","","","","images/map23_RdYlGn_scaleRev_orientDef_180.png","angry","1","23","23","RdYlGn","orientDef","scaleRev","180","",""
"","","","","","html-slider-response","145","395600","0.0-139.0","tbvwfrjhy3","59","NaN","<div style=""width:500px;"">
                            <p style=""font-size:50px; font-weight:bold;""
                            >angry</p>
                            <div style=""width:240px; margin: auto;"">
                                <img src=""images/map27_gist_earth_scaleDef_orientDef_090.png"" style= ""width:200px""alt=""img"">
                            </div>
                        </div>","-85","","0","","","","images/map27_gist_earth_scaleDef_orientDef_090.png","angry","1","27","27","gist","scaleDef","earth","orientDef","",""
"","","","","","html-slider-response","146","396984","0.0-140.0","tbvwfrjhy3","59","NaN","<div style=""width:500px;"">
                            <p style=""font-size:50px; font-weight:bold;""
                            >angry</p>
                            <div style=""width:240px; margin: auto;"">
                                <img src=""images/map26_seismic_scaleRev_orientDef_180.png"" style= ""width:200px""alt=""img"">
                            </div>
                        </div>","53","","0","","","","images/map26_seismic_scaleRev_orientDef_180.png","angry","1","26","26","seismic","orientDef","scaleRev","180","",""
"","","","","","html-slider-response","147","398467","0.0-141.0","tbvwfrjhy3","59","NaN","<div style=""width:500px;"">
                            <p style=""font-size:50px; font-weight:bold;""
                            >angry</p>
                            <div style=""width:240px; margin: auto;"">
                                <img src=""images/map07_Oranges_scaleRev_orientDef_000.png"" style= ""width:200px""alt=""img"">
                            </div>
                        </div>","102","","0","","","","images/map07_Oranges_scaleRev_orientDef_000.png","angry","1","07","07","Oranges","orientDef","scaleRev","000","",""
"","","","","","html-slider-response","148","399817","0.0-142.0","tbvwfrjhy3","59","NaN","<div style=""width:500px;"">
                            <p style=""font-size:50px; font-weight:bold;""
                            >angry</p>
                            <div style=""width:240px; margin: auto;"">
                                <img src=""images/map23_Spectral_scaleDef_orientDef_270.png"" style= ""width:200px""alt=""img"">
                            </div>
                        </div>","58","","0","","","","images/map23_Spectral_scaleDef_orientDef_270.png","angry","1","23","23","Spectral","orientDef","scaleDef","270","",""
"","","","","","html-slider-response","149","401417","0.0-143.0","tbvwfrjhy3","59","NaN","<div style=""width:500px;"">
                            <p style=""font-size:50px; font-weight:bold;""
                            >angry</p>
                            <div style=""width:240px; margin: auto;"">
                                <img src=""images/map13_YlGn_scaleDef_orientDef_090.png"" style= ""width:200px""alt=""img"">
                            </div>
                        </div>","-97","","0","","","","images/map13_YlGn_scaleDef_orientDef_090.png","angry","1","13","13","YlGn","orientDef","scaleDef","090","",""
"","","","","","html-slider-response","150","402583","0.0-144.0","tbvwfrjhy3","59","NaN","<div style=""width:500px;"">
                            <p style=""font-size:50px; font-weight:bold;""
                            >angry</p>
                            <div style=""width:240px; margin: auto;"">
                                <img src=""images/map07_YlOrRd_scaleDef_orientMir_090.png"" style= ""width:200px""alt=""img"">
                            </div>
                        </div>","92","","0","","","","images/map07_YlOrRd_scaleDef_orientMir_090.png","angry","1","07","07","YlOrRd","orientMir","scaleDef","090","",""
"","","","","","html-slider-response","151","403917","0.0-145.0","tbvwfrjhy3","59","NaN","<div style=""width:500px;"">
                            <p style=""font-size:50px; font-weight:bold;""
                            >angry</p>
                            <div style=""width:240px; margin: auto;"">
                                <img src=""images/map12_YlGnBu_scaleDef_orientDef_270.png"" style= ""width:200px""alt=""img"">
                            </div>
                        </div>","-86","","0","","","","images/map12_YlGnBu_scaleDef_orientDef_270.png","angry","1","12","12","YlGnBu","orientDef","scaleDef","270","",""
"","","","","","html-slider-response","152","406534","0.0-146.0","tbvwfrjhy3","59","NaN","<div style=""width:500px;"">
                            <p style=""font-size:50px; font-weight:bold;""
                            >angry</p>
                            <div style=""width:240px; margin: auto;"">
                                <img src=""images/map02_Greys_scaleDef_orientMir_270.png"" style= ""width:200px""alt=""img"">
                            </div>
                        </div>","-169","","0","","","","images/map02_Greys_scaleDef_orientMir_270.png","angry","1","02","02","Greys","orientMir","scaleDef","270","",""
"","","","","","html-slider-response","153","408383","0.0-147.0","tbvwfrjhy3","59","NaN","<div style=""width:500px;"">
                            <p style=""font-size:50px; font-weight:bold;""
                            >angry</p>
                            <div style=""width:240px; margin: auto;"">
                                <img src=""images/map26_seismic_scaleDef_orientDef_090.png"" style= ""width:200px""alt=""img"">
                            </div>
                        </div>","150","","0","","","","images/map26_seismic_scaleDef_orientDef_090.png","angry","1","26","26","seismic","orientDef","scaleDef","090","",""
"","","","","","html-slider-response","154","410068","0.0-148.0","tbvwfrjhy3","59","NaN","<div style=""width:500px;"">
                            <p style=""font-size:50px; font-weight:bold;""
                            >angry</p>
                            <div style=""width:240px; margin: auto;"">
                                <img src=""images/map26_berlin_scaleRev_orientMir_000.png"" style= ""width:200px""alt=""img"">
                            </div>
                        </div>","46","","0","","","","images/map26_berlin_scaleRev_orientMir_000.png","angry","1","26","26","berlin","orientMir","scaleRev","000","",""
"","","","","","html-slider-response","155","411434","0.0-149.0","tbvwfrjhy3","59","NaN","<div style=""width:500px;"">
                            <p style=""font-size:50px; font-weight:bold;""
                            >angry</p>
                            <div style=""width:240px; margin: auto;"">
                                <img src=""images/map13_PiYG_scaleDef_orientDef_270.png"" style= ""width:200px""alt=""img"">
                            </div>
                        </div>","-122","","0","","","","images/map13_PiYG_scaleDef_orientDef_270.png","angry","1","13","13","PiYG","orientDef","scaleDef","270","",""
"","","","","","html-slider-response","156","413084","0.0-150.0","tbvwfrjhy3","59","NaN","<div style=""width:500px;"">
                            <p style=""font-size:50px; font-weight:bold;""
                            >angry</p>
                            <div style=""width:240px; margin: auto;"">
                                <img src=""images/map27_plasma_scaleDef_orientMir_270.png"" style= ""width:200px""alt=""img"">
                            </div>
                        </div>","88","","0","","","","images/map27_plasma_scaleDef_orientMir_270.png","angry","1","27","27","plasma","orientMir","scaleDef","270","",""
"","","","","","html-slider-response","157","414683","0.0-151.0","tbvwfrjhy3","59","NaN","<div style=""width:500px;"">
                            <p style=""font-size:50px; font-weight:bold;""
                            >angry</p>
                            <div style=""width:240px; margin: auto;"">
                                <img src=""images/map23_RdYlBu_scaleRev_orientDef_000.png"" style= ""width:200px""alt=""img"">
                            </div>
                        </div>","78","","0","","","","images/map23_RdYlBu_scaleRev_orientDef_000.png","angry","1","23","23","RdYlBu","orientDef","scaleRev","000","",""
"","","","","","html-slider-response","158","416284","0.0-152.0","tbvwfrjhy3","59","NaN","<div style=""width:500px;"">
                            <p style=""font-size:50px; font-weight:bold;""
                            >angry</p>
                            <div style=""width:240px; margin: auto;"">
