"success","timeout","failed_images","failed_audio","failed_video","trial_type","trial_index","time_elapsed","internal_node_id","subject_id","condition_num","rt","stimulus","response","question_order","slider_start","practiceTrial","practiceTrialNum","correct","image_path","concept","repetition","map_id","map_num","scale_name","orientation_code","mapping_code","rotation_code","ishihara_plate","correct_response"
"true","false","[]","[]","[]","preload","0","408","0.0-0.0","tspt5a31e4","18","","","","","","","","","","","","","","","","","","",""
"","","","","","html-button-response","1","13104","0.0-1.0","tspt5a31e4","18","12694","Welcome to our experiment!<p>At the bottom of this screen, you will see a button that says ""Begin Experiment"".<br>Please only click that button when you are ready to complete the 30 minute experiment in one sitting.</p><p> Once you click that button, it will not be possible to restart the experiment.","0","","","","","","","","","","","","","","","",""
"true","","","","","fullscreen","2","16139","0.0-2.0","tspt5a31e4","18","2032","","","","","","","","","","","","","","","","","",""
"","","","","","survey-multi-select","3","24072","0.0-3.0","tspt5a31e4","18","7929","","{""Consent"":[""<strong>I consent</strong>""]}","[0]","","","","","","","","","","","","","","",""
"","","","","","html-button-response","4","28103","0.0-4.0","tspt5a31e4","18","4030","Welcome! <p> This experiment involves two parts: demographic information, followed by the experimental task.<p> It will take about 30 minutes to complete both parts.","0","","","","","","","","","","","","","","","",""
"","","","","","survey-text","5","43405","0.0-5.0","tspt5a31e4","18","15296","","{""Age"":""18"",""Gender"":""femal"",""Race/ethnicity"":""white"",""Languages"":""bulgarian, english, spanish\n""}","","","","","","","","","","","","","","","",""
"","","","","","html-slider-response","6","123986","0.0-6.0","tspt5a31e4","18","80578","<div style='text-align:left; font-size:20px; line-height:25px; width: 1000px;'>
                                During this experiment you will be asked to rate how much you associate maps with                    different concepts.<br> Below, you can see some examples of the maps you will be asked to rate. Above the maps
                    is the list of concepts.<br>You will be asked                    to rate how much you associate each map with each concept on a scale from 'not at all' to 'very much' like the
                    one below. <br><br>
                    Now, please look at the list of concepts and maps. For each concept, think about the map you associate 'very
                    much' with the concept.<br>                     When you see that map during the experiment, please rate it near the 'very much' endpoint of the
                    scale.<br>Now, please think about which map you associate 'not at all'                     with each concept. When you see that map during the experiment, please rate it near the 'not at all' endpoint
                    of the scale.<br>
                    Please use the full range of the scale. That is, if a map is somewhat associated with the concept, you would
                    click partway between the middle point and right side of the scale.                    You will be asked to rate each map for a given concept before moving on to the next concept.<br>Press the
                    'Continue' button for instructions on how to use the slider.                    <br>
                </div>

                <div style=""width: 500px; margin: 0 auto;"">
                    <!-- Centered text paragraphs -->
                    <div style=""text-align: center; width: 500px;"">
                        <p style=""font-size:25px; line-height:15px;"">
                            fearful&nbsp;&nbsp;&nbsp;&nbsp;
                            happy&nbsp;&nbsp;&nbsp;&nbsp;
                            angry&nbsp;&nbsp;&nbsp;&nbsp;
                            sad&nbsp;&nbsp;&nbsp;&nbsp;
                            disgust
                        </p>
                        <!-- <p style=""font-size:20px; line-height:15px;"">happy</p>
                        <p style=""font-size:20px;line-height:15px;"">angry</p>
                        <p style=""font-size:20px;line-height:15px;"">sad</p>
                        <p style=""font-size:20px;line-height:15px;"">disgust</p> -->
                    </div>
            

                    <!-- Grid section -->
                   <div style=""display: flex; justify-content: center; padding-top: 15px;"">
                    <div style=""display: grid; grid-template-columns: repeat(10, 55px); grid-gap: 5px; width: auto;"">
                        <img src=""images/map12_Greens_scaleRev_orientDef_270.png"" alt=""map"" style=""width: 100%;""><img src=""images/map05_gist_earth_scaleRev_orientMir_270.png"" alt=""map"" style=""width: 100%;""><img src=""images/map10_Purples_scaleDef_orientMir_180.png"" alt=""map"" style=""width: 100%;""><img src=""images/map27_RdBu_scaleDef_orientDef_180.png"" alt=""map"" style=""width: 100%;""><img src=""images/map12_Reds_scaleDef_orientMir_180.png"" alt=""map"" style=""width: 100%;""><img src=""images/map26_BrBG_scaleDef_orientMir_000.png"" alt=""map"" style=""width: 100%;""><img src=""images/map26_PRGn_scaleDef_orientDef_180.png"" alt=""map"" style=""width: 100%;""><img src=""images/map15_PuBu_scaleDef_orientMir_180.png"" alt=""map"" style=""width: 100%;""><img src=""images/map07_inferno_scaleRev_orientMir_270.png"" alt=""map"" style=""width: 100%;""><img src=""images/map02_Spectral_scaleDef_orientDef_000.png"" alt=""map"" style=""width: 100%;""><img src=""images/map07_turbo_scaleRev_orientDef_090.png"" alt=""map"" style=""width: 100%;""><img src=""images/map05_berlin_scaleDef_orientDef_000.png"" alt=""map"" style=""width: 100%;""><img src=""images/map23_BuGn_scaleDef_orientMir_000.png"" alt=""map"" style=""width: 100%;""><img src=""images/map02_seismic_scaleRev_orientMir_270.png"" alt=""map"" style=""width: 100%;""><img src=""images/map02_bwr_scaleDef_orientMir_000.png"" alt=""map"" style=""width: 100%;""><img src=""images/map23_YlGn_scaleRev_orientMir_270.png"" alt=""map"" style=""width: 100%;""><img src=""images/map13_YlOrBr_scaleDef_orientDef_000.png"" alt=""map"" style=""width: 100%;""><img src=""images/map23_PuBuGn_scaleRev_orientDef_270.png"" alt=""map"" style=""width: 100%;""><img src=""images/map26_PuOr_scaleDef_orientMir_180.png"" alt=""map"" style=""width: 100%;""><img src=""images/map10_Greys_scaleRev_orientMir_090.png"" alt=""map"" style=""width: 100%;""><img src=""images/map10_cividis_scaleRev_orientDef_270.png"" alt=""map"" style=""width: 100%;""><img src=""images/map05_managua_scaleDef_orientDef_180.png"" alt=""map"" style=""width: 100%;""><img src=""images/map02_coolwarm_scaleDef_orientDef_180.png"" alt=""map"" style=""width: 100%;""><img src=""images/map13_PuRd_scaleRev_orientMir_270.png"" alt=""map"" style=""width: 100%;""><img src=""images/map07_plasma_scaleDef_orientMir_000.png"" alt=""map"" style=""width: 100%;""><img src=""images/map27_RdYlBu_scaleDef_orientMir_000.png"" alt=""map"" style=""width: 100%;""><img src=""images/map23_YlGnBu_scaleRev_orientDef_090.png"" alt=""map"" style=""width: 100%;""><img src=""images/map15_BuPu_scaleRev_orientDef_270.png"" alt=""map"" style=""width: 100%;""><img src=""images/map13_YlOrRd_scaleRev_orientDef_270.png"" alt=""map"" style=""width: 100%;""><img src=""images/map27_RdYlGn_scaleDef_orientMir_180.png"" alt=""map"" style=""width: 100%;""><img src=""images/map27_RdGy_scaleDef_orientDef_000.png"" alt=""map"" style=""width: 100%;""><img src=""images/map15_RdPu_scaleDef_orientDef_000.png"" alt=""map"" style=""width: 100%;""><img src=""images/map05_vanimo_scaleRev_orientMir_090.png"" alt=""map"" style=""width: 100%;""><img src=""images/map26_PiYG_scaleRev_orientDef_090.png"" alt=""map"" style=""width: 100%;""><img src=""images/map12_Oranges_scaleDef_orientMir_000.png"" alt=""map"" style=""width: 100%;""><img src=""images/map10_magma_scaleRev_orientDef_090.png"" alt=""map"" style=""width: 100%;""><img src=""images/map15_GnBu_scaleDef_orientMir_000.png"" alt=""map"" style=""width: 100%;""><img src=""images/map13_OrRd_scaleDef_orientMir_000.png"" alt=""map"" style=""width: 100%;""><img src=""images/map12_Blues_scaleDef_orientDef_000.png"" alt=""map"" style=""width: 100%;""><img src=""images/map07_viridis_scaleDef_orientDef_180.png"" alt=""map"" style=""width: 100%;"">
                    </div>
                </div>

                    <!-- Clear floats -->
                    <div style=""clear: both;""></div>
                </div>
                            ","-1","","0","true","","","","","","","","","","","","",""
"","","","","","html-button-response","7","126152","0.0-7.0","tspt5a31e4","18","2165","<div style=""width:800px;""><p style=""text-align:left"">To move the slider, click and drag your cursor to the location of the scale where you would like to make your rating and then let go. When you let go of the slider, your response will be recorded and the next trial will begin. <br>
                    We are interested in your initial impressions of each map for the given concept, so please go with your first intuition. <br>
                    Before you begin the experiment, there will be four training trials for you to practice using the scale. <br>
                     When you are ready to start the training trials, please click ""Continue"".</p><br></div>","0","","","","","","","","","","","","","","","",""
"","","","","","html-slider-response","8","129914","0.0-8.0-0.0","tspt5a31e4","18","NaN","<div style=""width:500px;"">
                                    <p style=""font-size:25px;"">Please move the slider all the way to the <br> right endpoint of the scale</p>

                                    </div>
                                </div>","200","","0","true","0","true","","","","","","","","","","",""
"","","","","","html-button-response","9","131302","0.0-8.0-1.0","tspt5a31e4","18","886","<p align='center'><b>Good job!</b> Click on 'Continue' to proceed.</p>","0","","","","","","","","","","","","","","","",""
"","","","","","html-slider-response","10","133083","0.0-9.0-0.0","tspt5a31e4","18","NaN","<div style=""width:500px;"">
                                    <p style=""font-size:25px;"">Please move the slider all the way to the <br> left endpoint of the scale</p>

                                    </div>
                                </div>","-200","","0","true","1","true","","","","","","","","","","",""
"","","","","","html-button-response","11","134619","0.0-9.0-1.0","tspt5a31e4","18","1034","<p align='center'><b>Good job!</b> Click on 'Continue' to proceed.</p>","0","","","","","","","","","","","","","","","",""
"","","","","","html-slider-response","12","138280","0.0-10.0-0.0","tspt5a31e4","18","NaN","<div style=""width:500px;"">
                                    <p style=""font-size:25px;"">Please move the slider halfway between the center and right endpoint of the scale</p>

                                    </div>
                                </div>","102","","0","true","2","true","","","","","","","","","","",""
"","","","","","html-button-response","13","139536","0.0-10.0-1.0","tspt5a31e4","18","753","<p align='center'><b>Good job!</b> Click on 'Continue' to proceed.</p>","0","","","","","","","","","","","","","","","",""
"","","","","","html-slider-response","14","141700","0.0-11.0-0.0","tspt5a31e4","18","NaN","<div style=""width:500px;"">
                                    <p style=""font-size:25px;"">Please move the slider halfway between the center and left endpoint of the scale</p>

                                    </div>
                                </div>","-102","","0","true","3","true","","","","","","","","","","",""
"","","","","","html-button-response","15","143236","0.0-11.0-1.0","tspt5a31e4","18","1033","<p align='center'><b>Good job!</b> Click on 'Continue' to proceed.</p>","0","","","","","","","","","","","","","","","",""
"","","","","","html-button-response","16","144136","0.0-12.0","tspt5a31e4","18","899","<p>Great job! You've completed the practice trials. Now you will begin the main task.</p>","0","","","","","","","","","","","","","","","",""
"","","","","","html-button-response","17","147119","0.0-13.0","tspt5a31e4","18","2983","<p>In this block of trials, you will be asked to rate how much you associate each map with:</p > <p style = 'font-size:150%; font-weight: bold'>fearful</p><br></br>","0","","","","","","","","","","","","","","","",""
"","","","","","html-slider-response","18","149380","0.0-14.0","tspt5a31e4","18","NaN","<div style=""width:500px;"">
                            <p style=""font-size:50px; font-weight:bold;""
                            >fearful</p>
                            <div style=""width:240px; margin: auto;"">
                                <img src=""images/map02_coolwarm_scaleDef_orientDef_180.png"" style= ""width:200px""alt=""img"">
                            </div>
                        </div>","-200","","0","","","","images/map02_coolwarm_scaleDef_orientDef_180.png","fearful","1","02","02","coolwarm","orientDef","scaleDef","180","",""
"","","","","","html-slider-response","19","152683","0.0-15.0","tspt5a31e4","18","NaN","<div style=""width:500px;"">
                            <p style=""font-size:50px; font-weight:bold;""
                            >fearful</p>
                            <div style=""width:240px; margin: auto;"">
                                <img src=""images/map23_PuBuGn_scaleRev_orientDef_270.png"" style= ""width:200px""alt=""img"">
                            </div>
                        </div>","-109","","0","","","","images/map23_PuBuGn_scaleRev_orientDef_270.png","fearful","1","23","23","PuBuGn","orientDef","scaleRev","270","",""
"","","","","","html-slider-response","20","158381","0.0-16.0","tspt5a31e4","18","NaN","<div style=""width:500px;"">
                            <p style=""font-size:50px; font-weight:bold;""
                            >fearful</p>
                            <div style=""width:240px; margin: auto;"">
                                <img src=""images/map12_Blues_scaleDef_orientDef_000.png"" style= ""width:200px""alt=""img"">
                            </div>
                        </div>","-170","","0","","","","images/map12_Blues_scaleDef_orientDef_000.png","fearful","1","12","12","Blues","orientDef","scaleDef","000","",""
"","","","","","html-slider-response","21","160513","0.0-17.0","tspt5a31e4","18","NaN","<div style=""width:500px;"">
                            <p style=""font-size:50px; font-weight:bold;""
                            >fearful</p>
                            <div style=""width:240px; margin: auto;"">
                                <img src=""images/map15_GnBu_scaleDef_orientMir_000.png"" style= ""width:200px""alt=""img"">
                            </div>
                        </div>","78","","0","","","","images/map15_GnBu_scaleDef_orientMir_000.png","fearful","1","15","15","GnBu","orientMir","scaleDef","000","",""
"","","","","","html-slider-response","22","162566","0.0-18.0","tspt5a31e4","18","NaN","<div style=""width:500px;"">
                            <p style=""font-size:50px; font-weight:bold;""
                            >fearful</p>
                            <div style=""width:240px; margin: auto;"">
                                <img src=""images/map12_Blues_scaleRev_orientDef_090.png"" style= ""width:200px""alt=""img"">
                            </div>
                        </div>","36","","0","","","","images/map12_Blues_scaleRev_orientDef_090.png","fearful","1","12","12","Blues","orientDef","scaleRev","090","",""
"","","","","","html-slider-response","23","165496","0.0-19.0","tspt5a31e4","18","NaN","<div style=""width:500px;"">
                            <p style=""font-size:50px; font-weight:bold;""
                            >fearful</p>
                            <div style=""width:240px; margin: auto;"">
                                <img src=""images/map07_inferno_scaleRev_orientMir_270.png"" style= ""width:200px""alt=""img"">
                            </div>
                        </div>","180","","0","","","","images/map07_inferno_scaleRev_orientMir_270.png","fearful","1","07","07","inferno","orientMir","scaleRev","270","",""
"","","","","","html-slider-response","24","168032","0.0-20.0","tspt5a31e4","18","NaN","<div style=""width:500px;"">
                            <p style=""font-size:50px; font-weight:bold;""
                            >fearful</p>
                            <div style=""width:240px; margin: auto;"">
                                <img src=""images/map10_cividis_scaleRev_orientDef_270.png"" style= ""width:200px""alt=""img"">
                            </div>
                        </div>","146","","0","","","","images/map10_cividis_scaleRev_orientDef_270.png","fearful","1","10","10","cividis","orientDef","scaleRev","270","",""
"","","","","","html-slider-response","25","170497","0.0-21.0","tspt5a31e4","18","NaN","<div style=""width:500px;"">
                            <p style=""font-size:50px; font-weight:bold;""
                            >fearful</p>
                            <div style=""width:240px; margin: auto;"">
                                <img src=""images/map27_RdGy_scaleRev_orientDef_090.png"" style= ""width:200px""alt=""img"">
                            </div>
                        </div>","142","","0","","","","images/map27_RdGy_scaleRev_orientDef_090.png","fearful","1","27","27","RdGy","orientDef","scaleRev","090","",""
"","","","","","html-slider-response","26","207730","0.0-22.0","tspt5a31e4","18","NaN","<div style=""width:500px;"">
                            <p style=""font-size:50px; font-weight:bold;""
                            >fearful</p>
                            <div style=""width:240px; margin: auto;"">
                                <img src=""images/map12_Reds_scaleDef_orientMir_180.png"" style= ""width:200px""alt=""img"">
                            </div>
                        </div>","128","","0","","","","images/map12_Reds_scaleDef_orientMir_180.png","fearful","1","12","12","Reds","orientMir","scaleDef","180","",""
"","","","","","html-slider-response","27","210964","0.0-23.0","tspt5a31e4","18","NaN","<div style=""width:500px;"">
                            <p style=""font-size:50px; font-weight:bold;""
                            >fearful</p>
                            <div style=""width:240px; margin: auto;"">
                                <img src=""images/map05_berlin_scaleDef_orientDef_000.png"" style= ""width:200px""alt=""img"">
                            </div>
                        </div>","200","","0","","","","images/map05_berlin_scaleDef_orientDef_000.png","fearful","1","05","05","berlin","orientDef","scaleDef","000","",""
"","","","","","html-slider-response","28","213596","0.0-24.0","tspt5a31e4","18","NaN","<div style=""width:500px;"">
                            <p style=""font-size:50px; font-weight:bold;""
                            >fearful</p>
                            <div style=""width:240px; margin: auto;"">
                                <img src=""images/map05_gist_earth_scaleDef_orientMir_180.png"" style= ""width:200px""alt=""img"">
                            </div>
                        </div>","14","","0","","","","images/map05_gist_earth_scaleDef_orientMir_180.png","fearful","1","05","05","gist","scaleDef","earth","orientMir","",""
"","","","","","html-slider-response","29","216363","0.0-25.0","tspt5a31e4","18","NaN","<div style=""width:500px;"">
                            <p style=""font-size:50px; font-weight:bold;""
                            >fearful</p>
                            <div style=""width:240px; margin: auto;"">
                                <img src=""images/map02_coolwarm_scaleRev_orientDef_270.png"" style= ""width:200px""alt=""img"">
                            </div>
                        </div>","81","","0","","","","images/map02_coolwarm_scaleRev_orientDef_270.png","fearful","1","02","02","coolwarm","orientDef","scaleRev","270","",""
"","","","","","html-slider-response","30","219781","0.0-26.0","tspt5a31e4","18","NaN","<div style=""width:500px;"">
                            <p style=""font-size:50px; font-weight:bold;""
                            >fearful</p>
                            <div style=""width:240px; margin: auto;"">
                                <img src=""images/map13_PuRd_scaleDef_orientMir_180.png"" style= ""width:200px""alt=""img"">
                            </div>
                        </div>","-17","","0","","","","images/map13_PuRd_scaleDef_orientMir_180.png","fearful","1","13","13","PuRd","orientMir","scaleDef","180","",""
"","","","","","html-slider-response","31","221463","0.0-27.0","tspt5a31e4","18","NaN","<div style=""width:500px;"">
                            <p style=""font-size:50px; font-weight:bold;""
                            >fearful</p>
                            <div style=""width:240px; margin: auto;"">
                                <img src=""images/map13_OrRd_scaleDef_orientMir_000.png"" style= ""width:200px""alt=""img"">
                            </div>
                        </div>","-6","","0","","","","images/map13_OrRd_scaleDef_orientMir_000.png","fearful","1","13","13","OrRd","orientMir","scaleDef","000","",""
"","","","","","html-slider-response","32","223880","0.0-28.0","tspt5a31e4","18","NaN","<div style=""width:500px;"">
                            <p style=""font-size:50px; font-weight:bold;""
                            >fearful</p>
                            <div style=""width:240px; margin: auto;"">
                                <img src=""images/map13_PuRd_scaleRev_orientMir_270.png"" style= ""width:200px""alt=""img"">
                            </div>
                        </div>","-42","","0","","","","images/map13_PuRd_scaleRev_orientMir_270.png","fearful","1","13","13","PuRd","orientMir","scaleRev","270","",""
"","","","","","html-slider-response","33","226414","0.0-29.0","tspt5a31e4","18","NaN","<div style=""width:500px;"">
                            <p style=""font-size:50px; font-weight:bold;""
                            >fearful</p>
                            <div style=""width:240px; margin: auto;"">
                                <img src=""images/map26_PRGn_scaleDef_orientDef_180.png"" style= ""width:200px""alt=""img"">
                            </div>
                        </div>","62","","0","","","","images/map26_PRGn_scaleDef_orientDef_180.png","fearful","1","26","26","PRGn","orientDef","scaleDef","180","",""
"","","","","","html-slider-response","34","229430","0.0-30.0","tspt5a31e4","18","NaN","<div style=""width:500px;"">
                            <p style=""font-size:50px; font-weight:bold;""
                            >fearful</p>
                            <div style=""width:240px; margin: auto;"">
                                <img src=""images/map23_BuGn_scaleDef_orientMir_000.png"" style= ""width:200px""alt=""img"">
                            </div>
                        </div>","10","","0","","","","images/map23_BuGn_scaleDef_orientMir_000.png","fearful","1","23","23","BuGn","orientMir","scaleDef","000","",""
"","","","","","html-slider-response","35","231547","0.0-31.0","tspt5a31e4","18","NaN","<div style=""width:500px;"">
                            <p style=""font-size:50px; font-weight:bold;""
                            >fearful</p>
                            <div style=""width:240px; margin: auto;"">
                                <img src=""images/map27_RdGy_scaleDef_orientDef_000.png"" style= ""width:200px""alt=""img"">
                            </div>
                        </div>","99","","0","","","","images/map27_RdGy_scaleDef_orientDef_000.png","fearful","1","27","27","RdGy","orientDef","scaleDef","000","",""
"","","","","","html-slider-response","36","233899","0.0-32.0","tspt5a31e4","18","NaN","<div style=""width:500px;"">
                            <p style=""font-size:50px; font-weight:bold;""
                            >fearful</p>
                            <div style=""width:240px; margin: auto;"">
                                <img src=""images/map10_cividis_scaleDef_orientDef_180.png"" style= ""width:200px""alt=""img"">
                            </div>
                        </div>","120","","0","","","","images/map10_cividis_scaleDef_orientDef_180.png","fearful","1","10","10","cividis","orientDef","scaleDef","180","",""
"","","","","","html-slider-response","37","236396","0.0-33.0","tspt5a31e4","18","NaN","<div style=""width:500px;"">
                            <p style=""font-size:50px; font-weight:bold;""
                            >fearful</p>
                            <div style=""width:240px; margin: auto;"">
                                <img src=""images/map07_viridis_scaleDef_orientDef_180.png"" style= ""width:200px""alt=""img"">
                            </div>
                        </div>","15","","0","","","","images/map07_viridis_scaleDef_orientDef_180.png","fearful","1","07","07","viridis","orientDef","scaleDef","180","",""
"","","","","","html-slider-response","38","239013","0.0-34.0","tspt5a31e4","18","NaN","<div style=""width:500px;"">
                            <p style=""font-size:50px; font-weight:bold;""
                            >fearful</p>
                            <div style=""width:240px; margin: auto;"">
                                <img src=""images/map05_managua_scaleDef_orientDef_180.png"" style= ""width:200px""alt=""img"">
                            </div>
                        </div>","149","","0","","","","images/map05_managua_scaleDef_orientDef_180.png","fearful","1","05","05","managua","orientDef","scaleDef","180","",""
"","","","","","html-slider-response","39","243313","0.0-35.0","tspt5a31e4","18","NaN","<div style=""width:500px;"">
                            <p style=""font-size:50px; font-weight:bold;""
                            >fearful</p>
                            <div style=""width:240px; margin: auto;"">
                                <img src=""images/map12_Greens_scaleRev_orientDef_270.png"" style= ""width:200px""alt=""img"">
                            </div>
                        </div>","-20","","0","","","","images/map12_Greens_scaleRev_orientDef_270.png","fearful","1","12","12","Greens","orientDef","scaleRev","270","",""
"","","","","","html-slider-response","40","245530","0.0-36.0","tspt5a31e4","18","NaN","<div style=""width:500px;"">
                            <p style=""font-size:50px; font-weight:bold;""
                            >fearful</p>
                            <div style=""width:240px; margin: auto;"">
                                <img src=""images/map07_plasma_scaleRev_orientMir_090.png"" style= ""width:200px""alt=""img"">
                            </div>
                        </div>","-26","","0","","","","images/map07_plasma_scaleRev_orientMir_090.png","fearful","1","07","07","plasma","orientMir","scaleRev","090","",""
"","","","","","html-slider-response","41","248282","0.0-37.0","tspt5a31e4","18","NaN","<div style=""width:500px;"">
                            <p style=""font-size:50px; font-weight:bold;""
                            >fearful</p>
                            <div style=""width:240px; margin: auto;"">
                                <img src=""images/map23_PuBuGn_scaleDef_orientDef_180.png"" style= ""width:200px""alt=""img"">
                            </div>
                        </div>","-73","","0","","","","images/map23_PuBuGn_scaleDef_orientDef_180.png","fearful","1","23","23","PuBuGn","orientDef","scaleDef","180","",""
"","","","","","html-slider-response","42","250649","0.0-38.0","tspt5a31e4","18","NaN","<div style=""width:500px;"">
                            <p style=""font-size:50px; font-weight:bold;""
                            >fearful</p>
                            <div style=""width:240px; margin: auto;"">
                                <img src=""images/map02_bwr_scaleRev_orientMir_090.png"" style= ""width:200px""alt=""img"">
                            </div>
                        </div>","37","","0","","","","images/map02_bwr_scaleRev_orientMir_090.png","fearful","1","02","02","bwr","orientMir","scaleRev","090","",""
"","","","","","html-slider-response","43","253080","0.0-39.0","tspt5a31e4","18","NaN","<div style=""width:500px;"">
                            <p style=""font-size:50px; font-weight:bold;""
                            >fearful</p>
                            <div style=""width:240px; margin: auto;"">
                                <img src=""images/map02_Spectral_scaleRev_orientDef_090.png"" style= ""width:200px""alt=""img"">
                            </div>
                        </div>","66","","0","","","","images/map02_Spectral_scaleRev_orientDef_090.png","fearful","1","02","02","Spectral","orientDef","scaleRev","090","",""
"","","","","","html-slider-response","44","255130","0.0-40.0","tspt5a31e4","18","NaN","<div style=""width:500px;"">
                            <p style=""font-size:50px; font-weight:bold;""
                            >fearful</p>
                            <div style=""width:240px; margin: auto;"">
                                <img src=""images/map12_Reds_scaleRev_orientMir_270.png"" style= ""width:200px""alt=""img"">
                            </div>
                        </div>","96","","0","","","","images/map12_Reds_scaleRev_orientMir_270.png","fearful","1","12","12","Reds","orientMir","scaleRev","270","",""
"","","","","","html-slider-response","45","258679","0.0-41.0","tspt5a31e4","18","NaN","<div style=""width:500px;"">
                            <p style=""font-size:50px; font-weight:bold;""
                            >fearful</p>
                            <div style=""width:240px; margin: auto;"">
                                <img src=""images/map02_bwr_scaleDef_orientMir_000.png"" style= ""width:200px""alt=""img"">
                            </div>
                        </div>","52","","0","","","","images/map02_bwr_scaleDef_orientMir_000.png","fearful","1","02","02","bwr","orientMir","scaleDef","000","",""
"","","","","","html-slider-response","46","262697","0.0-42.0","tspt5a31e4","18","NaN","<div style=""width:500px;"">
                            <p style=""font-size:50px; font-weight:bold;""
                            >fearful</p>
                            <div style=""width:240px; margin: auto;"">
                                <img src=""images/map10_magma_scaleDef_orientDef_000.png"" style= ""width:200px""alt=""img"">
                            </div>
                        </div>","106","","0","","","","images/map10_magma_scaleDef_orientDef_000.png","fearful","1","10","10","magma","orientDef","scaleDef","000","",""
"","","","","","html-slider-response","47","265963","0.0-43.0","tspt5a31e4","18","NaN","<div style=""width:500px;"">
                            <p style=""font-size:50px; font-weight:bold;""
                            >fearful</p>
                            <div style=""width:240px; margin: auto;"">
                                <img src=""images/map07_inferno_scaleDef_orientMir_180.png"" style= ""width:200px""alt=""img"">
                            </div>
                        </div>","31","","0","","","","images/map07_inferno_scaleDef_orientMir_180.png","fearful","1","07","07","inferno","orientMir","scaleDef","180","",""
"","","","","","html-slider-response","48","269815","0.0-44.0","tspt5a31e4","18","NaN","<div style=""width:500px;"">
                            <p style=""font-size:50px; font-weight:bold;""
                            >fearful</p>
                            <div style=""width:240px; margin: auto;"">
                                <img src=""images/map07_turbo_scaleRev_orientDef_090.png"" style= ""width:200px""alt=""img"">
                            </div>
                        </div>","94","","0","","","","images/map07_turbo_scaleRev_orientDef_090.png","fearful","1","07","07","turbo","orientDef","scaleRev","090","",""
"","","","","","html-slider-response","49","271929","0.0-45.0","tspt5a31e4","18","NaN","<div style=""width:500px;"">
                            <p style=""font-size:50px; font-weight:bold;""
                            >fearful</p>
                            <div style=""width:240px; margin: auto;"">
                                <img src=""images/map27_RdBu_scaleDef_orientDef_180.png"" style= ""width:200px""alt=""img"">
                            </div>
                        </div>","66","","0","","","","images/map27_RdBu_scaleDef_orientDef_180.png","fearful","1","27","27","RdBu","orientDef","scaleDef","180","",""
"","","","","","html-slider-response","50","274980","0.0-46.0","tspt5a31e4","18","NaN","<div style=""width:500px;"">
                            <p style=""font-size:50px; font-weight:bold;""
                            >fearful</p>
                            <div style=""width:240px; margin: auto;"">
                                <img src=""images/map10_Purples_scaleDef_orientMir_180.png"" style= ""width:200px""alt=""img"">
                            </div>
                        </div>","62","","0","","","","images/map10_Purples_scaleDef_orientMir_180.png","fearful","1","10","10","Purples","orientMir","scaleDef","180","",""
"","","","","","html-slider-response","51","276996","0.0-47.0","tspt5a31e4","18","NaN","<div style=""width:500px;"">
                            <p style=""font-size:50px; font-weight:bold;""
                            >fearful</p>
                            <div style=""width:240px; margin: auto;"">
                                <img src=""images/map02_seismic_scaleDef_orientMir_180.png"" style= ""width:200px""alt=""img"">
                            </div>
                        </div>","84","","0","","","","images/map02_seismic_scaleDef_orientMir_180.png","fearful","1","02","02","seismic","orientMir","scaleDef","180","",""
"","","","","","html-slider-response","52","280613","0.0-48.0","tspt5a31e4","18","NaN","<div style=""width:500px;"">
                            <p style=""font-size:50px; font-weight:bold;""
                            >fearful</p>
                            <div style=""width:240px; margin: auto;"">
                                <img src=""images/map27_RdYlBu_scaleDef_orientMir_000.png"" style= ""width:200px""alt=""img"">
                            </div>
                        </div>","18","","0","","","","images/map27_RdYlBu_scaleDef_orientMir_000.png","fearful","1","27","27","RdYlBu","orientMir","scaleDef","000","",""
"","","","","","html-slider-response","53","282781","0.0-49.0","tspt5a31e4","18","NaN","<div style=""width:500px;"">
                            <p style=""font-size:50px; font-weight:bold;""
                            >fearful</p>
                            <div style=""width:240px; margin: auto;"">
                                <img src=""images/map05_vanimo_scaleDef_orientMir_000.png"" style= ""width:200px""alt=""img"">
                            </div>
                        </div>","200","","0","","","","images/map05_vanimo_scaleDef_orientMir_000.png","fearful","1","05","05","vanimo","orientMir","scaleDef","000","",""
"","","","","","html-slider-response","54","285646","0.0-50.0","tspt5a31e4","18","NaN","<div style=""width:500px;"">
                            <p style=""font-size:50px; font-weight:bold;""
                            >fearful</p>
                            <div style=""width:240px; margin: auto;"">
                                <img src=""images/map23_YlGnBu_scaleRev_orientDef_090.png"" style= ""width:200px""alt=""img"">
                            </div>
                        </div>","-28","","0","","","","images/map23_YlGnBu_scaleRev_orientDef_090.png","fearful","1","23","23","YlGnBu","orientDef","scaleRev","090","",""
"","","","","","html-slider-response","55","287879","0.0-51.0","tspt5a31e4","18","NaN","<div style=""width:500px;"">
                            <p style=""font-size:50px; font-weight:bold;""
                            >fearful</p>
                            <div style=""width:240px; margin: auto;"">
                                <img src=""images/map05_gist_earth_scaleRev_orientMir_270.png"" style= ""width:200px""alt=""img"">
                            </div>
                        </div>","123","","0","","","","images/map05_gist_earth_scaleRev_orientMir_270.png","fearful","1","05","05","gist","scaleRev","earth","orientMir","",""
"","","","","","html-slider-response","56","290014","0.0-52.0","tspt5a31e4","18","NaN","<div style=""width:500px;"">
                            <p style=""font-size:50px; font-weight:bold;""
                            >fearful</p>
                            <div style=""width:240px; margin: auto;"">
                                <img src=""images/map15_PuBu_scaleDef_orientMir_180.png"" style= ""width:200px""alt=""img"">
                            </div>
                        </div>","-53","","0","","","","images/map15_PuBu_scaleDef_orientMir_180.png","fearful","1","15","15","PuBu","orientMir","scaleDef","180","",""
"","","","","","html-slider-response","57","292263","0.0-53.0","tspt5a31e4","18","NaN","<div style=""width:500px;"">
                            <p style=""font-size:50px; font-weight:bold;""
                            >fearful</p>
                            <div style=""width:240px; margin: auto;"">
                                <img src=""images/map12_Greens_scaleDef_orientDef_180.png"" style= ""width:200px""alt=""img"">
                            </div>
                        </div>","-12","","0","","","","images/map12_Greens_scaleDef_orientDef_180.png","fearful","1","12","12","Greens","orientDef","scaleDef","180","",""
"","","","","","html-button-response","58","294335","0.0-54.0","tspt5a31e4","18","1570","<p>You are doing great!<br></br> You are halway done with the current block. When you are ready to continue, click the 'Continue' button.</p>","0","","","","","","","","","","","","","","","",""
"","","","","","html-slider-response","59","296546","0.0-55.0","tspt5a31e4","18","NaN","<div style=""width:500px;"">
                            <p style=""font-size:50px; font-weight:bold;""
                            >fearful</p>
                            <div style=""width:240px; margin: auto;"">
                                <img src=""images/map27_RdYlGn_scaleDef_orientMir_180.png"" style= ""width:200px""alt=""img"">
                            </div>
                        </div>","36","","0","","","","images/map27_RdYlGn_scaleDef_orientMir_180.png","fearful","1","27","27","RdYlGn","orientMir","scaleDef","180","",""
"","","","","","html-slider-response","60","299663","0.0-56.0","tspt5a31e4","18","NaN","<div style=""width:500px;"">
                            <p style=""font-size:50px; font-weight:bold;""
                            >fearful</p>
                            <div style=""width:240px; margin: auto;"">
                                <img src=""images/map07_turbo_scaleDef_orientDef_000.png"" style= ""width:200px""alt=""img"">
                            </div>
                        </div>","52","","0","","","","images/map07_turbo_scaleDef_orientDef_000.png","fearful","1","07","07","turbo","orientDef","scaleDef","000","",""
"","","","","","html-slider-response","61","301799","0.0-57.0","tspt5a31e4","18","NaN","<div style=""width:500px;"">
                            <p style=""font-size:50px; font-weight:bold;""
                            >fearful</p>
                            <div style=""width:240px; margin: auto;"">
                                <img src=""images/map15_BuPu_scaleDef_orientDef_180.png"" style= ""width:200px""alt=""img"">
                            </div>
                        </div>","-28","","0","","","","images/map15_BuPu_scaleDef_orientDef_180.png","fearful","1","15","15","BuPu","orientDef","scaleDef","180","",""
"","","","","","html-slider-response","62","303630","0.0-58.0","tspt5a31e4","18","NaN","<div style=""width:500px;"">
                            <p style=""font-size:50px; font-weight:bold;""
                            >fearful</p>
                            <div style=""width:240px; margin: auto;"">
                                <img src=""images/map15_RdPu_scaleRev_orientDef_090.png"" style= ""width:200px""alt=""img"">
                            </div>
                        </div>","-22","","0","","","","images/map15_RdPu_scaleRev_orientDef_090.png","fearful","1","15","15","RdPu","orientDef","scaleRev","090","",""
"","","","","","html-slider-response","63","305863","0.0-59.0","tspt5a31e4","18","NaN","<div style=""width:500px;"">
                            <p style=""font-size:50px; font-weight:bold;""
                            >fearful</p>
                            <div style=""width:240px; margin: auto;"">
                                <img src=""images/map27_RdBu_scaleRev_orientDef_270.png"" style= ""width:200px""alt=""img"">
                            </div>
                        </div>","49","","0","","","","images/map27_RdBu_scaleRev_orientDef_270.png","fearful","1","27","27","RdBu","orientDef","scaleRev","270","",""
"","","","","","html-slider-response","64","307713","0.0-60.0","tspt5a31e4","18","NaN","<div style=""width:500px;"">
                            <p style=""font-size:50px; font-weight:bold;""
                            >fearful</p>
                            <div style=""width:240px; margin: auto;"">
                                <img src=""images/map26_BrBG_scaleDef_orientMir_000.png"" style= ""width:200px""alt=""img"">
                            </div>
                        </div>","81","","0","","","","images/map26_BrBG_scaleDef_orientMir_000.png","fearful","1","26","26","BrBG","orientMir","scaleDef","000","",""
"","","","","","html-slider-response","65","309930","0.0-61.0","tspt5a31e4","18","NaN","<div style=""width:500px;"">
                            <p style=""font-size:50px; font-weight:bold;""
                            >fearful</p>
                            <div style=""width:240px; margin: auto;"">
                                <img src=""images/map26_PuOr_scaleRev_orientMir_270.png"" style= ""width:200px""alt=""img"">
                            </div>
                        </div>","66","","0","","","","images/map26_PuOr_scaleRev_orientMir_270.png","fearful","1","26","26","PuOr","orientMir","scaleRev","270","",""
"","","","","","html-slider-response","66","311633","0.0-62.0","tspt5a31e4","18","NaN","<div style=""width:500px;"">
                            <p style=""font-size:50px; font-weight:bold;""
                            >fearful</p>
                            <div style=""width:240px; margin: auto;"">
                                <img src=""images/map15_RdPu_scaleDef_orientDef_000.png"" style= ""width:200px""alt=""img"">
                            </div>
                        </div>","-18","","0","","","","images/map15_RdPu_scaleDef_orientDef_000.png","fearful","1","15","15","RdPu","orientDef","scaleDef","000","",""
"","","","","","html-slider-response","67","314546","0.0-63.0","tspt5a31e4","18","NaN","<div style=""width:500px;"">
                            <p style=""font-size:50px; font-weight:bold;""
                            >fearful</p>
                            <div style=""width:240px; margin: auto;"">
                                <img src=""images/map26_PRGn_scaleRev_orientDef_270.png"" style= ""width:200px""alt=""img"">
                            </div>
                        </div>","20","","0","","","","images/map26_PRGn_scaleRev_orientDef_270.png","fearful","1","26","26","PRGn","orientDef","scaleRev","270","",""
"","","","","","html-slider-response","68","316312","0.0-64.0","tspt5a31e4","18","NaN","<div style=""width:500px;"">
                            <p style=""font-size:50px; font-weight:bold;""
                            >fearful</p>
                            <div style=""width:240px; margin: auto;"">
                                <img src=""images/map26_PiYG_scaleRev_orientDef_090.png"" style= ""width:200px""alt=""img"">
                            </div>
                        </div>","26","","0","","","","images/map26_PiYG_scaleRev_orientDef_090.png","fearful","1","26","26","PiYG","orientDef","scaleRev","090","",""
"","","","","","html-slider-response","69","318762","0.0-65.0","tspt5a31e4","18","NaN","<div style=""width:500px;"">
                            <p style=""font-size:50px; font-weight:bold;""
                            >fearful</p>
                            <div style=""width:240px; margin: auto;"">
                                <img src=""images/map05_berlin_scaleRev_orientDef_090.png"" style= ""width:200px""alt=""img"">
                            </div>
                        </div>","200","","0","","","","images/map05_berlin_scaleRev_orientDef_090.png","fearful","1","05","05","berlin","orientDef","scaleRev","090","",""
"","","","","","html-slider-response","70","321130","0.0-66.0","tspt5a31e4","18","NaN","<div style=""width:500px;"">
                            <p style=""font-size:50px; font-weight:bold;""
                            >fearful</p>
                            <div style=""width:240px; margin: auto;"">
                                <img src=""images/map15_GnBu_scaleRev_orientMir_090.png"" style= ""width:200px""alt=""img"">
                            </div>
                        </div>","-156","","0","","","","images/map15_GnBu_scaleRev_orientMir_090.png","fearful","1","15","15","GnBu","orientMir","scaleRev","090","",""
"","","","","","html-slider-response","71","323082","0.0-67.0","tspt5a31e4","18","NaN","<div style=""width:500px;"">
                            <p style=""font-size:50px; font-weight:bold;""
                            >fearful</p>
                            <div style=""width:240px; margin: auto;"">
                                <img src=""images/map27_RdYlGn_scaleRev_orientMir_270.png"" style= ""width:200px""alt=""img"">
                            </div>
                        </div>","93","","0","","","","images/map27_RdYlGn_scaleRev_orientMir_270.png","fearful","1","27","27","RdYlGn","orientMir","scaleRev","270","",""
"","","","","","html-slider-response","72","325281","0.0-68.0","tspt5a31e4","18","NaN","<div style=""width:500px;"">
                            <p style=""font-size:50px; font-weight:bold;""
                            >fearful</p>
                            <div style=""width:240px; margin: auto;"">
                                <img src=""images/map12_Oranges_scaleRev_orientMir_090.png"" style= ""width:200px""alt=""img"">
                            </div>
                        </div>","61","","0","","","","images/map12_Oranges_scaleRev_orientMir_090.png","fearful","1","12","12","Oranges","orientMir","scaleRev","090","",""
"","","","","","html-slider-response","73","326847","0.0-69.0","tspt5a31e4","18","NaN","<div style=""width:500px;"">
                            <p style=""font-size:50px; font-weight:bold;""
                            >fearful</p>
                            <div style=""width:240px; margin: auto;"">
                                <img src=""images/map05_vanimo_scaleRev_orientMir_090.png"" style= ""width:200px""alt=""img"">
                            </div>
                        </div>","200","","0","","","","images/map05_vanimo_scaleRev_orientMir_090.png","fearful","1","05","05","vanimo","orientMir","scaleRev","090","",""
"","","","","","html-slider-response","74","328712","0.0-70.0","tspt5a31e4","18","NaN","<div style=""width:500px;"">
                            <p style=""font-size:50px; font-weight:bold;""
                            >fearful</p>
                            <div style=""width:240px; margin: auto;"">
                                <img src=""images/map23_YlGn_scaleRev_orientMir_270.png"" style= ""width:200px""alt=""img"">
                            </div>
                        </div>","34","","0","","","","images/map23_YlGn_scaleRev_orientMir_270.png","fearful","1","23","23","YlGn","orientMir","scaleRev","270","",""
"","","","","","html-slider-response","75","330846","0.0-71.0","tspt5a31e4","18","NaN","<div style=""width:500px;"">
                            <p style=""font-size:50px; font-weight:bold;""
                            >fearful</p>
                            <div style=""width:240px; margin: auto;"">
                                <img src=""images/map07_plasma_scaleDef_orientMir_000.png"" style= ""width:200px""alt=""img"">
                            </div>
                        </div>","18","","0","","","","images/map07_plasma_scaleDef_orientMir_000.png","fearful","1","07","07","plasma","orientMir","scaleDef","000","",""
"","","","","","html-slider-response","76","333899","0.0-72.0","tspt5a31e4","18","NaN","<div style=""width:500px;"">
                            <p style=""font-size:50px; font-weight:bold;""
                            >fearful</p>
                            <div style=""width:240px; margin: auto;"">
                                <img src=""images/map15_PuBu_scaleRev_orientMir_270.png"" style= ""width:200px""alt=""img"">
                            </div>
                        </div>","-200","","0","","","","images/map15_PuBu_scaleRev_orientMir_270.png","fearful","1","15","15","PuBu","orientMir","scaleRev","270","",""
"","","","","","html-slider-response","77","336012","0.0-73.0","tspt5a31e4","18","NaN","<div style=""width:500px;"">
                            <p style=""font-size:50px; font-weight:bold;""
                            >fearful</p>
                            <div style=""width:240px; margin: auto;"">
                                <img src=""images/map23_BuGn_scaleRev_orientMir_090.png"" style= ""width:200px""alt=""img"">
                            </div>
                        </div>","53","","0","","","","images/map23_BuGn_scaleRev_orientMir_090.png","fearful","1","23","23","BuGn","orientMir","scaleRev","090","",""
"","","","","","html-slider-response","78","337813","0.0-74.0","tspt5a31e4","18","NaN","<div style=""width:500px;"">
                            <p style=""font-size:50px; font-weight:bold;""
                            >fearful</p>
                            <div style=""width:240px; margin: auto;"">
                                <img src=""images/map02_seismic_scaleRev_orientMir_270.png"" style= ""width:200px""alt=""img"">
                            </div>
                        </div>","57","","0","","","","images/map02_seismic_scaleRev_orientMir_270.png","fearful","1","02","02","seismic","orientMir","scaleRev","270","",""
"","","","","","html-slider-response","79","339863","0.0-75.0","tspt5a31e4","18","NaN","<div style=""width:500px;"">
                            <p style=""font-size:50px; font-weight:bold;""
                            >fearful</p>
                            <div style=""width:240px; margin: auto;"">
                                <img src=""images/map02_Spectral_scaleDef_orientDef_000.png"" style= ""width:200px""alt=""img"">
                            </div>
                        </div>","70","","0","","","","images/map02_Spectral_scaleDef_orientDef_000.png","fearful","1","02","02","Spectral","orientDef","scaleDef","000","",""
"","","","","","html-slider-response","80","341430","0.0-76.0","tspt5a31e4","18","NaN","<div style=""width:500px;"">
                            <p style=""font-size:50px; font-weight:bold;""
                            >fearful</p>
                            <div style=""width:240px; margin: auto;"">
                                <img src=""images/map05_managua_scaleRev_orientDef_270.png"" style= ""width:200px""alt=""img"">
                            </div>
                        </div>","200","","0","","","","images/map05_managua_scaleRev_orientDef_270.png","fearful","1","05","05","managua","orientDef","scaleRev","270","",""
"","","","","","html-slider-response","81","343262","0.0-77.0","tspt5a31e4","18","NaN","<div style=""width:500px;"">
                            <p style=""font-size:50px; font-weight:bold;""
                            >fearful</p>
                            <div style=""width:240px; margin: auto;"">
                                <img src=""images/map07_viridis_scaleRev_orientDef_270.png"" style= ""width:200px""alt=""img"">
                            </div>
                        </div>","69","","0","","","","images/map07_viridis_scaleRev_orientDef_270.png","fearful","1","07","07","viridis","orientDef","scaleRev","270","",""
"","","","","","html-slider-response","82","361964","0.0-78.0","tspt5a31e4","18","NaN","<div style=""width:500px;"">
                            <p style=""font-size:50px; font-weight:bold;""
                            >fearful</p>
                            <div style=""width:240px; margin: auto;"">
                                <img src=""images/map10_Purples_scaleRev_orientMir_270.png"" style= ""width:200px""alt=""img"">
                            </div>
                        </div>","-20","","0","","","","images/map10_Purples_scaleRev_orientMir_270.png","fearful","1","10","10","Purples","orientMir","scaleRev","270","",""
"","","","","","html-slider-response","83","363813","0.0-79.0","tspt5a31e4","18","NaN","<div style=""width:500px;"">
                            <p style=""font-size:50px; font-weight:bold;""
                            >fearful</p>
                            <div style=""width:240px; margin: auto;"">
                                <img src=""images/map23_YlGnBu_scaleDef_orientDef_000.png"" style= ""width:200px""alt=""img"">
                            </div>
                        </div>","39","","0","","","","images/map23_YlGnBu_scaleDef_orientDef_000.png","fearful","1","23","23","YlGnBu","orientDef","scaleDef","000","",""
"","","","","","html-slider-response","84","365813","0.0-80.0","tspt5a31e4","18","NaN","<div style=""width:500px;"">
                            <p style=""font-size:50px; font-weight:bold;""
                            >fearful</p>
                            <div style=""width:240px; margin: auto;"">
                                <img src=""images/map13_OrRd_scaleRev_orientMir_090.png"" style= ""width:200px""alt=""img"">
                            </div>
                        </div>","61","","0","","","","images/map13_OrRd_scaleRev_orientMir_090.png","fearful","1","13","13","OrRd","orientMir","scaleRev","090","",""
"","","","","","html-slider-response","85","367612","0.0-81.0","tspt5a31e4","18","NaN","<div style=""width:500px;"">
                            <p style=""font-size:50px; font-weight:bold;""
                            >fearful</p>
                            <div style=""width:240px; margin: auto;"">
                                <img src=""images/map26_BrBG_scaleRev_orientMir_090.png"" style= ""width:200px""alt=""img"">
                            </div>
                        </div>","43","","0","","","","images/map26_BrBG_scaleRev_orientMir_090.png","fearful","1","26","26","BrBG","orientMir","scaleRev","090","",""
"","","","","","html-slider-response","86","369895","0.0-82.0","tspt5a31e4","18","NaN","<div style=""width:500px;"">
                            <p style=""font-size:50px; font-weight:bold;""
                            >fearful</p>
                            <div style=""width:240px; margin: auto;"">
                                <img src=""images/map12_Oranges_scaleDef_orientMir_000.png"" style= ""width:200px""alt=""img"">
                            </div>
                        </div>","-44","","0","","","","images/map12_Oranges_scaleDef_orientMir_000.png","fearful","1","12","12","Oranges","orientMir","scaleDef","000","",""
"","","","","","html-slider-response","87","371779","0.0-83.0","tspt5a31e4","18","NaN","<div style=""width:500px;"">
                            <p style=""font-size:50px; font-weight:bold;""
                            >fearful</p>
                            <div style=""width:240px; margin: auto;"">
                                <img src=""images/map27_RdYlBu_scaleRev_orientMir_090.png"" style= ""width:200px""alt=""img"">
                            </div>
                        </div>","66","","0","","","","images/map27_RdYlBu_scaleRev_orientMir_090.png","fearful","1","27","27","RdYlBu","orientMir","scaleRev","090","",""
"","","","","","html-slider-response","88","373931","0.0-84.0","tspt5a31e4","18","NaN","<div style=""width:500px;"">
                            <p style=""font-size:50px; font-weight:bold;""
                            >fearful</p>
                            <div style=""width:240px; margin: auto;"">
                                <img src=""images/map10_Greys_scaleDef_orientMir_000.png"" style= ""width:200px""alt=""img"">
                            </div>
                        </div>","200","","0","","","","images/map10_Greys_scaleDef_orientMir_000.png","fearful","1","10","10","Greys","orientMir","scaleDef","000","",""
"","","","","","html-slider-response","89","376612","0.0-85.0","tspt5a31e4","18","NaN","<div style=""width:500px;"">
                            <p style=""font-size:50px; font-weight:bold;""
                            >fearful</p>
                            <div style=""width:240px; margin: auto;"">
                                <img src=""images/map23_YlGn_scaleDef_orientMir_180.png"" style= ""width:200px""alt=""img"">
                            </div>
                        </div>","14","","0","","","","images/map23_YlGn_scaleDef_orientMir_180.png","fearful","1","23","23","YlGn","orientMir","scaleDef","180","",""
"","","","","","html-slider-response","90","379013","0.0-86.0","tspt5a31e4","18","NaN","<div style=""width:500px;"">
                            <p style=""font-size:50px; font-weight:bold;""
                            >fearful</p>
                            <div style=""width:240px; margin: auto;"">
                                <img src=""images/map13_YlOrBr_scaleDef_orientDef_000.png"" style= ""width:200px""alt=""img"">
                            </div>
                        </div>","25","","0","","","","images/map13_YlOrBr_scaleDef_orientDef_000.png","fearful","1","13","13","YlOrBr","orientDef","scaleDef","000","",""
"","","","","","html-slider-response","91","380729","0.0-87.0","tspt5a31e4","18","NaN","<div style=""width:500px;"">
                            <p style=""font-size:50px; font-weight:bold;""
                            >fearful</p>
                            <div style=""width:240px; margin: auto;"">
                                <img src=""images/map26_PiYG_scaleDef_orientDef_000.png"" style= ""width:200px""alt=""img"">
                            </div>
                        </div>","50","","0","","","","images/map26_PiYG_scaleDef_orientDef_000.png","fearful","1","26","26","PiYG","orientDef","scaleDef","000","",""
"","","","","","html-slider-response","92","382696","0.0-88.0","tspt5a31e4","18","NaN","<div style=""width:500px;"">
                            <p style=""font-size:50px; font-weight:bold;""
                            >fearful</p>
                            <div style=""width:240px; margin: auto;"">
                                <img src=""images/map10_magma_scaleRev_orientDef_090.png"" style= ""width:200px""alt=""img"">
                            </div>
                        </div>","109","","0","","","","images/map10_magma_scaleRev_orientDef_090.png","fearful","1","10","10","magma","orientDef","scaleRev","090","",""
"","","","","","html-slider-response","93","384430","0.0-89.0","tspt5a31e4","18","NaN","<div style=""width:500px;"">
                            <p style=""font-size:50px; font-weight:bold;""
                            >fearful</p>
                            <div style=""width:240px; margin: auto;"">
                                <img src=""images/map26_PuOr_scaleDef_orientMir_180.png"" style= ""width:200px""alt=""img"">
                            </div>
                        </div>","44","","0","","","","images/map26_PuOr_scaleDef_orientMir_180.png","fearful","1","26","26","PuOr","orientMir","scaleDef","180","",""
"","","","","","html-slider-response","94","386497","0.0-90.0","tspt5a31e4","18","NaN","<div style=""width:500px;"">
                            <p style=""font-size:50px; font-weight:bold;""
                            >fearful</p>
                            <div style=""width:240px; margin: auto;"">
                                <img src=""images/map15_BuPu_scaleRev_orientDef_270.png"" style= ""width:200px""alt=""img"">
                            </div>
                        </div>","-92","","0","","","","images/map15_BuPu_scaleRev_orientDef_270.png","fearful","1","15","15","BuPu","orientDef","scaleRev","270","",""
"","","","","","html-slider-response","95","388378","0.0-91.0","tspt5a31e4","18","NaN","<div style=""width:500px;"">
                            <p style=""font-size:50px; font-weight:bold;""
                            >fearful</p>
                            <div style=""width:240px; margin: auto;"">
                                <img src=""images/map13_YlOrBr_scaleRev_orientDef_090.png"" style= ""width:200px""alt=""img"">
                            </div>
                        </div>","30","","0","","","","images/map13_YlOrBr_scaleRev_orientDef_090.png","fearful","1","13","13","YlOrBr","orientDef","scaleRev","090","",""
"","","","","","html-slider-response","96","390046","0.0-92.0","tspt5a31e4","18","NaN","<div style=""width:500px;"">
                            <p style=""font-size:50px; font-weight:bold;""
                            >fearful</p>
                            <div style=""width:240px; margin: auto;"">
                                <img src=""images/map13_YlOrRd_scaleRev_orientDef_270.png"" style= ""width:200px""alt=""img"">
                            </div>
                        </div>","58","","0","","","","images/map13_YlOrRd_scaleRev_orientDef_270.png","fearful","1","13","13","YlOrRd","orientDef","scaleRev","270","",""
"","","","","","html-slider-response","97","391462","0.0-93.0","tspt5a31e4","18","NaN","<div style=""width:500px;"">
                            <p style=""font-size:50px; font-weight:bold;""
                            >fearful</p>
                            <div style=""width:240px; margin: auto;"">
                                <img src=""images/map13_YlOrRd_scaleDef_orientDef_180.png"" style= ""width:200px""alt=""img"">
                            </div>
                        </div>","56","","0","","","","images/map13_YlOrRd_scaleDef_orientDef_180.png","fearful","1","13","13","YlOrRd","orientDef","scaleDef","180","",""
"","","","","","html-slider-response","98","393112","0.0-94.0","tspt5a31e4","18","NaN","<div style=""width:500px;"">
                            <p style=""font-size:50px; font-weight:bold;""
                            >fearful</p>
                            <div style=""width:240px; margin: auto;"">
                                <img src=""images/map10_Greys_scaleRev_orientMir_090.png"" style= ""width:200px""alt=""img"">
                            </div>
                        </div>","200","","0","","","","images/map10_Greys_scaleRev_orientMir_090.png","fearful","1","10","10","Greys","orientMir","scaleRev","090","",""
"","","","","","html-button-response","99","396584","0.0-95.0","tspt5a31e4","18","2970","<p>Great Job! You've finished block 1.<br></br> You have 4 block(s) left to go.<br></br></p>","0","","","","","","","","","","","","","","","",""
"","","","","","html-button-response","100","397968","0.0-96.0","tspt5a31e4","18","1382","<p>In this block of trials, you will be asked to rate how much you associate each map with:</p > <p style = 'font-size:150%; font-weight: bold'>happy</p><br></br>","0","","","","","","","","","","","","","","","",""
"","","","","","html-slider-response","101","400278","0.0-97.0","tspt5a31e4","18","NaN","<div style=""width:500px;"">
                            <p style=""font-size:50px; font-weight:bold;""
                            >happy</p>
                            <div style=""width:240px; margin: auto;"">
                                <img src=""images/map23_PuBuGn_scaleRev_orientDef_270.png"" style= ""width:200px""alt=""img"">
                            </div>
                        </div>","-74","","0","","","","images/map23_PuBuGn_scaleRev_orientDef_270.png","happy","1","23","23","PuBuGn","orientDef","scaleRev","270","",""
"","","","","","html-slider-response","102","402597","0.0-98.0","tspt5a31e4","18","NaN","<div style=""width:500px;"">
                            <p style=""font-size:50px; font-weight:bold;""
                            >happy</p>
                            <div style=""width:240px; margin: auto;"">
                                <img src=""images/map15_RdPu_scaleDef_orientDef_000.png"" style= ""width:200px""alt=""img"">
                            </div>
                        </div>","86","","0","","","","images/map15_RdPu_scaleDef_orientDef_000.png","happy","1","15","15","RdPu","orientDef","scaleDef","000","",""
"","","","","","html-slider-response","103","406048","0.0-99.0","tspt5a31e4","18","NaN","<div style=""width:500px;"">
                            <p style=""font-size:50px; font-weight:bold;""
                            >happy</p>
                            <div style=""width:240px; margin: auto;"">
                                <img src=""images/map15_GnBu_scaleDef_orientMir_000.png"" style= ""width:200px""alt=""img"">
                            </div>
                        </div>","18","","0","","","","images/map15_GnBu_scaleDef_orientMir_000.png","happy","1","15","15","GnBu","orientMir","scaleDef","000","",""
"","","","","","html-slider-response","104","407846","0.0-100.0","tspt5a31e4","18","NaN","<div style=""width:500px;"">
                            <p style=""font-size:50px; font-weight:bold;""
                            >happy</p>
                            <div style=""width:240px; margin: auto;"">
                                <img src=""images/map12_Blues_scaleDef_orientDef_000.png"" style= ""width:200px""alt=""img"">
                            </div>
                        </div>","-70","","0","","","","images/map12_Blues_scaleDef_orientDef_000.png","happy","1","12","12","Blues","orientDef","scaleDef","000","",""
"","","","","","html-slider-response","105","410262","0.0-101.0","tspt5a31e4","18","NaN","<div style=""width:500px;"">
                            <p style=""font-size:50px; font-weight:bold;""
                            >happy</p>
                            <div style=""width:240px; margin: auto;"">
                                <img src=""images/map02_bwr_scaleRev_orientMir_090.png"" style= ""width:200px""alt=""img"">
                            </div>
                        </div>","92","","0","","","","images/map02_bwr_scaleRev_orientMir_090.png","happy","1","02","02","bwr","orientMir","scaleRev","090","",""
"","","","","","html-slider-response","106","412312","0.0-102.0","tspt5a31e4","18","NaN","<div style=""width:500px;"">
                            <p style=""font-size:50px; font-weight:bold;""
                            >happy</p>
                            <div style=""width:240px; margin: auto;"">
                                <img src=""images/map26_PiYG_scaleRev_orientDef_090.png"" style= ""width:200px""alt=""img"">
                            </div>
                        </div>","200","","0","","","","images/map26_PiYG_scaleRev_orientDef_090.png","happy","1","26","26","PiYG","orientDef","scaleRev","090","",""
"","","","","","html-slider-response","107","414546","0.0-103.0","tspt5a31e4","18","NaN","<div style=""width:500px;"">
                            <p style=""font-size:50px; font-weight:bold;""
                            >happy</p>
                            <div style=""width:240px; margin: auto;"">
                                <img src=""images/map10_cividis_scaleDef_orientDef_180.png"" style= ""width:200px""alt=""img"">
                            </div>
                        </div>","-200","","0","","","","images/map10_cividis_scaleDef_orientDef_180.png","happy","1","10","10","cividis","orientDef","scaleDef","180","",""
"","","","","","html-slider-response","108","416964","0.0-104.0","tspt5a31e4","18","NaN","<div style=""width:500px;"">
                            <p style=""font-size:50px; font-weight:bold;""
                            >happy</p>
                            <div style=""width:240px; margin: auto;"">
                                <img src=""images/map27_RdGy_scaleRev_orientDef_090.png"" style= ""width:200px""alt=""img"">
                            </div>
                        </div>","-200","","0","","","","images/map27_RdGy_scaleRev_orientDef_090.png","happy","1","27","27","RdGy","orientDef","scaleRev","090","",""
"","","","","","html-slider-response","109","418745","0.0-105.0","tspt5a31e4","18","NaN","<div style=""width:500px;"">
                            <p style=""font-size:50px; font-weight:bold;""
                            >happy</p>
                            <div style=""width:240px; margin: auto;"">
                                <img src=""images/map05_vanimo_scaleDef_orientMir_000.png"" style= ""width:200px""alt=""img"">
                            </div>
                        </div>","-200","","0","","","","images/map05_vanimo_scaleDef_orientMir_000.png","happy","1","05","05","vanimo","orientMir","scaleDef","000","",""
"","","","","","html-slider-response","110","421871","0.0-106.0","tspt5a31e4","18","NaN","<div style=""width:500px;"">
                            <p style=""font-size:50px; font-weight:bold;""
                            >happy</p>
                            <div style=""width:240px; margin: auto;"">
                                <img src=""images/map13_OrRd_scaleRev_orientMir_090.png"" style= ""width:200px""alt=""img"">
                            </div>
                        </div>","-96","","0","","","","images/map13_OrRd_scaleRev_orientMir_090.png","happy","1","13","13","OrRd","orientMir","scaleRev","090","",""
"","","","","","html-slider-response","111","423912","0.0-107.0","tspt5a31e4","18","NaN","<div style=""width:500px;"">
                            <p style=""font-size:50px; font-weight:bold;""
                            >happy</p>
                            <div style=""width:240px; margin: auto;"">
                                <img src=""images/map05_vanimo_scaleRev_orientMir_090.png"" style= ""width:200px""alt=""img"">
                            </div>
                        </div>","-200","","0","","","","images/map05_vanimo_scaleRev_orientMir_090.png","happy","1","05","05","vanimo","orientMir","scaleRev","090","",""
"","","","","","html-slider-response","112","426531","0.0-108.0","tspt5a31e4","18","NaN","<div style=""width:500px;"">
                            <p style=""font-size:50px; font-weight:bold;""
                            >happy</p>
                            <div style=""width:240px; margin: auto;"">
                                <img src=""images/map13_YlOrRd_scaleDef_orientDef_180.png"" style= ""width:200px""alt=""img"">
                            </div>
                        </div>","-98","","0","","","","images/map13_YlOrRd_scaleDef_orientDef_180.png","happy","1","13","13","YlOrRd","orientDef","scaleDef","180","",""
"","","","","","html-slider-response","113","430164","0.0-109.0","tspt5a31e4","18","NaN","<div style=""width:500px;"">
                            <p style=""font-size:50px; font-weight:bold;""
                            >happy</p>
                            <div style=""width:240px; margin: auto;"">
                                <img src=""images/map26_PRGn_scaleRev_orientDef_270.png"" style= ""width:200px""alt=""img"">
                            </div>
                        </div>","-66","","0","","","","images/map26_PRGn_scaleRev_orientDef_270.png","happy","1","26","26","PRGn","orientDef","scaleRev","270","",""
"","","","","","html-slider-response","114","433130","0.0-110.0","tspt5a31e4","18","NaN","<div style=""width:500px;"">
                            <p style=""font-size:50px; font-weight:bold;""
                            >happy</p>
                            <div style=""width:240px; margin: auto;"">
                                <img src=""images/map12_Reds_scaleRev_orientMir_270.png"" style= ""width:200px""alt=""img"">
                            </div>
                        </div>","-4","","0","","","","images/map12_Reds_scaleRev_orientMir_270.png","happy","1","12","12","Reds","orientMir","scaleRev","270","",""
"","","","","","html-slider-response","115","435779","0.0-111.0","tspt5a31e4","18","NaN","<div style=""width:500px;"">
                            <p style=""font-size:50px; font-weight:bold;""
                            >happy</p>
                            <div style=""width:240px; margin: auto;"">
                                <img src=""images/map15_PuBu_scaleRev_orientMir_270.png"" style= ""width:200px""alt=""img"">
                            </div>
                        </div>","110","","0","","","","images/map15_PuBu_scaleRev_orientMir_270.png","happy","1","15","15","PuBu","orientMir","scaleRev","270","",""
"","","","","","html-slider-response","116","437915","0.0-112.0","tspt5a31e4","18","NaN","<div style=""width:500px;"">
                            <p style=""font-size:50px; font-weight:bold;""
                            >happy</p>
                            <div style=""width:240px; margin: auto;"">
                                <img src=""images/map05_gist_earth_scaleRev_orientMir_270.png"" style= ""width:200px""alt=""img"">
                            </div>
                        </div>","-200","","0","","","","images/map05_gist_earth_scaleRev_orientMir_270.png","happy","1","05","05","gist","scaleRev","earth","orientMir","",""
"","","","","","html-slider-response","117","440512","0.0-113.0","tspt5a31e4","18","NaN","<div style=""width:500px;"">
                            <p style=""font-size:50px; font-weight:bold;""
                            >happy</p>
                            <div style=""width:240px; margin: auto;"">
                                <img src=""images/map07_turbo_scaleDef_orientDef_000.png"" style= ""width:200px""alt=""img"">
                            </div>
                        </div>","35","","0","","","","images/map07_turbo_scaleDef_orientDef_000.png","happy","1","07","07","turbo","orientDef","scaleDef","000","",""
"","","","","","html-slider-response","118","443362","0.0-114.0","tspt5a31e4","18","NaN","<div style=""width:500px;"">
                            <p style=""font-size:50px; font-weight:bold;""
                            >happy</p>
                            <div style=""width:240px; margin: auto;"">
                                <img src=""images/map23_YlGn_scaleRev_orientMir_270.png"" style= ""width:200px""alt=""img"">
                            </div>
                        </div>","-10","","0","","","","images/map23_YlGn_scaleRev_orientMir_270.png","happy","1","23","23","YlGn","orientMir","scaleRev","270","",""
"","","","","","html-slider-response","119","447878","0.0-115.0","tspt5a31e4","18","NaN","<div style=""width:500px;"">
                            <p style=""font-size:50px; font-weight:bold;""
                            >happy</p>
                            <div style=""width:240px; margin: auto;"">
                                <img src=""images/map13_YlOrBr_scaleRev_orientDef_090.png"" style= ""width:200px""alt=""img"">
                            </div>
                        </div>","76","","0","","","","images/map13_YlOrBr_scaleRev_orientDef_090.png","happy","1","13","13","YlOrBr","orientDef","scaleRev","090","",""
"","","","","","html-slider-response","120","450014","0.0-116.0","tspt5a31e4","18","NaN","<div style=""width:500px;"">
                            <p style=""font-size:50px; font-weight:bold;""
                            >happy</p>
                            <div style=""width:240px; margin: auto;"">
                                <img src=""images/map23_YlGnBu_scaleRev_orientDef_090.png"" style= ""width:200px""alt=""img"">
                            </div>
                        </div>","-62","","0","","","","images/map23_YlGnBu_scaleRev_orientDef_090.png","happy","1","23","23","YlGnBu","orientDef","scaleRev","090","",""
"","","","","","html-slider-response","121","452762","0.0-117.0","tspt5a31e4","18","NaN","<div style=""width:500px;"">
                            <p style=""font-size:50px; font-weight:bold;""
                            >happy</p>
                            <div style=""width:240px; margin: auto;"">
                                <img src=""images/map02_Spectral_scaleDef_orientDef_000.png"" style= ""width:200px""alt=""img"">
                            </div>
                        </div>","-70","","0","","","","images/map02_Spectral_scaleDef_orientDef_000.png","happy","1","02","02","Spectral","orientDef","scaleDef","000","",""
"","","","","","html-slider-response","122","455146","0.0-118.0","tspt5a31e4","18","NaN","<div style=""width:500px;"">
                            <p style=""font-size:50px; font-weight:bold;""
                            >happy</p>
                            <div style=""width:240px; margin: auto;"">
                                <img src=""images/map05_berlin_scaleDef_orientDef_000.png"" style= ""width:200px""alt=""img"">
                            </div>
                        </div>","-200","","0","","","","images/map05_berlin_scaleDef_orientDef_000.png","happy","1","05","05","berlin","orientDef","scaleDef","000","",""
"","","","","","html-slider-response","123","457212","0.0-119.0","tspt5a31e4","18","NaN","<div style=""width:500px;"">
                            <p style=""font-size:50px; font-weight:bold;""
                            >happy</p>
                            <div style=""width:240px; margin: auto;"">
                                <img src=""images/map15_BuPu_scaleRev_orientDef_270.png"" style= ""width:200px""alt=""img"">
                            </div>
                        </div>","200","","0","","","","images/map15_BuPu_scaleRev_orientDef_270.png","happy","1","15","15","BuPu","orientDef","scaleRev","270","",""
"","","","","","html-slider-response","124","459262","0.0-120.0","tspt5a31e4","18","NaN","<div style=""width:500px;"">
                            <p style=""font-size:50px; font-weight:bold;""
                            >happy</p>
                            <div style=""width:240px; margin: auto;"">
                                <img src=""images/map07_inferno_scaleRev_orientMir_270.png"" style= ""width:200px""alt=""img"">
                            </div>
                        </div>","200","","0","","","","images/map07_inferno_scaleRev_orientMir_270.png","happy","1","07","07","inferno","orientMir","scaleRev","270","",""
"","","","","","html-slider-response","125","460963","0.0-121.0","tspt5a31e4","18","NaN","<div style=""width:500px;"">
                            <p style=""font-size:50px; font-weight:bold;""
                            >happy</p>
                            <div style=""width:240px; margin: auto;"">
                                <img src=""images/map15_RdPu_scaleRev_orientDef_090.png"" style= ""width:200px""alt=""img"">
                            </div>
                        </div>","90","","0","","","","images/map15_RdPu_scaleRev_orientDef_090.png","happy","1","15","15","RdPu","orientDef","scaleRev","090","",""
"","","","","","html-slider-response","126","463628","0.0-122.0","tspt5a31e4","18","NaN","<div style=""width:500px;"">
                            <p style=""font-size:50px; font-weight:bold;""
                            >happy</p>
                            <div style=""width:240px; margin: auto;"">
                                <img src=""images/map26_PRGn_scaleDef_orientDef_180.png"" style= ""width:200px""alt=""img"">
                            </div>
                        </div>","-62","","0","","","","images/map26_PRGn_scaleDef_orientDef_180.png","happy","1","26","26","PRGn","orientDef","scaleDef","180","",""
"","","","","","html-slider-response","127","465595","0.0-123.0","tspt5a31e4","18","NaN","<div style=""width:500px;"">
                            <p style=""font-size:50px; font-weight:bold;""
                            >happy</p>
                            <div style=""width:240px; margin: auto;"">
                                <img src=""images/map12_Greens_scaleRev_orientDef_270.png"" style= ""width:200px""alt=""img"">
                            </div>
                        </div>","34","","0","","","","images/map12_Greens_scaleRev_orientDef_270.png","happy","1","12","12","Greens","orientDef","scaleRev","270","",""
"","","","","","html-slider-response","128","467962","0.0-124.0","tspt5a31e4","18","NaN","<div style=""width:500px;"">
                            <p style=""font-size:50px; font-weight:bold;""
                            >happy</p>
                            <div style=""width:240px; margin: auto;"">
                                <img src=""images/map10_Greys_scaleDef_orientMir_000.png"" style= ""width:200px""alt=""img"">
                            </div>
                        </div>","-200","","0","","","","images/map10_Greys_scaleDef_orientMir_000.png","happy","1","10","10","Greys","orientMir","scaleDef","000","",""
"","","","","","html-slider-response","129","470345","0.0-125.0","tspt5a31e4","18","NaN","<div style=""width:500px;"">
                            <p style=""font-size:50px; font-weight:bold;""
                            >happy</p>
                            <div style=""width:240px; margin: auto;"">
                                <img src=""images/map23_BuGn_scaleRev_orientMir_090.png"" style= ""width:200px""alt=""img"">
                            </div>
                        </div>","60","","0","","","","images/map23_BuGn_scaleRev_orientMir_090.png","happy","1","23","23","BuGn","orientMir","scaleRev","090","",""
"","","","","","html-slider-response","130","472912","0.0-126.0","tspt5a31e4","18","NaN","<div style=""width:500px;"">
                            <p style=""font-size:50px; font-weight:bold;""
                            >happy</p>
                            <div style=""width:240px; margin: auto;"">
                                <img src=""images/map02_Spectral_scaleRev_orientDef_090.png"" style= ""width:200px""alt=""img"">
                            </div>
                        </div>","66","","0","","","","images/map02_Spectral_scaleRev_orientDef_090.png","happy","1","02","02","Spectral","orientDef","scaleRev","090","",""
"","","","","","html-slider-response","131","474928","0.0-127.0","tspt5a31e4","18","NaN","<div style=""width:500px;"">
                            <p style=""font-size:50px; font-weight:bold;""
                            >happy</p>
                            <div style=""width:240px; margin: auto;"">
                                <img src=""images/map12_Greens_scaleDef_orientDef_180.png"" style= ""width:200px""alt=""img"">
                            </div>
                        </div>","47","","0","","","","images/map12_Greens_scaleDef_orientDef_180.png","happy","1","12","12","Greens","orientDef","scaleDef","180","",""
"","","","","","html-slider-response","132","478596","0.0-128.0","tspt5a31e4","18","NaN","<div style=""width:500px;"">
                            <p style=""font-size:50px; font-weight:bold;""
                            >happy</p>
                            <div style=""width:240px; margin: auto;"">
                                <img src=""images/map27_RdYlGn_scaleRev_orientMir_270.png"" style= ""width:200px""alt=""img"">
                            </div>
                        </div>","-121","","0","","","","images/map27_RdYlGn_scaleRev_orientMir_270.png","happy","1","27","27","RdYlGn","orientMir","scaleRev","270","",""
"","","","","","html-slider-response","133","481763","0.0-129.0","tspt5a31e4","18","NaN","<div style=""width:500px;"">
                            <p style=""font-size:50px; font-weight:bold;""
                            >happy</p>
                            <div style=""width:240px; margin: auto;"">
                                <img src=""images/map27_RdBu_scaleRev_orientDef_270.png"" style= ""width:200px""alt=""img"">
                            </div>
                        </div>","-194","","0","","","","images/map27_RdBu_scaleRev_orientDef_270.png","happy","1","27","27","RdBu","orientDef","scaleRev","270","",""
"","","","","","html-slider-response","134","484413","0.0-130.0","tspt5a31e4","18","NaN","<div style=""width:500px;"">
                            <p style=""font-size:50px; font-weight:bold;""
                            >happy</p>
                            <div style=""width:240px; margin: auto;"">
                                <img src=""images/map12_Reds_scaleDef_orientMir_180.png"" style= ""width:200px""alt=""img"">
                            </div>
                        </div>","59","","0","","","","images/map12_Reds_scaleDef_orientMir_180.png","happy","1","12","12","Reds","orientMir","scaleDef","180","",""
"","","","","","html-slider-response","135","486362","0.0-131.0","tspt5a31e4","18","NaN","<div style=""width:500px;"">
                            <p style=""font-size:50px; font-weight:bold;""
                            >happy</p>
                            <div style=""width:240px; margin: auto;"">
                                <img src=""images/map12_Oranges_scaleRev_orientMir_090.png"" style= ""width:200px""alt=""img"">
                            </div>
                        </div>","56","","0","","","","images/map12_Oranges_scaleRev_orientMir_090.png","happy","1","12","12","Oranges","orientMir","scaleRev","090","",""
"","","","","","html-slider-response","136","489862","0.0-132.0","tspt5a31e4","18","NaN","<div style=""width:500px;"">
                            <p style=""font-size:50px; font-weight:bold;""
                            >happy</p>
                            <div style=""width:240px; margin: auto;"">
                                <img src=""images/map12_Blues_scaleRev_orientDef_090.png"" style= ""width:200px""alt=""img"">
                            </div>
                        </div>","120","","0","","","","images/map12_Blues_scaleRev_orientDef_090.png","happy","1","12","12","Blues","orientDef","scaleRev","090","",""
"","","","","","html-slider-response","137","492095","0.0-133.0","tspt5a31e4","18","NaN","<div style=""width:500px;"">
                            <p style=""font-size:50px; font-weight:bold;""
                            >happy</p>
                            <div style=""width:240px; margin: auto;"">
                                <img src=""images/map07_plasma_scaleDef_orientMir_000.png"" style= ""width:200px""alt=""img"">
                            </div>
                        </div>","177","","0","","","","images/map07_plasma_scaleDef_orientMir_000.png","happy","1","07","07","plasma","orientMir","scaleDef","000","",""
"","","","","","html-slider-response","138","494214","0.0-134.0","tspt5a31e4","18","NaN","<div style=""width:500px;"">
                            <p style=""font-size:50px; font-weight:bold;""
                            >happy</p>
                            <div style=""width:240px; margin: auto;"">
                                <img src=""images/map13_YlOrBr_scaleDef_orientDef_000.png"" style= ""width:200px""alt=""img"">
                            </div>
                        </div>","200","","0","","","","images/map13_YlOrBr_scaleDef_orientDef_000.png","happy","1","13","13","YlOrBr","orientDef","scaleDef","000","",""
"","","","","","html-slider-response","139","496196","0.0-135.0","tspt5a31e4","18","NaN","<div style=""width:500px;"">
                            <p style=""font-size:50px; font-weight:bold;""
                            >happy</p>
                            <div style=""width:240px; margin: auto;"">
                                <img src=""images/map15_GnBu_scaleRev_orientMir_090.png"" style= ""width:200px""alt=""img"">
                            </div>
                        </div>","200","","0","","","","images/map15_GnBu_scaleRev_orientMir_090.png","happy","1","15","15","GnBu","orientMir","scaleRev","090","",""
"","","","","","html-slider-response","140","498645","0.0-136.0","tspt5a31e4","18","NaN","<div style=""width:500px;"">
                            <p style=""font-size:50px; font-weight:bold;""
                            >happy</p>
                            <div style=""width:240px; margin: auto;"">
                                <img src=""images/map26_PuOr_scaleRev_orientMir_270.png"" style= ""width:200px""alt=""img"">
                            </div>
                        </div>","139","","0","","","","images/map26_PuOr_scaleRev_orientMir_270.png","happy","1","26","26","PuOr","orientMir","scaleRev","270","",""
"","","","","","html-button-response","141","501333","0.0-137.0","tspt5a31e4","18","2186","<p>You are doing great!<br></br> You are halway done with the current block. When you are ready to continue, click the 'Continue' button.</p>","0","","","","","","","","","","","","","","","",""
"","","","","","html-slider-response","142","502612","0.0-138.0","tspt5a31e4","18","NaN","<div style=""width:500px;"">
                            <p style=""font-size:50px; font-weight:bold;""
                            >happy</p>
                            <div style=""width:240px; margin: auto;"">
                                <img src=""images/map07_plasma_scaleRev_orientMir_090.png"" style= ""width:200px""alt=""img"">
                            </div>
                        </div>","200","","0","","","","images/map07_plasma_scaleRev_orientMir_090.png","happy","1","07","07","plasma","orientMir","scaleRev","090","",""
"","","","","","html-slider-response","143","505295","0.0-139.0","tspt5a31e4","18","NaN","<div style=""width:500px;"">
                            <p style=""font-size:50px; font-weight:bold;""
                            >happy</p>
                            <div style=""width:240px; margin: auto;"">
                                <img src=""images/map23_PuBuGn_scaleDef_orientDef_180.png"" style= ""width:200px""alt=""img"">
                            </div>
                        </div>","87","","0","","","","images/map23_PuBuGn_scaleDef_orientDef_180.png","happy","1","23","23","PuBuGn","orientDef","scaleDef","180","",""
"","","","","","html-slider-response","144","507415","0.0-140.0","tspt5a31e4","18","NaN","<div style=""width:500px;"">
                            <p style=""font-size:50px; font-weight:bold;""
                            >happy</p>
                            <div style=""width:240px; margin: auto;"">
                                <img src=""images/map07_viridis_scaleDef_orientDef_180.png"" style= ""width:200px""alt=""img"">
                            </div>
                        </div>","152","","0","","","","images/map07_viridis_scaleDef_orientDef_180.png","happy","1","07","07","viridis","orientDef","scaleDef","180","",""
"","","","","","html-slider-response","145","509628","0.0-141.0","tspt5a31e4","18","NaN","<div style=""width:500px;"">
                            <p style=""font-size:50px; font-weight:bold;""
                            >happy</p>
                            <div style=""width:240px; margin: auto;"">
                                <img src=""images/map10_cividis_scaleRev_orientDef_270.png"" style= ""width:200px""alt=""img"">
                            </div>
                        </div>","-200","","0","","","","images/map10_cividis_scaleRev_orientDef_270.png","happy","1","10","10","cividis","orientDef","scaleRev","270","",""
"","","","","","html-slider-response","146","511777","0.0-142.0","tspt5a31e4","18","NaN","<div style=""width:500px;"">
                            <p style=""font-size:50px; font-weight:bold;""
                            >happy</p>
                            <div style=""width:240px; margin: auto;"">
                                <img src=""images/map05_berlin_scaleRev_orientDef_090.png"" style= ""width:200px""alt=""img"">
                            </div>
                        </div>","-200","","0","","","","images/map05_berlin_scaleRev_orientDef_090.png","happy","1","05","05","berlin","orientDef","scaleRev","090","",""
"","","","","","html-slider-response","147","514078","0.0-143.0","tspt5a31e4","18","NaN","<div style=""width:500px;"">
                            <p style=""font-size:50px; font-weight:bold;""
                            >happy</p>
                            <div style=""width:240px; margin: auto;"">
                                <img src=""images/map15_BuPu_scaleDef_orientDef_180.png"" style= ""width:200px""alt=""img"">
                            </div>
                        </div>","58","","0","","","","images/map15_BuPu_scaleDef_orientDef_180.png","happy","1","15","15","BuPu","orientDef","scaleDef","180","",""
"","","","","","html-slider-response","148","515813","0.0-144.0","tspt5a31e4","18","NaN","<div style=""width:500px;"">
                            <p style=""font-size:50px; font-weight:bold;""
                            >happy</p>
                            <div style=""width:240px; margin: auto;"">
                                <img src=""images/map15_PuBu_scaleDef_orientMir_180.png"" style= ""width:200px""alt=""img"">
                            </div>
                        </div>","-77","","0","","","","images/map15_PuBu_scaleDef_orientMir_180.png","happy","1","15","15","PuBu","orientMir","scaleDef","180","",""
"","","","","","html-slider-response","149","517728","0.0-145.0","tspt5a31e4","18","NaN","<div style=""width:500px;"">
                            <p style=""font-size:50px; font-weight:bold;""
                            >happy</p>
                            <div style=""width:240px; margin: auto;"">
                                <img src=""images/map13_OrRd_scaleDef_orientMir_000.png"" style= ""width:200px""alt=""img"">
                            </div>
                        </div>","65","","0","","","","images/map13_OrRd_scaleDef_orientMir_000.png","happy","1","13","13","OrRd","orientMir","scaleDef","000","",""
"","","","","","html-slider-response","150","520795","0.0-146.0","tspt5a31e4","18","NaN","<div style=""width:500px;"">
                            <p style=""font-size:50px; font-weight:bold;""
                            >happy</p>
                            <div style=""width:240px; margin: auto;"">
                                <img src=""images/map05_managua_scaleRev_orientDef_270.png"" style= ""width:200px""alt=""img"">
                            </div>
                        </div>","-84","","0","","","","images/map05_managua_scaleRev_orientDef_270.png","happy","1","05","05","managua","orientDef","scaleRev","270","",""
"","","","","","html-slider-response","151","522544","0.0-147.0","tspt5a31e4","18","NaN","<div style=""width:500px;"">
                            <p style=""font-size:50px; font-weight:bold;""
                            >happy</p>
                            <div style=""width:240px; margin: auto;"">
                                <img src=""images/map13_PuRd_scaleDef_orientMir_180.png"" style= ""width:200px""alt=""img"">
                            </div>
                        </div>","200","","0","","","","images/map13_PuRd_scaleDef_orientMir_180.png","happy","1","13","13","PuRd","orientMir","scaleDef","180","",""
"","","","","","html-slider-response","152","524411","0.0-148.0","tspt5a31e4","18","NaN","<div style=""width:500px;"">
                            <p style=""font-size:50px; font-weight:bold;""
                            >happy</p>
                            <div style=""width:240px; margin: auto;"">
                                <img src=""images/map07_viridis_scaleRev_orientDef_270.png"" style= ""width:200px""alt=""img"">
                            </div>
                        </div>","64","","0","","","","images/map07_viridis_scaleRev_orientDef_270.png","happy","1","07","07","viridis","orientDef","scaleRev","270","",""
"","","","","","html-slider-response","153","526361","0.0-149.0","tspt5a31e4","18","NaN","<div style=""width:500px;"">
                            <p style=""font-size:50px; font-weight:bold;""
                            >happy</p>
                            <div style=""width:240px; margin: auto;"">
                                <img src=""images/map10_Greys_scaleRev_orientMir_090.png"" style= ""width:200px""alt=""img"">
                            </div>
                        </div>","-200","","0","","","","images/map10_Greys_scaleRev_orientMir_090.png","happy","1","10","10","Greys","orientMir","scaleRev","090","",""
"","","","","","html-slider-response","154","528562","0.0-150.0","tspt5a31e4","18","NaN","<div style=""width:500px;"">
                            <p style=""font-size:50px; font-weight:bold;""
                            >happy</p>
                            <div style=""width:240px; margin: auto;"">
                                <img src=""images/map26_BrBG_scaleRev_orientMir_090.png"" style= ""width:200px""alt=""img"">
                            </div>
                        </div>","67","","0","","","","images/map26_BrBG_scaleRev_orientMir_090.png","happy","1","26","26","BrBG","orientMir","scaleRev","090","",""
"","","","","","html-slider-response","155","530947","0.0-151.0","tspt5a31e4","18","NaN","<div style=""width:500px;"">
                            <p style=""font-size:50px; font-weight:bold;""
                            >happy</p>
                            <div style=""width:240px; margin: auto;"">
                                <img src=""images/map27_RdGy_scaleDef_orientDef_000.png"" style= ""width:200px""alt=""img"">
                            </div>
                        </div>","-200","","0","","","","images/map27_RdGy_scaleDef_orientDef_000.png","happy","1","27","27","RdGy","orientDef","scaleDef","000","",""
"","","","","","html-slider-response","156","533079","0.0-152.0","tspt5a31e4","18","NaN","<div style=""width:500px;"">
                            <p style=""font-size:50px; font-weight:bold;""
                            >happy</p>
                            <div style=""width:240px; margin: auto;"">
                                <img src=""images/map13_PuRd_scaleRev_orientMir_270.png"" style= ""width:200px""alt=""img"">
                            </div>
                        </div>","200","","0","","","","images/map13_PuRd_scaleRev_orientMir_270.png","happy","1","13","13","PuRd","orientMir","scaleRev","270","",""
"","","","","","html-slider-response","157","536346","0.0-153.0","tspt5a31e4","18","NaN","<div style=""width:500px;"">
                            <p style=""font-size:50px; font-weight:bold;""
                            >happy</p>
                            <div style=""width:240px; margin: auto;"">
                                <img src=""images/map10_magma_scaleDef_orientDef_000.png"" style= ""width:200px""alt=""img"">
                            </div>
