"success","timeout","failed_images","failed_audio","failed_video","trial_type","trial_index","time_elapsed","internal_node_id","subject_id","condition_num","rt","stimulus","response","question_order","slider_start","practiceTrial","practiceTrialNum","correct","image_path","concept","repetition","map_id","map_num","scale_name","orientation_code","mapping_code","rotation_code","ishihara_plate","correct_response"
"true","false","[]","[]","[]","preload","0","326","0.0-0.0","usqfsn43dp","11","","","","","","","","","","","","","","","","","","",""
"","","","","","html-button-response","1","2038","0.0-1.0","usqfsn43dp","11","1710","Welcome to our experiment!<p>At the bottom of this screen, you will see a button that says ""Begin Experiment"".<br>Please only click that button when you are ready to complete the 30 minute experiment in one sitting.</p><p> Once you click that button, it will not be possible to restart the experiment.","0","","","","","","","","","","","","","","","",""
"true","","","","","fullscreen","2","4261","0.0-2.0","usqfsn43dp","11","1205","","","","","","","","","","","","","","","","","",""
"","","","","","survey-multi-select","3","20216","0.0-3.0","usqfsn43dp","11","15952","","{""Consent"":[""<strong>I consent</strong>""]}","[0]","","","","","","","","","","","","","","",""
"","","","","","html-button-response","4","23438","0.0-4.0","usqfsn43dp","11","3220","Welcome! <p> This experiment involves two parts: demographic information, followed by the experimental task.<p> It will take about 30 minutes to complete both parts.","0","","","","","","","","","","","","","","","",""
"","","","","","survey-text","5","37498","0.0-5.0","usqfsn43dp","11","14053","","{""Age"":""18"",""Gender"":""Female"",""Race/ethnicity"":""Hispanic"",""Languages"":""English & Spanish""}","","","","","","","","","","","","","","","",""
"","","","","","html-slider-response","6","68629","0.0-6.0","usqfsn43dp","11","31127","<div style='text-align:left; font-size:20px; line-height:25px; width: 1000px;'>
                                During this experiment you will be asked to rate how much you associate maps with                    different concepts.<br> Below, you can see some examples of the maps you will be asked to rate. Above the maps
                    is the list of concepts.<br>You will be asked                    to rate how much you associate each map with each concept on a scale from 'not at all' to 'very much' like the
                    one below. <br><br>
                    Now, please look at the list of concepts and maps. For each concept, think about the map you associate 'very
                    much' with the concept.<br>                     When you see that map during the experiment, please rate it near the 'very much' endpoint of the
                    scale.<br>Now, please think about which map you associate 'not at all'                     with each concept. When you see that map during the experiment, please rate it near the 'not at all' endpoint
                    of the scale.<br>
                    Please use the full range of the scale. That is, if a map is somewhat associated with the concept, you would
                    click partway between the middle point and right side of the scale.                    You will be asked to rate each map for a given concept before moving on to the next concept.<br>Press the
                    'Continue' button for instructions on how to use the slider.                    <br>
                </div>

                <div style=""width: 500px; margin: 0 auto;"">
                    <!-- Centered text paragraphs -->
                    <div style=""text-align: center; width: 500px;"">
                        <p style=""font-size:25px; line-height:15px;"">
                            fearful&nbsp;&nbsp;&nbsp;&nbsp;
                            happy&nbsp;&nbsp;&nbsp;&nbsp;
                            sad&nbsp;&nbsp;&nbsp;&nbsp;
                            angry&nbsp;&nbsp;&nbsp;&nbsp;
                            disgust
                        </p>
                        <!-- <p style=""font-size:20px; line-height:15px;"">happy</p>
                        <p style=""font-size:20px;line-height:15px;"">sad</p>
                        <p style=""font-size:20px;line-height:15px;"">angry</p>
                        <p style=""font-size:20px;line-height:15px;"">disgust</p> -->
                    </div>
            

                    <!-- Grid section -->
                   <div style=""display: flex; justify-content: center; padding-top: 15px;"">
                    <div style=""display: grid; grid-template-columns: repeat(10, 55px); grid-gap: 5px; width: auto;"">
                        <img src=""images/map23_PiYG_scaleRev_orientDef_180.png"" alt=""map"" style=""width: 100%;""><img src=""images/map02_berlin_scaleDef_orientDef_090.png"" alt=""map"" style=""width: 100%;""><img src=""images/map05_plasma_scaleRev_orientMir_180.png"" alt=""map"" style=""width: 100%;""><img src=""images/map15_PuBuGn_scaleRev_orientMir_000.png"" alt=""map"" style=""width: 100%;""><img src=""images/map12_OrRd_scaleDef_orientMir_090.png"" alt=""map"" style=""width: 100%;""><img src=""images/map02_seismic_scaleRev_orientDef_000.png"" alt=""map"" style=""width: 100%;""><img src=""images/map23_PRGn_scaleDef_orientDef_270.png"" alt=""map"" style=""width: 100%;""><img src=""images/map07_cividis_scaleDef_orientDef_270.png"" alt=""map"" style=""width: 100%;""><img src=""images/map02_managua_scaleDef_orientDef_270.png"" alt=""map"" style=""width: 100%;""><img src=""images/map27_bwr_scaleDef_orientMir_090.png"" alt=""map"" style=""width: 100%;""><img src=""images/map27_coolwarm_scaleRev_orientMir_000.png"" alt=""map"" style=""width: 100%;""><img src=""images/map07_magma_scaleDef_orientDef_090.png"" alt=""map"" style=""width: 100%;""><img src=""images/map12_PuRd_scaleDef_orientMir_270.png"" alt=""map"" style=""width: 100%;""><img src=""images/map23_PuOr_scaleDef_orientMir_270.png"" alt=""map"" style=""width: 100%;""><img src=""images/map12_YlOrRd_scaleDef_orientDef_270.png"" alt=""map"" style=""width: 100%;""><img src=""images/map26_RdBu_scaleRev_orientMir_000.png"" alt=""map"" style=""width: 100%;""><img src=""images/map10_Blues_scaleDef_orientDef_090.png"" alt=""map"" style=""width: 100%;""><img src=""images/map15_YlGnBu_scaleDef_orientDef_090.png"" alt=""map"" style=""width: 100%;""><img src=""images/map13_GnBu_scaleDef_orientMir_090.png"" alt=""map"" style=""width: 100%;""><img src=""images/map05_viridis_scaleDef_orientDef_270.png"" alt=""map"" style=""width: 100%;""><img src=""images/map10_Oranges_scaleDef_orientMir_090.png"" alt=""map"" style=""width: 100%;""><img src=""images/map02_vanimo_scaleRev_orientMir_180.png"" alt=""map"" style=""width: 100%;""><img src=""images/map13_PuBu_scaleDef_orientMir_270.png"" alt=""map"" style=""width: 100%;""><img src=""images/map07_Greys_scaleDef_orientMir_090.png"" alt=""map"" style=""width: 100%;""><img src=""images/map26_RdYlBu_scaleRev_orientMir_180.png"" alt=""map"" style=""width: 100%;""><img src=""images/map26_RdYlGn_scaleDef_orientMir_270.png"" alt=""map"" style=""width: 100%;""><img src=""images/map26_RdGy_scaleDef_orientDef_090.png"" alt=""map"" style=""width: 100%;""><img src=""images/map12_Reds_scaleRev_orientDef_000.png"" alt=""map"" style=""width: 100%;""><img src=""images/map07_inferno_scaleRev_orientDef_000.png"" alt=""map"" style=""width: 100%;""><img src=""images/map10_Purples_scaleRev_orientDef_000.png"" alt=""map"" style=""width: 100%;""><img src=""images/map02_gist_earth_scaleDef_orientMir_270.png"" alt=""map"" style=""width: 100%;""><img src=""images/map23_BrBG_scaleDef_orientMir_090.png"" alt=""map"" style=""width: 100%;""><img src=""images/map05_turbo_scaleDef_orientDef_090.png"" alt=""map"" style=""width: 100%;""><img src=""images/map13_BuPu_scaleDef_orientDef_270.png"" alt=""map"" style=""width: 100%;""><img src=""images/map27_Spectral_scaleRev_orientDef_180.png"" alt=""map"" style=""width: 100%;""><img src=""images/map12_YlOrBr_scaleDef_orientDef_090.png"" alt=""map"" style=""width: 100%;""><img src=""images/map15_BuGn_scaleRev_orientMir_180.png"" alt=""map"" style=""width: 100%;""><img src=""images/map10_Greens_scaleRev_orientMir_000.png"" alt=""map"" style=""width: 100%;""><img src=""images/map15_YlGn_scaleDef_orientMir_270.png"" alt=""map"" style=""width: 100%;""><img src=""images/map13_RdPu_scaleRev_orientDef_180.png"" alt=""map"" style=""width: 100%;"">
                    </div>
                </div>

                    <!-- Clear floats -->
                    <div style=""clear: both;""></div>
                </div>
                            ","3","","0","true","","","","","","","","","","","","",""
"","","","","","html-button-response","7","70308","0.0-7.0","usqfsn43dp","11","1678","<div style=""width:800px;""><p style=""text-align:left"">To move the slider, click and drag your cursor to the location of the scale where you would like to make your rating and then let go. When you let go of the slider, your response will be recorded and the next trial will begin. <br>
                    We are interested in your initial impressions of each map for the given concept, so please go with your first intuition. <br>
                    Before you begin the experiment, there will be four training trials for you to practice using the scale. <br>
                     When you are ready to start the training trials, please click ""Continue"".</p><br></div>","0","","","","","","","","","","","","","","","",""
"","","","","","html-slider-response","8","71914","0.0-8.0-0.0","usqfsn43dp","11","NaN","<div style=""width:500px;"">
                                    <p style=""font-size:25px;"">Please move the slider all the way to the <br> right endpoint of the scale</p>

                                    </div>
                                </div>","144","","0","true","0","false","","","","","","","","","","",""
"","","","","","html-button-response","9","75885","0.0-8.0-1.0","usqfsn43dp","11","3458","<p align='center'><b>Not quite!</b> The slider was not placed near the instructed located. Click on 'Continue' to try again. </p>","0","","","","","","","","","","","","","","","",""
"","","","","","html-slider-response","10","78858","0.0-8.1-0.1","usqfsn43dp","11","NaN","<div style=""width:500px;"">
                                    <p style=""font-size:25px;"">Please move the slider all the way to the <br> right endpoint of the scale</p>

                                    </div>
                                </div>","199","","0","true","0","true","","","","","","","","","","",""
"","","","","","html-button-response","11","80444","0.0-8.1-1.1","usqfsn43dp","11","1082","<p align='center'><b>Good job!</b> Click on 'Continue' to proceed.</p>","0","","","","","","","","","","","","","","","",""
"","","","","","html-slider-response","12","82736","0.0-9.0-0.0","usqfsn43dp","11","NaN","<div style=""width:500px;"">
                                    <p style=""font-size:25px;"">Please move the slider all the way to the <br> left endpoint of the scale</p>

                                    </div>
                                </div>","-198","","0","true","1","true","","","","","","","","","","",""
"","","","","","html-button-response","13","84431","0.0-9.0-1.0","usqfsn43dp","11","1178","<p align='center'><b>Good job!</b> Click on 'Continue' to proceed.</p>","0","","","","","","","","","","","","","","","",""
"","","","","","html-slider-response","14","90624","0.0-10.0-0.0","usqfsn43dp","11","NaN","<div style=""width:500px;"">
                                    <p style=""font-size:25px;"">Please move the slider halfway between the center and right endpoint of the scale</p>

                                    </div>
                                </div>","0","","0","true","2","false","","","","","","","","","","",""
"","","","","","html-button-response","15","93735","0.0-10.0-1.0","usqfsn43dp","11","2607","<p align='center'><b>Not quite!</b> The slider was not placed near the instructed located. Click on 'Continue' to try again. </p>","0","","","","","","","","","","","","","","","",""
"","","","","","html-slider-response","16","99732","0.0-10.1-0.1","usqfsn43dp","11","NaN","<div style=""width:500px;"">
                                    <p style=""font-size:25px;"">Please move the slider halfway between the center and right endpoint of the scale</p>

                                    </div>
                                </div>","103","","0","true","2","true","","","","","","","","","","",""
"","","","","","html-button-response","17","100859","0.0-10.1-1.1","usqfsn43dp","11","625","<p align='center'><b>Good job!</b> Click on 'Continue' to proceed.</p>","0","","","","","","","","","","","","","","","",""
"","","","","","html-slider-response","18","103035","0.0-11.0-0.0","usqfsn43dp","11","NaN","<div style=""width:500px;"">
                                    <p style=""font-size:25px;"">Please move the slider halfway between the center and left endpoint of the scale</p>

                                    </div>
                                </div>","-112","","0","true","3","false","","","","","","","","","","",""
"","","","","","html-button-response","19","104508","0.0-11.0-1.0","usqfsn43dp","11","972","<p align='center'><b>Not quite!</b> The slider was not placed near the instructed located. Click on 'Continue' to try again. </p>","0","","","","","","","","","","","","","","","",""
"","","","","","html-slider-response","20","108404","0.0-11.1-0.1","usqfsn43dp","11","NaN","<div style=""width:500px;"">
                                    <p style=""font-size:25px;"">Please move the slider halfway between the center and left endpoint of the scale</p>

                                    </div>
                                </div>","-98","","0","true","3","true","","","","","","","","","","",""
"","","","","","html-button-response","21","109524","0.0-11.1-1.1","usqfsn43dp","11","619","<p align='center'><b>Good job!</b> Click on 'Continue' to proceed.</p>","0","","","","","","","","","","","","","","","",""
"","","","","","html-button-response","22","110425","0.0-12.0","usqfsn43dp","11","900","<p>Great job! You've completed the practice trials. Now you will begin the main task.</p>","0","","","","","","","","","","","","","","","",""
"","","","","","html-button-response","23","113138","0.0-13.0","usqfsn43dp","11","2712","<p>In this block of trials, you will be asked to rate how much you associate each map with:</p > <p style = 'font-size:150%; font-weight: bold'>fearful</p><br></br>","0","","","","","","","","","","","","","","","",""
"","","","","","html-slider-response","24","118976","0.0-14.0","usqfsn43dp","11","NaN","<div style=""width:500px;"">
                            <p style=""font-size:50px; font-weight:bold;""
                            >fearful</p>
                            <div style=""width:240px; margin: auto;"">
                                <img src=""images/map12_OrRd_scaleDef_orientMir_090.png"" style= ""width:200px""alt=""img"">
                            </div>
                        </div>","-162","","0","","","","images/map12_OrRd_scaleDef_orientMir_090.png","fearful","1","12","12","OrRd","orientMir","scaleDef","090","",""
"","","","","","html-slider-response","25","121688","0.0-15.0","usqfsn43dp","11","NaN","<div style=""width:500px;"">
                            <p style=""font-size:50px; font-weight:bold;""
                            >fearful</p>
                            <div style=""width:240px; margin: auto;"">
                                <img src=""images/map12_PuRd_scaleDef_orientMir_270.png"" style= ""width:200px""alt=""img"">
                            </div>
                        </div>","40","","0","","","","images/map12_PuRd_scaleDef_orientMir_270.png","fearful","1","12","12","PuRd","orientMir","scaleDef","270","",""
"","","","","","html-slider-response","26","123902","0.0-16.0","usqfsn43dp","11","NaN","<div style=""width:500px;"">
                            <p style=""font-size:50px; font-weight:bold;""
                            >fearful</p>
                            <div style=""width:240px; margin: auto;"">
                                <img src=""images/map13_RdPu_scaleDef_orientDef_090.png"" style= ""width:200px""alt=""img"">
                            </div>
                        </div>","122","","0","","","","images/map13_RdPu_scaleDef_orientDef_090.png","fearful","1","13","13","RdPu","orientDef","scaleDef","090","",""
"","","","","","html-slider-response","27","129520","0.0-17.0","usqfsn43dp","11","NaN","<div style=""width:500px;"">
                            <p style=""font-size:50px; font-weight:bold;""
                            >fearful</p>
                            <div style=""width:240px; margin: auto;"">
                                <img src=""images/map15_BuGn_scaleRev_orientMir_180.png"" style= ""width:200px""alt=""img"">
                            </div>
                        </div>","24","","0","","","","images/map15_BuGn_scaleRev_orientMir_180.png","fearful","1","15","15","BuGn","orientMir","scaleRev","180","",""
"","","","","","html-slider-response","28","132572","0.0-18.0","usqfsn43dp","11","NaN","<div style=""width:500px;"">
                            <p style=""font-size:50px; font-weight:bold;""
                            >fearful</p>
                            <div style=""width:240px; margin: auto;"">
                                <img src=""images/map26_RdGy_scaleDef_orientDef_090.png"" style= ""width:200px""alt=""img"">
                            </div>
                        </div>","182","","0","","","","images/map26_RdGy_scaleDef_orientDef_090.png","fearful","1","26","26","RdGy","orientDef","scaleDef","090","",""
"","","","","","html-slider-response","29","136172","0.0-19.0","usqfsn43dp","11","NaN","<div style=""width:500px;"">
                            <p style=""font-size:50px; font-weight:bold;""
                            >fearful</p>
                            <div style=""width:240px; margin: auto;"">
                                <img src=""images/map13_PuRd_scaleRev_orientDef_000.png"" style= ""width:200px""alt=""img"">
                            </div>
                        </div>","-40","","0","","","","images/map13_PuRd_scaleRev_orientDef_000.png","fearful","1","13","13","PuRd","orientDef","scaleRev","000","",""
"","","","","","html-slider-response","30","138331","0.0-20.0","usqfsn43dp","11","NaN","<div style=""width:500px;"">
                            <p style=""font-size:50px; font-weight:bold;""
                            >fearful</p>
                            <div style=""width:240px; margin: auto;"">
                                <img src=""images/map23_PiYG_scaleRev_orientDef_180.png"" style= ""width:200px""alt=""img"">
                            </div>
                        </div>","-186","","0","","","","images/map23_PiYG_scaleRev_orientDef_180.png","fearful","1","23","23","PiYG","orientDef","scaleRev","180","",""
"","","","","","html-slider-response","31","141514","0.0-21.0","usqfsn43dp","11","NaN","<div style=""width:500px;"">
                            <p style=""font-size:50px; font-weight:bold;""
                            >fearful</p>
                            <div style=""width:240px; margin: auto;"">
                                <img src=""images/map13_PuBu_scaleDef_orientMir_270.png"" style= ""width:200px""alt=""img"">
                            </div>
                        </div>","94","","0","","","","images/map13_PuBu_scaleDef_orientMir_270.png","fearful","1","13","13","PuBu","orientMir","scaleDef","270","",""
"","","","","","html-slider-response","32","143664","0.0-22.0","usqfsn43dp","11","NaN","<div style=""width:500px;"">
                            <p style=""font-size:50px; font-weight:bold;""
                            >fearful</p>
                            <div style=""width:240px; margin: auto;"">
                                <img src=""images/map23_BrBG_scaleRev_orientMir_180.png"" style= ""width:200px""alt=""img"">
                            </div>
                        </div>","-178","","0","","","","images/map23_BrBG_scaleRev_orientMir_180.png","fearful","1","23","23","BrBG","orientMir","scaleRev","180","",""
"","","","","","html-slider-response","33","148604","0.0-23.0","usqfsn43dp","11","NaN","<div style=""width:500px;"">
                            <p style=""font-size:50px; font-weight:bold;""
                            >fearful</p>
                            <div style=""width:240px; margin: auto;"">
                                <img src=""images/map26_RdYlGn_scaleDef_orientMir_270.png"" style= ""width:200px""alt=""img"">
                            </div>
                        </div>","52","","0","","","","images/map26_RdYlGn_scaleDef_orientMir_270.png","fearful","1","26","26","RdYlGn","orientMir","scaleDef","270","",""
"","","","","","html-slider-response","34","150423","0.0-24.0","usqfsn43dp","11","NaN","<div style=""width:500px;"">
                            <p style=""font-size:50px; font-weight:bold;""
                            >fearful</p>
                            <div style=""width:240px; margin: auto;"">
                                <img src=""images/map23_BrBG_scaleDef_orientMir_090.png"" style= ""width:200px""alt=""img"">
                            </div>
                        </div>","-194","","0","","","","images/map23_BrBG_scaleDef_orientMir_090.png","fearful","1","23","23","BrBG","orientMir","scaleDef","090","",""
"","","","","","html-slider-response","35","151880","0.0-25.0","usqfsn43dp","11","NaN","<div style=""width:500px;"">
                            <p style=""font-size:50px; font-weight:bold;""
                            >fearful</p>
                            <div style=""width:240px; margin: auto;"">
                                <img src=""images/map05_plasma_scaleRev_orientMir_180.png"" style= ""width:200px""alt=""img"">
                            </div>
                        </div>","-194","","0","","","","images/map05_plasma_scaleRev_orientMir_180.png","fearful","1","05","05","plasma","orientMir","scaleRev","180","",""
"","","","","","html-slider-response","36","153657","0.0-26.0","usqfsn43dp","11","NaN","<div style=""width:500px;"">
                            <p style=""font-size:50px; font-weight:bold;""
                            >fearful</p>
                            <div style=""width:240px; margin: auto;"">
                                <img src=""images/map27_bwr_scaleRev_orientMir_180.png"" style= ""width:200px""alt=""img"">
                            </div>
                        </div>","-194","","0","","","","images/map27_bwr_scaleRev_orientMir_180.png","fearful","1","27","27","bwr","orientMir","scaleRev","180","",""
"","","","","","html-slider-response","37","156202","0.0-27.0","usqfsn43dp","11","NaN","<div style=""width:500px;"">
                            <p style=""font-size:50px; font-weight:bold;""
                            >fearful</p>
                            <div style=""width:240px; margin: auto;"">
                                <img src=""images/map13_RdPu_scaleRev_orientDef_180.png"" style= ""width:200px""alt=""img"">
                            </div>
                        </div>","-50","","0","","","","images/map13_RdPu_scaleRev_orientDef_180.png","fearful","1","13","13","RdPu","orientDef","scaleRev","180","",""
"","","","","","html-slider-response","38","159094","0.0-28.0","usqfsn43dp","11","NaN","<div style=""width:500px;"">
                            <p style=""font-size:50px; font-weight:bold;""
                            >fearful</p>
                            <div style=""width:240px; margin: auto;"">
                                <img src=""images/map07_Purples_scaleDef_orientMir_270.png"" style= ""width:200px""alt=""img"">
                            </div>
                        </div>","121","","0","","","","images/map07_Purples_scaleDef_orientMir_270.png","fearful","1","07","07","Purples","orientMir","scaleDef","270","",""
"","","","","","html-slider-response","39","165138","0.0-29.0","usqfsn43dp","11","NaN","<div style=""width:500px;"">
                            <p style=""font-size:50px; font-weight:bold;""
                            >fearful</p>
                            <div style=""width:240px; margin: auto;"">
                                <img src=""images/map07_cividis_scaleDef_orientDef_270.png"" style= ""width:200px""alt=""img"">
                            </div>
                        </div>","-184","","0","","","","images/map07_cividis_scaleDef_orientDef_270.png","fearful","1","07","07","cividis","orientDef","scaleDef","270","",""
"","","","","","html-slider-response","40","167136","0.0-30.0","usqfsn43dp","11","NaN","<div style=""width:500px;"">
                            <p style=""font-size:50px; font-weight:bold;""
                            >fearful</p>
                            <div style=""width:240px; margin: auto;"">
                                <img src=""images/map12_YlOrRd_scaleDef_orientDef_270.png"" style= ""width:200px""alt=""img"">
                            </div>
                        </div>","-58","","0","","","","images/map12_YlOrRd_scaleDef_orientDef_270.png","fearful","1","12","12","YlOrRd","orientDef","scaleDef","270","",""
"","","","","","html-slider-response","41","168947","0.0-31.0","usqfsn43dp","11","NaN","<div style=""width:500px;"">
                            <p style=""font-size:50px; font-weight:bold;""
                            >fearful</p>
                            <div style=""width:240px; margin: auto;"">
                                <img src=""images/map07_inferno_scaleRev_orientDef_000.png"" style= ""width:200px""alt=""img"">
                            </div>
                        </div>","-98","","0","","","","images/map07_inferno_scaleRev_orientDef_000.png","fearful","1","07","07","inferno","orientDef","scaleRev","000","",""
"","","","","","html-slider-response","42","170911","0.0-32.0","usqfsn43dp","11","NaN","<div style=""width:500px;"">
                            <p style=""font-size:50px; font-weight:bold;""
                            >fearful</p>
                            <div style=""width:240px; margin: auto;"">
                                <img src=""images/map13_BuPu_scaleDef_orientDef_270.png"" style= ""width:200px""alt=""img"">
                            </div>
                        </div>","166","","0","","","","images/map13_BuPu_scaleDef_orientDef_270.png","fearful","1","13","13","BuPu","orientDef","scaleDef","270","",""
"","","","","","html-slider-response","43","174439","0.0-33.0","usqfsn43dp","11","NaN","<div style=""width:500px;"">
                            <p style=""font-size:50px; font-weight:bold;""
                            >fearful</p>
                            <div style=""width:240px; margin: auto;"">
                                <img src=""images/map27_seismic_scaleDef_orientMir_270.png"" style= ""width:200px""alt=""img"">
                            </div>
                        </div>","197","","0","","","","images/map27_seismic_scaleDef_orientMir_270.png","fearful","1","27","27","seismic","orientMir","scaleDef","270","",""
"","","","","","html-slider-response","44","177042","0.0-34.0","usqfsn43dp","11","NaN","<div style=""width:500px;"">
                            <p style=""font-size:50px; font-weight:bold;""
                            >fearful</p>
                            <div style=""width:240px; margin: auto;"">
                                <img src=""images/map26_RdGy_scaleRev_orientDef_180.png"" style= ""width:200px""alt=""img"">
                            </div>
                        </div>","190","","0","","","","images/map26_RdGy_scaleRev_orientDef_180.png","fearful","1","26","26","RdGy","orientDef","scaleRev","180","",""
"","","","","","html-slider-response","45","179519","0.0-35.0","usqfsn43dp","11","NaN","<div style=""width:500px;"">
                            <p style=""font-size:50px; font-weight:bold;""
                            >fearful</p>
                            <div style=""width:240px; margin: auto;"">
                                <img src=""images/map07_Greys_scaleRev_orientMir_180.png"" style= ""width:200px""alt=""img"">
                            </div>
                        </div>","106","","0","","","","images/map07_Greys_scaleRev_orientMir_180.png","fearful","1","07","07","Greys","orientMir","scaleRev","180","",""
"","","","","","html-slider-response","46","181831","0.0-36.0","usqfsn43dp","11","NaN","<div style=""width:500px;"">
                            <p style=""font-size:50px; font-weight:bold;""
                            >fearful</p>
                            <div style=""width:240px; margin: auto;"">
                                <img src=""images/map15_YlGn_scaleDef_orientMir_270.png"" style= ""width:200px""alt=""img"">
                            </div>
                        </div>","-149","","0","","","","images/map15_YlGn_scaleDef_orientMir_270.png","fearful","1","15","15","YlGn","orientMir","scaleDef","270","",""
"","","","","","html-slider-response","47","184218","0.0-37.0","usqfsn43dp","11","NaN","<div style=""width:500px;"">
                            <p style=""font-size:50px; font-weight:bold;""
                            >fearful</p>
                            <div style=""width:240px; margin: auto;"">
                                <img src=""images/map05_turbo_scaleRev_orientDef_180.png"" style= ""width:200px""alt=""img"">
                            </div>
                        </div>","-181","","0","","","","images/map05_turbo_scaleRev_orientDef_180.png","fearful","1","05","05","turbo","orientDef","scaleRev","180","",""
"","","","","","html-slider-response","48","187818","0.0-38.0","usqfsn43dp","11","NaN","<div style=""width:500px;"">
                            <p style=""font-size:50px; font-weight:bold;""
                            >fearful</p>
                            <div style=""width:240px; margin: auto;"">
                                <img src=""images/map12_OrRd_scaleRev_orientMir_180.png"" style= ""width:200px""alt=""img"">
                            </div>
                        </div>","-187","","0","","","","images/map12_OrRd_scaleRev_orientMir_180.png","fearful","1","12","12","OrRd","orientMir","scaleRev","180","",""
"","","","","","html-slider-response","49","189795","0.0-39.0","usqfsn43dp","11","NaN","<div style=""width:500px;"">
                            <p style=""font-size:50px; font-weight:bold;""
                            >fearful</p>
                            <div style=""width:240px; margin: auto;"">
                                <img src=""images/map02_berlin_scaleDef_orientDef_090.png"" style= ""width:200px""alt=""img"">
                            </div>
                        </div>","-73","","0","","","","images/map02_berlin_scaleDef_orientDef_090.png","fearful","1","02","02","berlin","orientDef","scaleDef","090","",""
"","","","","","html-slider-response","50","191411","0.0-40.0","usqfsn43dp","11","NaN","<div style=""width:500px;"">
                            <p style=""font-size:50px; font-weight:bold;""
                            >fearful</p>
                            <div style=""width:240px; margin: auto;"">
                                <img src=""images/map26_RdBu_scaleRev_orientMir_000.png"" style= ""width:200px""alt=""img"">
                            </div>
                        </div>","-153","","0","","","","images/map26_RdBu_scaleRev_orientMir_000.png","fearful","1","26","26","RdBu","orientMir","scaleRev","000","",""
"","","","","","html-slider-response","51","192889","0.0-41.0","usqfsn43dp","11","NaN","<div style=""width:500px;"">
                            <p style=""font-size:50px; font-weight:bold;""
                            >fearful</p>
                            <div style=""width:240px; margin: auto;"">
                                <img src=""images/map23_PiYG_scaleDef_orientDef_090.png"" style= ""width:200px""alt=""img"">
                            </div>
                        </div>","-153","","0","","","","images/map23_PiYG_scaleDef_orientDef_090.png","fearful","1","23","23","PiYG","orientDef","scaleDef","090","",""
"","","","","","html-slider-response","52","194930","0.0-42.0","usqfsn43dp","11","NaN","<div style=""width:500px;"">
                            <p style=""font-size:50px; font-weight:bold;""
                            >fearful</p>
                            <div style=""width:240px; margin: auto;"">
                                <img src=""images/map15_PuBu_scaleRev_orientDef_000.png"" style= ""width:200px""alt=""img"">
                            </div>
                        </div>","90","","0","","","","images/map15_PuBu_scaleRev_orientDef_000.png","fearful","1","15","15","PuBu","orientDef","scaleRev","000","",""
"","","","","","html-slider-response","53","196539","0.0-43.0","usqfsn43dp","11","NaN","<div style=""width:500px;"">
                            <p style=""font-size:50px; font-weight:bold;""
                            >fearful</p>
                            <div style=""width:240px; margin: auto;"">
                                <img src=""images/map10_Blues_scaleRev_orientDef_180.png"" style= ""width:200px""alt=""img"">
                            </div>
                        </div>","194","","0","","","","images/map10_Blues_scaleRev_orientDef_180.png","fearful","1","10","10","Blues","orientDef","scaleRev","180","",""
"","","","","","html-slider-response","54","200614","0.0-44.0","usqfsn43dp","11","NaN","<div style=""width:500px;"">
                            <p style=""font-size:50px; font-weight:bold;""
                            >fearful</p>
                            <div style=""width:240px; margin: auto;"">
                                <img src=""images/map07_magma_scaleDef_orientDef_090.png"" style= ""width:200px""alt=""img"">
                            </div>
                        </div>","-179","","0","","","","images/map07_magma_scaleDef_orientDef_090.png","fearful","1","07","07","magma","orientDef","scaleDef","090","",""
"","","","","","html-slider-response","55","205539","0.0-45.0","usqfsn43dp","11","NaN","<div style=""width:500px;"">
                            <p style=""font-size:50px; font-weight:bold;""
                            >fearful</p>
                            <div style=""width:240px; margin: auto;"">
                                <img src=""images/map05_viridis_scaleDef_orientDef_270.png"" style= ""width:200px""alt=""img"">
                            </div>
                        </div>","-140","","0","","","","images/map05_viridis_scaleDef_orientDef_270.png","fearful","1","05","05","viridis","orientDef","scaleDef","270","",""
"","","","","","html-slider-response","56","207271","0.0-46.0","usqfsn43dp","11","NaN","<div style=""width:500px;"">
                            <p style=""font-size:50px; font-weight:bold;""
                            >fearful</p>
                            <div style=""width:240px; margin: auto;"">
                                <img src=""images/map12_Reds_scaleRev_orientDef_000.png"" style= ""width:200px""alt=""img"">
                            </div>
                        </div>","-140","","0","","","","images/map12_Reds_scaleRev_orientDef_000.png","fearful","1","12","12","Reds","orientDef","scaleRev","000","",""
"","","","","","html-slider-response","57","208445","0.0-47.0","usqfsn43dp","11","NaN","<div style=""width:500px;"">
                            <p style=""font-size:50px; font-weight:bold;""
                            >fearful</p>
                            <div style=""width:240px; margin: auto;"">
                                <img src=""images/map23_PRGn_scaleRev_orientMir_000.png"" style= ""width:200px""alt=""img"">
                            </div>
                        </div>","-111","","0","","","","images/map23_PRGn_scaleRev_orientMir_000.png","fearful","1","23","23","PRGn","orientMir","scaleRev","000","",""
"","","","","","html-slider-response","58","209667","0.0-48.0","usqfsn43dp","11","NaN","<div style=""width:500px;"">
                            <p style=""font-size:50px; font-weight:bold;""
                            >fearful</p>
                            <div style=""width:240px; margin: auto;"">
                                <img src=""images/map15_BuGn_scaleDef_orientMir_090.png"" style= ""width:200px""alt=""img"">
                            </div>
                        </div>","-136","","0","","","","images/map15_BuGn_scaleDef_orientMir_090.png","fearful","1","15","15","BuGn","orientMir","scaleDef","090","",""
"","","","","","html-slider-response","59","211914","0.0-49.0","usqfsn43dp","11","NaN","<div style=""width:500px;"">
                            <p style=""font-size:50px; font-weight:bold;""
                            >fearful</p>
                            <div style=""width:240px; margin: auto;"">
                                <img src=""images/map27_coolwarm_scaleRev_orientMir_000.png"" style= ""width:200px""alt=""img"">
                            </div>
                        </div>","74","","0","","","","images/map27_coolwarm_scaleRev_orientMir_000.png","fearful","1","27","27","coolwarm","orientMir","scaleRev","000","",""
"","","","","","html-slider-response","60","217500","0.0-50.0","usqfsn43dp","11","NaN","<div style=""width:500px;"">
                            <p style=""font-size:50px; font-weight:bold;""
                            >fearful</p>
                            <div style=""width:240px; margin: auto;"">
                                <img src=""images/map27_bwr_scaleDef_orientMir_090.png"" style= ""width:200px""alt=""img"">
                            </div>
                        </div>","142","","0","","","","images/map27_bwr_scaleDef_orientMir_090.png","fearful","1","27","27","bwr","orientMir","scaleDef","090","",""
"","","","","","html-slider-response","61","219566","0.0-51.0","usqfsn43dp","11","NaN","<div style=""width:500px;"">
                            <p style=""font-size:50px; font-weight:bold;""
                            >fearful</p>
                            <div style=""width:240px; margin: auto;"">
                                <img src=""images/map05_viridis_scaleRev_orientMir_000.png"" style= ""width:200px""alt=""img"">
                            </div>
                        </div>","-186","","0","","","","images/map05_viridis_scaleRev_orientMir_000.png","fearful","1","05","05","viridis","orientMir","scaleRev","000","",""
"","","","","","html-slider-response","62","225666","0.0-52.0","usqfsn43dp","11","NaN","<div style=""width:500px;"">
                            <p style=""font-size:50px; font-weight:bold;""
                            >fearful</p>
                            <div style=""width:240px; margin: auto;"">
                                <img src=""images/map02_vanimo_scaleRev_orientMir_180.png"" style= ""width:200px""alt=""img"">
                            </div>
                        </div>","30","","0","","","","images/map02_vanimo_scaleRev_orientMir_180.png","fearful","1","02","02","vanimo","orientMir","scaleRev","180","",""
"","","","","","html-slider-response","63","227922","0.0-53.0","usqfsn43dp","11","NaN","<div style=""width:500px;"">
                            <p style=""font-size:50px; font-weight:bold;""
                            >fearful</p>
                            <div style=""width:240px; margin: auto;"">
                                <img src=""images/map10_Greens_scaleRev_orientMir_000.png"" style= ""width:200px""alt=""img"">
                            </div>
                        </div>","-186","","0","","","","images/map10_Greens_scaleRev_orientMir_000.png","fearful","1","10","10","Greens","orientMir","scaleRev","000","",""
"","","","","","html-button-response","64","229853","0.0-54.0","usqfsn43dp","11","1422","<p>You are doing great!<br></br> You are halway done with the current block. When you are ready to continue, click the 'Continue' button.</p>","0","","","","","","","","","","","","","","","",""
"","","","","","html-slider-response","65","231389","0.0-55.0","usqfsn43dp","11","NaN","<div style=""width:500px;"">
                            <p style=""font-size:50px; font-weight:bold;""
                            >fearful</p>
                            <div style=""width:240px; margin: auto;"">
                                <img src=""images/map12_YlOrBr_scaleRev_orientDef_180.png"" style= ""width:200px""alt=""img"">
                            </div>
                        </div>","-179","","0","","","","images/map12_YlOrBr_scaleRev_orientDef_180.png","fearful","1","12","12","YlOrBr","orientDef","scaleRev","180","",""
"","","","","","html-slider-response","66","233556","0.0-56.0","usqfsn43dp","11","NaN","<div style=""width:500px;"">
                            <p style=""font-size:50px; font-weight:bold;""
                            >fearful</p>
                            <div style=""width:240px; margin: auto;"">
                                <img src=""images/map23_PRGn_scaleDef_orientDef_270.png"" style= ""width:200px""alt=""img"">
                            </div>
                        </div>","-94","","0","","","","images/map23_PRGn_scaleDef_orientDef_270.png","fearful","1","23","23","PRGn","orientDef","scaleDef","270","",""
"","","","","","html-slider-response","67","234865","0.0-57.0","usqfsn43dp","11","NaN","<div style=""width:500px;"">
                            <p style=""font-size:50px; font-weight:bold;""
                            >fearful</p>
                            <div style=""width:240px; margin: auto;"">
                                <img src=""images/map05_plasma_scaleDef_orientMir_090.png"" style= ""width:200px""alt=""img"">
                            </div>
                        </div>","-158","","0","","","","images/map05_plasma_scaleDef_orientMir_090.png","fearful","1","05","05","plasma","orientMir","scaleDef","090","",""
"","","","","","html-slider-response","68","236152","0.0-58.0","usqfsn43dp","11","NaN","<div style=""width:500px;"">
                            <p style=""font-size:50px; font-weight:bold;""
                            >fearful</p>
                            <div style=""width:240px; margin: auto;"">
                                <img src=""images/map27_RdYlGn_scaleRev_orientDef_000.png"" style= ""width:200px""alt=""img"">
                            </div>
                        </div>","-187","","0","","","","images/map27_RdYlGn_scaleRev_orientDef_000.png","fearful","1","27","27","RdYlGn","orientDef","scaleRev","000","",""
"","","","","","html-slider-response","69","237833","0.0-59.0","usqfsn43dp","11","NaN","<div style=""width:500px;"">
                            <p style=""font-size:50px; font-weight:bold;""
                            >fearful</p>
                            <div style=""width:240px; margin: auto;"">
                                <img src=""images/map10_Purples_scaleRev_orientDef_000.png"" style= ""width:200px""alt=""img"">
                            </div>
                        </div>","98","","0","","","","images/map10_Purples_scaleRev_orientDef_000.png","fearful","1","10","10","Purples","orientDef","scaleRev","000","",""
"","","","","","html-slider-response","70","240374","0.0-60.0","usqfsn43dp","11","NaN","<div style=""width:500px;"">
                            <p style=""font-size:50px; font-weight:bold;""
                            >fearful</p>
                            <div style=""width:240px; margin: auto;"">
                                <img src=""images/map10_Reds_scaleDef_orientMir_270.png"" style= ""width:200px""alt=""img"">
                            </div>
                        </div>","116","","0","","","","images/map10_Reds_scaleDef_orientMir_270.png","fearful","1","10","10","Reds","orientMir","scaleDef","270","",""
"","","","","","html-slider-response","71","241859","0.0-61.0","usqfsn43dp","11","NaN","<div style=""width:500px;"">
                            <p style=""font-size:50px; font-weight:bold;""
                            >fearful</p>
                            <div style=""width:240px; margin: auto;"">
                                <img src=""images/map02_gist_earth_scaleDef_orientMir_270.png"" style= ""width:200px""alt=""img"">
                            </div>
                        </div>","-166","","0","","","","images/map02_gist_earth_scaleDef_orientMir_270.png","fearful","1","02","02","gist","scaleDef","earth","orientMir","",""
"","","","","","html-slider-response","72","244316","0.0-62.0","usqfsn43dp","11","NaN","<div style=""width:500px;"">
                            <p style=""font-size:50px; font-weight:bold;""
                            >fearful</p>
                            <div style=""width:240px; margin: auto;"">
                                <img src=""images/map07_Greys_scaleDef_orientMir_090.png"" style= ""width:200px""alt=""img"">
                            </div>
                        </div>","118","","0","","","","images/map07_Greys_scaleDef_orientMir_090.png","fearful","1","07","07","Greys","orientMir","scaleDef","090","",""
"","","","","","html-slider-response","73","245656","0.0-63.0","usqfsn43dp","11","NaN","<div style=""width:500px;"">
                            <p style=""font-size:50px; font-weight:bold;""
                            >fearful</p>
                            <div style=""width:240px; margin: auto;"">
                                <img src=""images/map13_BuPu_scaleRev_orientMir_000.png"" style= ""width:200px""alt=""img"">
                            </div>
                        </div>","-171","","0","","","","images/map13_BuPu_scaleRev_orientMir_000.png","fearful","1","13","13","BuPu","orientMir","scaleRev","000","",""
"","","","","","html-slider-response","74","247252","0.0-64.0","usqfsn43dp","11","NaN","<div style=""width:500px;"">
                            <p style=""font-size:50px; font-weight:bold;""
                            >fearful</p>
                            <div style=""width:240px; margin: auto;"">
                                <img src=""images/map02_managua_scaleRev_orientMir_000.png"" style= ""width:200px""alt=""img"">
                            </div>
                        </div>","-168","","0","","","","images/map02_managua_scaleRev_orientMir_000.png","fearful","1","02","02","managua","orientMir","scaleRev","000","",""
"","","","","","html-slider-response","75","249126","0.0-65.0","usqfsn43dp","11","NaN","<div style=""width:500px;"">
                            <p style=""font-size:50px; font-weight:bold;""
                            >fearful</p>
                            <div style=""width:240px; margin: auto;"">
                                <img src=""images/map27_coolwarm_scaleDef_orientDef_270.png"" style= ""width:200px""alt=""img"">
                            </div>
                        </div>","51","","0","","","","images/map27_coolwarm_scaleDef_orientDef_270.png","fearful","1","27","27","coolwarm","orientDef","scaleDef","270","",""
"","","","","","html-slider-response","76","250570","0.0-66.0","usqfsn43dp","11","NaN","<div style=""width:500px;"">
                            <p style=""font-size:50px; font-weight:bold;""
                            >fearful</p>
                            <div style=""width:240px; margin: auto;"">
                                <img src=""images/map05_turbo_scaleDef_orientDef_090.png"" style= ""width:200px""alt=""img"">
                            </div>
                        </div>","-187","","0","","","","images/map05_turbo_scaleDef_orientDef_090.png","fearful","1","05","05","turbo","orientDef","scaleDef","090","",""
"","","","","","html-slider-response","77","252435","0.0-67.0","usqfsn43dp","11","NaN","<div style=""width:500px;"">
                            <p style=""font-size:50px; font-weight:bold;""
                            >fearful</p>
                            <div style=""width:240px; margin: auto;"">
                                <img src=""images/map15_YlGnBu_scaleDef_orientDef_090.png"" style= ""width:200px""alt=""img"">
                            </div>
                        </div>","48","","0","","","","images/map15_YlGnBu_scaleDef_orientDef_090.png","fearful","1","15","15","YlGnBu","orientDef","scaleDef","090","",""
"","","","","","html-slider-response","78","255136","0.0-68.0","usqfsn43dp","11","NaN","<div style=""width:500px;"">
                            <p style=""font-size:50px; font-weight:bold;""
                            >fearful</p>
                            <div style=""width:240px; margin: auto;"">
                                <img src=""images/map27_Spectral_scaleDef_orientDef_090.png"" style= ""width:200px""alt=""img"">
                            </div>
                        </div>","42","","0","","","","images/map27_Spectral_scaleDef_orientDef_090.png","fearful","1","27","27","Spectral","orientDef","scaleDef","090","",""
"","","","","","html-slider-response","79","257461","0.0-69.0","usqfsn43dp","11","NaN","<div style=""width:500px;"">
                            <p style=""font-size:50px; font-weight:bold;""
                            >fearful</p>
                            <div style=""width:240px; margin: auto;"">
                                <img src=""images/map10_Greens_scaleDef_orientDef_270.png"" style= ""width:200px""alt=""img"">
                            </div>
                        </div>","-162","","0","","","","images/map10_Greens_scaleDef_orientDef_270.png","fearful","1","10","10","Greens","orientDef","scaleDef","270","",""
"","","","","","html-slider-response","80","259429","0.0-70.0","usqfsn43dp","11","NaN","<div style=""width:500px;"">
                            <p style=""font-size:50px; font-weight:bold;""
                            >fearful</p>
                            <div style=""width:240px; margin: auto;"">
                                <img src=""images/map07_magma_scaleRev_orientDef_180.png"" style= ""width:200px""alt=""img"">
                            </div>
                        </div>","-178","","0","","","","images/map07_magma_scaleRev_orientDef_180.png","fearful","1","07","07","magma","orientDef","scaleRev","180","",""
"","","","","","html-slider-response","81","260896","0.0-71.0","usqfsn43dp","11","NaN","<div style=""width:500px;"">
                            <p style=""font-size:50px; font-weight:bold;""
                            >fearful</p>
                            <div style=""width:240px; margin: auto;"">
                                <img src=""images/map05_inferno_scaleDef_orientMir_270.png"" style= ""width:200px""alt=""img"">
                            </div>
                        </div>","-163","","0","","","","images/map05_inferno_scaleDef_orientMir_270.png","fearful","1","05","05","inferno","orientMir","scaleDef","270","",""
"","","","","","html-slider-response","82","263887","0.0-72.0","usqfsn43dp","11","NaN","<div style=""width:500px;"">
                            <p style=""font-size:50px; font-weight:bold;""
                            >fearful</p>
                            <div style=""width:240px; margin: auto;"">
                                <img src=""images/map15_PuBuGn_scaleRev_orientMir_000.png"" style= ""width:200px""alt=""img"">
                            </div>
                        </div>","54","","0","","","","images/map15_PuBuGn_scaleRev_orientMir_000.png","fearful","1","15","15","PuBuGn","orientMir","scaleRev","000","",""
"","","","","","html-slider-response","83","265844","0.0-73.0","usqfsn43dp","11","NaN","<div style=""width:500px;"">
                            <p style=""font-size:50px; font-weight:bold;""
                            >fearful</p>
                            <div style=""width:240px; margin: auto;"">
                                <img src=""images/map10_Blues_scaleDef_orientDef_090.png"" style= ""width:200px""alt=""img"">
                            </div>
                        </div>","35","","0","","","","images/map10_Blues_scaleDef_orientDef_090.png","fearful","1","10","10","Blues","orientDef","scaleDef","090","",""
"","","","","","html-slider-response","84","267642","0.0-74.0","usqfsn43dp","11","NaN","<div style=""width:500px;"">
                            <p style=""font-size:50px; font-weight:bold;""
                            >fearful</p>
                            <div style=""width:240px; margin: auto;"">
                                <img src=""images/map15_YlGnBu_scaleRev_orientDef_180.png"" style= ""width:200px""alt=""img"">
                            </div>
                        </div>","-102","","0","","","","images/map15_YlGnBu_scaleRev_orientDef_180.png","fearful","1","15","15","YlGnBu","orientDef","scaleRev","180","",""
"","","","","","html-slider-response","85","269106","0.0-75.0","usqfsn43dp","11","NaN","<div style=""width:500px;"">
                            <p style=""font-size:50px; font-weight:bold;""
                            >fearful</p>
                            <div style=""width:240px; margin: auto;"">
                                <img src=""images/map23_PuOr_scaleDef_orientMir_270.png"" style= ""width:200px""alt=""img"">
                            </div>
                        </div>","-174","","0","","","","images/map23_PuOr_scaleDef_orientMir_270.png","fearful","1","23","23","PuOr","orientMir","scaleDef","270","",""
"","","","","","html-slider-response","86","271063","0.0-76.0","usqfsn43dp","11","NaN","<div style=""width:500px;"">
                            <p style=""font-size:50px; font-weight:bold;""
                            >fearful</p>
                            <div style=""width:240px; margin: auto;"">
                                <img src=""images/map10_Oranges_scaleRev_orientMir_180.png"" style= ""width:200px""alt=""img"">
                            </div>
                        </div>","-174","","0","","","","images/map10_Oranges_scaleRev_orientMir_180.png","fearful","1","10","10","Oranges","orientMir","scaleRev","180","",""
"","","","","","html-slider-response","87","272529","0.0-77.0","usqfsn43dp","11","NaN","<div style=""width:500px;"">
                            <p style=""font-size:50px; font-weight:bold;""
                            >fearful</p>
                            <div style=""width:240px; margin: auto;"">
                                <img src=""images/map02_vanimo_scaleDef_orientMir_090.png"" style= ""width:200px""alt=""img"">
                            </div>
                        </div>","-132","","0","","","","images/map02_vanimo_scaleDef_orientMir_090.png","fearful","1","02","02","vanimo","orientMir","scaleDef","090","",""
"","","","","","html-slider-response","88","273666","0.0-78.0","usqfsn43dp","11","NaN","<div style=""width:500px;"">
                            <p style=""font-size:50px; font-weight:bold;""
                            >fearful</p>
                            <div style=""width:240px; margin: auto;"">
                                <img src=""images/map13_GnBu_scaleDef_orientMir_090.png"" style= ""width:200px""alt=""img"">
                            </div>
                        </div>","-170","","0","","","","images/map13_GnBu_scaleDef_orientMir_090.png","fearful","1","13","13","GnBu","orientMir","scaleDef","090","",""
"","","","","","html-slider-response","89","275194","0.0-79.0","usqfsn43dp","11","NaN","<div style=""width:500px;"">
                            <p style=""font-size:50px; font-weight:bold;""
                            >fearful</p>
                            <div style=""width:240px; margin: auto;"">
                                <img src=""images/map12_YlOrRd_scaleRev_orientMir_000.png"" style= ""width:200px""alt=""img"">
                            </div>
                        </div>","-121","","0","","","","images/map12_YlOrRd_scaleRev_orientMir_000.png","fearful","1","12","12","YlOrRd","orientMir","scaleRev","000","",""
"","","","","","html-slider-response","90","277311","0.0-80.0","usqfsn43dp","11","NaN","<div style=""width:500px;"">
                            <p style=""font-size:50px; font-weight:bold;""
                            >fearful</p>
                            <div style=""width:240px; margin: auto;"">
                                <img src=""images/map02_seismic_scaleRev_orientDef_000.png"" style= ""width:200px""alt=""img"">
                            </div>
                        </div>","175","","0","","","","images/map02_seismic_scaleRev_orientDef_000.png","fearful","1","02","02","seismic","orientDef","scaleRev","000","",""
"","","","","","html-slider-response","91","279377","0.0-81.0","usqfsn43dp","11","NaN","<div style=""width:500px;"">
                            <p style=""font-size:50px; font-weight:bold;""
                            >fearful</p>
                            <div style=""width:240px; margin: auto;"">
                                <img src=""images/map26_RdBu_scaleDef_orientDef_270.png"" style= ""width:200px""alt=""img"">
                            </div>
                        </div>","144","","0","","","","images/map26_RdBu_scaleDef_orientDef_270.png","fearful","1","26","26","RdBu","orientDef","scaleDef","270","",""
"","","","","","html-slider-response","92","280865","0.0-82.0","usqfsn43dp","11","NaN","<div style=""width:500px;"">
                            <p style=""font-size:50px; font-weight:bold;""
                            >fearful</p>
                            <div style=""width:240px; margin: auto;"">
                                <img src=""images/map27_Spectral_scaleRev_orientDef_180.png"" style= ""width:200px""alt=""img"">
                            </div>
                        </div>","-153","","0","","","","images/map27_Spectral_scaleRev_orientDef_180.png","fearful","1","27","27","Spectral","orientDef","scaleRev","180","",""
"","","","","","html-slider-response","93","282684","0.0-83.0","usqfsn43dp","11","NaN","<div style=""width:500px;"">
                            <p style=""font-size:50px; font-weight:bold;""
                            >fearful</p>
                            <div style=""width:240px; margin: auto;"">
                                <img src=""images/map26_RdYlBu_scaleDef_orientMir_090.png"" style= ""width:200px""alt=""img"">
                            </div>
                        </div>","157","","0","","","","images/map26_RdYlBu_scaleDef_orientMir_090.png","fearful","1","26","26","RdYlBu","orientMir","scaleDef","090","",""
"","","","","","html-slider-response","94","283879","0.0-84.0","usqfsn43dp","11","NaN","<div style=""width:500px;"">
                            <p style=""font-size:50px; font-weight:bold;""
                            >fearful</p>
                            <div style=""width:240px; margin: auto;"">
                                <img src=""images/map05_gist_earth_scaleRev_orientDef_000.png"" style= ""width:200px""alt=""img"">
                            </div>
                        </div>","-128","","0","","","","images/map05_gist_earth_scaleRev_orientDef_000.png","fearful","1","05","05","gist","scaleRev","earth","orientDef","",""
"","","","","","html-slider-response","95","285287","0.0-85.0","usqfsn43dp","11","NaN","<div style=""width:500px;"">
                            <p style=""font-size:50px; font-weight:bold;""
                            >fearful</p>
                            <div style=""width:240px; margin: auto;"">
                                <img src=""images/map02_managua_scaleDef_orientDef_270.png"" style= ""width:200px""alt=""img"">
                            </div>
                        </div>","-122","","0","","","","images/map02_managua_scaleDef_orientDef_270.png","fearful","1","02","02","managua","orientDef","scaleDef","270","",""
"","","","","","html-slider-response","96","288160","0.0-86.0","usqfsn43dp","11","NaN","<div style=""width:500px;"">
                            <p style=""font-size:50px; font-weight:bold;""
                            >fearful</p>
                            <div style=""width:240px; margin: auto;"">
                                <img src=""images/map15_PuBuGn_scaleDef_orientDef_270.png"" style= ""width:200px""alt=""img"">
                            </div>
                        </div>","54","","0","","","","images/map15_PuBuGn_scaleDef_orientDef_270.png","fearful","1","15","15","PuBuGn","orientDef","scaleDef","270","",""
"","","","","","html-slider-response","97","291781","0.0-87.0","usqfsn43dp","11","NaN","<div style=""width:500px;"">
                            <p style=""font-size:50px; font-weight:bold;""
                            >fearful</p>
                            <div style=""width:240px; margin: auto;"">
                                <img src=""images/map12_YlOrBr_scaleDef_orientDef_090.png"" style= ""width:200px""alt=""img"">
                            </div>
                        </div>","-58","","0","","","","images/map12_YlOrBr_scaleDef_orientDef_090.png","fearful","1","12","12","YlOrBr","orientDef","scaleDef","090","",""
"","","","","","html-slider-response","98","293813","0.0-88.0","usqfsn43dp","11","NaN","<div style=""width:500px;"">
                            <p style=""font-size:50px; font-weight:bold;""
                            >fearful</p>
                            <div style=""width:240px; margin: auto;"">
                                <img src=""images/map07_cividis_scaleRev_orientMir_000.png"" style= ""width:200px""alt=""img"">
                            </div>
                        </div>","-182","","0","","","","images/map07_cividis_scaleRev_orientMir_000.png","fearful","1","07","07","cividis","orientMir","scaleRev","000","",""
"","","","","","html-slider-response","99","297847","0.0-89.0","usqfsn43dp","11","NaN","<div style=""width:500px;"">
                            <p style=""font-size:50px; font-weight:bold;""
                            >fearful</p>
                            <div style=""width:240px; margin: auto;"">
                                <img src=""images/map13_GnBu_scaleRev_orientMir_180.png"" style= ""width:200px""alt=""img"">
                            </div>
                        </div>","-136","","0","","","","images/map13_GnBu_scaleRev_orientMir_180.png","fearful","1","13","13","GnBu","orientMir","scaleRev","180","",""
"","","","","","html-slider-response","100","299295","0.0-90.0","usqfsn43dp","11","NaN","<div style=""width:500px;"">
                            <p style=""font-size:50px; font-weight:bold;""
                            >fearful</p>
                            <div style=""width:240px; margin: auto;"">
                                <img src=""images/map26_PuOr_scaleRev_orientDef_000.png"" style= ""width:200px""alt=""img"">
                            </div>
                        </div>","-75","","0","","","","images/map26_PuOr_scaleRev_orientDef_000.png","fearful","1","26","26","PuOr","orientDef","scaleRev","000","",""
"","","","","","html-slider-response","101","300370","0.0-91.0","usqfsn43dp","11","NaN","<div style=""width:500px;"">
                            <p style=""font-size:50px; font-weight:bold;""
                            >fearful</p>
                            <div style=""width:240px; margin: auto;"">
                                <img src=""images/map23_YlGn_scaleRev_orientDef_000.png"" style= ""width:200px""alt=""img"">
                            </div>
                        </div>","-117","","0","","","","images/map23_YlGn_scaleRev_orientDef_000.png","fearful","1","23","23","YlGn","orientDef","scaleRev","000","",""
"","","","","","html-slider-response","102","302048","0.0-92.0","usqfsn43dp","11","NaN","<div style=""width:500px;"">
                            <p style=""font-size:50px; font-weight:bold;""
                            >fearful</p>
                            <div style=""width:240px; margin: auto;"">
                                <img src=""images/map26_RdYlBu_scaleRev_orientMir_180.png"" style= ""width:200px""alt=""img"">
                            </div>
                        </div>","172","","0","","","","images/map26_RdYlBu_scaleRev_orientMir_180.png","fearful","1","26","26","RdYlBu","orientMir","scaleRev","180","",""
"","","","","","html-slider-response","103","303589","0.0-93.0","usqfsn43dp","11","NaN","<div style=""width:500px;"">
                            <p style=""font-size:50px; font-weight:bold;""
                            >fearful</p>
                            <div style=""width:240px; margin: auto;"">
                                <img src=""images/map10_Oranges_scaleDef_orientMir_090.png"" style= ""width:200px""alt=""img"">
                            </div>
                        </div>","-116","","0","","","","images/map10_Oranges_scaleDef_orientMir_090.png","fearful","1","10","10","Oranges","orientMir","scaleDef","090","",""
"","","","","","html-slider-response","104","304914","0.0-94.0","usqfsn43dp","11","NaN","<div style=""width:500px;"">
                            <p style=""font-size:50px; font-weight:bold;""
                            >fearful</p>
                            <div style=""width:240px; margin: auto;"">
                                <img src=""images/map02_berlin_scaleRev_orientDef_180.png"" style= ""width:200px""alt=""img"">
                            </div>
                        </div>","-126","","0","","","","images/map02_berlin_scaleRev_orientDef_180.png","fearful","1","02","02","berlin","orientDef","scaleRev","180","",""
"","","","","","html-button-response","105","309809","0.0-95.0","usqfsn43dp","11","4392","<p>Great Job! You've finished block 1.<br></br> You have 4 block(s) left to go.<br></br></p>","0","","","","","","","","","","","","","","","",""
"","","","","","html-button-response","106","310656","0.0-96.0","usqfsn43dp","11","845","<p>In this block of trials, you will be asked to rate how much you associate each map with:</p > <p style = 'font-size:150%; font-weight: bold'>happy</p><br></br>","0","","","","","","","","","","","","","","","",""
"","","","","","html-slider-response","107","314316","0.0-97.0","usqfsn43dp","11","NaN","<div style=""width:500px;"">
                            <p style=""font-size:50px; font-weight:bold;""
                            >happy</p>
                            <div style=""width:240px; margin: auto;"">
                                <img src=""images/map02_managua_scaleRev_orientMir_000.png"" style= ""width:200px""alt=""img"">
                            </div>
                        </div>","16","","0","","","","images/map02_managua_scaleRev_orientMir_000.png","happy","1","02","02","managua","orientMir","scaleRev","000","",""
"","","","","","html-slider-response","108","316417","0.0-98.0","usqfsn43dp","11","NaN","<div style=""width:500px;"">
                            <p style=""font-size:50px; font-weight:bold;""
                            >happy</p>
                            <div style=""width:240px; margin: auto;"">
                                <img src=""images/map13_GnBu_scaleDef_orientMir_090.png"" style= ""width:200px""alt=""img"">
                            </div>
                        </div>","-118","","0","","","","images/map13_GnBu_scaleDef_orientMir_090.png","happy","1","13","13","GnBu","orientMir","scaleDef","090","",""
"","","","","","html-slider-response","109","318159","0.0-99.0","usqfsn43dp","11","NaN","<div style=""width:500px;"">
                            <p style=""font-size:50px; font-weight:bold;""
                            >happy</p>
                            <div style=""width:240px; margin: auto;"">
                                <img src=""images/map27_coolwarm_scaleDef_orientDef_270.png"" style= ""width:200px""alt=""img"">
                            </div>
                        </div>","-189","","0","","","","images/map27_coolwarm_scaleDef_orientDef_270.png","happy","1","27","27","coolwarm","orientDef","scaleDef","270","",""
"","","","","","html-slider-response","110","319665","0.0-100.0","usqfsn43dp","11","NaN","<div style=""width:500px;"">
                            <p style=""font-size:50px; font-weight:bold;""
                            >happy</p>
                            <div style=""width:240px; margin: auto;"">
                                <img src=""images/map23_PRGn_scaleDef_orientDef_270.png"" style= ""width:200px""alt=""img"">
                            </div>
                        </div>","-189","","0","","","","images/map23_PRGn_scaleDef_orientDef_270.png","happy","1","23","23","PRGn","orientDef","scaleDef","270","",""
"","","","","","html-slider-response","111","321354","0.0-101.0","usqfsn43dp","11","NaN","<div style=""width:500px;"">
                            <p style=""font-size:50px; font-weight:bold;""
                            >happy</p>
                            <div style=""width:240px; margin: auto;"">
                                <img src=""images/map02_berlin_scaleDef_orientDef_090.png"" style= ""width:200px""alt=""img"">
                            </div>
                        </div>","-189","","0","","","","images/map02_berlin_scaleDef_orientDef_090.png","happy","1","02","02","berlin","orientDef","scaleDef","090","",""
"","","","","","html-slider-response","112","323050","0.0-102.0","usqfsn43dp","11","NaN","<div style=""width:500px;"">
                            <p style=""font-size:50px; font-weight:bold;""
                            >happy</p>
                            <div style=""width:240px; margin: auto;"">
                                <img src=""images/map15_PuBuGn_scaleRev_orientMir_000.png"" style= ""width:200px""alt=""img"">
                            </div>
                        </div>","-189","","0","","","","images/map15_PuBuGn_scaleRev_orientMir_000.png","happy","1","15","15","PuBuGn","orientMir","scaleRev","000","",""
"","","","","","html-slider-response","113","324315","0.0-103.0","usqfsn43dp","11","NaN","<div style=""width:500px;"">
                            <p style=""font-size:50px; font-weight:bold;""
                            >happy</p>
                            <div style=""width:240px; margin: auto;"">
                                <img src=""images/map15_PuBuGn_scaleDef_orientDef_270.png"" style= ""width:200px""alt=""img"">
                            </div>
                        </div>","-189","","0","","","","images/map15_PuBuGn_scaleDef_orientDef_270.png","happy","1","15","15","PuBuGn","orientDef","scaleDef","270","",""
"","","","","","html-slider-response","114","325673","0.0-104.0","usqfsn43dp","11","NaN","<div style=""width:500px;"">
                            <p style=""font-size:50px; font-weight:bold;""
                            >happy</p>
                            <div style=""width:240px; margin: auto;"">
                                <img src=""images/map02_vanimo_scaleRev_orientMir_180.png"" style= ""width:200px""alt=""img"">
                            </div>
                        </div>","-189","","0","","","","images/map02_vanimo_scaleRev_orientMir_180.png","happy","1","02","02","vanimo","orientMir","scaleRev","180","",""
"","","","","","html-slider-response","115","327705","0.0-105.0","usqfsn43dp","11","NaN","<div style=""width:500px;"">
                            <p style=""font-size:50px; font-weight:bold;""
                            >happy</p>
                            <div style=""width:240px; margin: auto;"">
                                <img src=""images/map07_cividis_scaleRev_orientMir_000.png"" style= ""width:200px""alt=""img"">
                            </div>
                        </div>","168","","0","","","","images/map07_cividis_scaleRev_orientMir_000.png","happy","1","07","07","cividis","orientMir","scaleRev","000","",""
"","","","","","html-slider-response","116","329420","0.0-106.0","usqfsn43dp","11","NaN","<div style=""width:500px;"">
                            <p style=""font-size:50px; font-weight:bold;""
                            >happy</p>
                            <div style=""width:240px; margin: auto;"">
                                <img src=""images/map10_Blues_scaleRev_orientDef_180.png"" style= ""width:200px""alt=""img"">
                            </div>
                        </div>","-187","","0","","","","images/map10_Blues_scaleRev_orientDef_180.png","happy","1","10","10","Blues","orientDef","scaleRev","180","",""
"","","","","","html-slider-response","117","332574","0.0-107.0","usqfsn43dp","11","NaN","<div style=""width:500px;"">
                            <p style=""font-size:50px; font-weight:bold;""
                            >happy</p>
                            <div style=""width:240px; margin: auto;"">
                                <img src=""images/map13_RdPu_scaleRev_orientDef_180.png"" style= ""width:200px""alt=""img"">
                            </div>
                        </div>","14","","0","","","","images/map13_RdPu_scaleRev_orientDef_180.png","happy","1","13","13","RdPu","orientDef","scaleRev","180","",""
"","","","","","html-slider-response","118","334255","0.0-108.0","usqfsn43dp","11","NaN","<div style=""width:500px;"">
                            <p style=""font-size:50px; font-weight:bold;""
                            >happy</p>
                            <div style=""width:240px; margin: auto;"">
                                <img src=""images/map02_vanimo_scaleDef_orientMir_090.png"" style= ""width:200px""alt=""img"">
                            </div>
                        </div>","-171","","0","","","","images/map02_vanimo_scaleDef_orientMir_090.png","happy","1","02","02","vanimo","orientMir","scaleDef","090","",""
"","","","","","html-slider-response","119","335573","0.0-109.0","usqfsn43dp","11","NaN","<div style=""width:500px;"">
                            <p style=""font-size:50px; font-weight:bold;""
                            >happy</p>
                            <div style=""width:240px; margin: auto;"">
                                <img src=""images/map10_Blues_scaleDef_orientDef_090.png"" style= ""width:200px""alt=""img"">
                            </div>
                        </div>","-181","","0","","","","images/map10_Blues_scaleDef_orientDef_090.png","happy","1","10","10","Blues","orientDef","scaleDef","090","",""
"","","","","","html-slider-response","120","337003","0.0-110.0","usqfsn43dp","11","NaN","<div style=""width:500px;"">
                            <p style=""font-size:50px; font-weight:bold;""
                            >happy</p>
                            <div style=""width:240px; margin: auto;"">
                                <img src=""images/map12_OrRd_scaleDef_orientMir_090.png"" style= ""width:200px""alt=""img"">
                            </div>
                        </div>","-181","","0","","","","images/map12_OrRd_scaleDef_orientMir_090.png","happy","1","12","12","OrRd","orientMir","scaleDef","090","",""
"","","","","","html-slider-response","121","338334","0.0-111.0","usqfsn43dp","11","NaN","<div style=""width:500px;"">
                            <p style=""font-size:50px; font-weight:bold;""
                            >happy</p>
                            <div style=""width:240px; margin: auto;"">
                                <img src=""images/map13_RdPu_scaleDef_orientDef_090.png"" style= ""width:200px""alt=""img"">
                            </div>
                        </div>","-181","","0","","","","images/map13_RdPu_scaleDef_orientDef_090.png","happy","1","13","13","RdPu","orientDef","scaleDef","090","",""
"","","","","","html-slider-response","122","340037","0.0-112.0","usqfsn43dp","11","NaN","<div style=""width:500px;"">
                            <p style=""font-size:50px; font-weight:bold;""
                            >happy</p>
                            <div style=""width:240px; margin: auto;"">
                                <img src=""images/map23_BrBG_scaleDef_orientMir_090.png"" style= ""width:200px""alt=""img"">
                            </div>
                        </div>","-181","","0","","","","images/map23_BrBG_scaleDef_orientMir_090.png","happy","1","23","23","BrBG","orientMir","scaleDef","090","",""
"","","","","","html-slider-response","123","342947","0.0-113.0","usqfsn43dp","11","NaN","<div style=""width:500px;"">
                            <p style=""font-size:50px; font-weight:bold;""
                            >happy</p>
                            <div style=""width:240px; margin: auto;"">
                                <img src=""images/map27_seismic_scaleDef_orientMir_270.png"" style= ""width:200px""alt=""img"">
                            </div>
                        </div>","15","","0","","","","images/map27_seismic_scaleDef_orientMir_270.png","happy","1","27","27","seismic","orientMir","scaleDef","270","",""
"","","","","","html-slider-response","124","344377","0.0-114.0","usqfsn43dp","11","NaN","<div style=""width:500px;"">
                            <p style=""font-size:50px; font-weight:bold;""
                            >happy</p>
                            <div style=""width:240px; margin: auto;"">
                                <img src=""images/map26_RdYlBu_scaleDef_orientMir_090.png"" style= ""width:200px""alt=""img"">
                            </div>
                        </div>","-190","","0","","","","images/map26_RdYlBu_scaleDef_orientMir_090.png","happy","1","26","26","RdYlBu","orientMir","scaleDef","090","",""
"","","","","","html-slider-response","125","346950","0.0-115.0","usqfsn43dp","11","NaN","<div style=""width:500px;"">
                            <p style=""font-size:50px; font-weight:bold;""
                            >happy</p>
                            <div style=""width:240px; margin: auto;"">
                                <img src=""images/map12_YlOrBr_scaleDef_orientDef_090.png"" style= ""width:200px""alt=""img"">
                            </div>
                        </div>","19","","0","","","","images/map12_YlOrBr_scaleDef_orientDef_090.png","happy","1","12","12","YlOrBr","orientDef","scaleDef","090","",""
"","","","","","html-slider-response","126","348435","0.0-116.0","usqfsn43dp","11","NaN","<div style=""width:500px;"">
                            <p style=""font-size:50px; font-weight:bold;""
                            >happy</p>
                            <div style=""width:240px; margin: auto;"">
                                <img src=""images/map15_YlGn_scaleDef_orientMir_270.png"" style= ""width:200px""alt=""img"">
                            </div>
                        </div>","-188","","0","","","","images/map15_YlGn_scaleDef_orientMir_270.png","happy","1","15","15","YlGn","orientMir","scaleDef","270","",""
"","","","","","html-slider-response","127","349745","0.0-117.0","usqfsn43dp","11","NaN","<div style=""width:500px;"">
                            <p style=""font-size:50px; font-weight:bold;""
                            >happy</p>
                            <div style=""width:240px; margin: auto;"">
                                <img src=""images/map23_PiYG_scaleRev_orientDef_180.png"" style= ""width:200px""alt=""img"">
                            </div>
                        </div>","-188","","0","","","","images/map23_PiYG_scaleRev_orientDef_180.png","happy","1","23","23","PiYG","orientDef","scaleRev","180","",""
"","","","","","html-slider-response","128","355831","0.0-118.0","usqfsn43dp","11","NaN","<div style=""width:500px;"">
                            <p style=""font-size:50px; font-weight:bold;""
                            >happy</p>
                            <div style=""width:240px; margin: auto;"">
                                <img src=""images/map02_berlin_scaleRev_orientDef_180.png"" style= ""width:200px""alt=""img"">
                            </div>
                        </div>","-181","","0","","","","images/map02_berlin_scaleRev_orientDef_180.png","happy","1","02","02","berlin","orientDef","scaleRev","180","",""
"","","","","","html-slider-response","129","362214","0.0-119.0","usqfsn43dp","11","NaN","<div style=""width:500px;"">
                            <p style=""font-size:50px; font-weight:bold;""
                            >happy</p>
                            <div style=""width:240px; margin: auto;"">
                                <img src=""images/map23_PiYG_scaleDef_orientDef_090.png"" style= ""width:200px""alt=""img"">
                            </div>
                        </div>","24","","0","","","","images/map23_PiYG_scaleDef_orientDef_090.png","happy","1","23","23","PiYG","orientDef","scaleDef","090","",""
"","","","","","html-slider-response","130","364732","0.0-120.0","usqfsn43dp","11","NaN","<div style=""width:500px;"">
                            <p style=""font-size:50px; font-weight:bold;""
                            >happy</p>
                            <div style=""width:240px; margin: auto;"">
                                <img src=""images/map26_RdBu_scaleDef_orientDef_270.png"" style= ""width:200px""alt=""img"">
                            </div>
                        </div>","-68","","0","","","","images/map26_RdBu_scaleDef_orientDef_270.png","happy","1","26","26","RdBu","orientDef","scaleDef","270","",""
"","","","","","html-slider-response","131","367515","0.0-121.0","usqfsn43dp","11","NaN","<div style=""width:500px;"">
                            <p style=""font-size:50px; font-weight:bold;""
                            >happy</p>
                            <div style=""width:240px; margin: auto;"">
                                <img src=""images/map05_turbo_scaleRev_orientDef_180.png"" style= ""width:200px""alt=""img"">
                            </div>
                        </div>","-133","","0","","","","images/map05_turbo_scaleRev_orientDef_180.png","happy","1","05","05","turbo","orientDef","scaleRev","180","",""
"","","","","","html-slider-response","132","369351","0.0-122.0","usqfsn43dp","11","NaN","<div style=""width:500px;"">
                            <p style=""font-size:50px; font-weight:bold;""
                            >happy</p>
                            <div style=""width:240px; margin: auto;"">
                                <img src=""images/map26_RdYlGn_scaleDef_orientMir_270.png"" style= ""width:200px""alt=""img"">
                            </div>
                        </div>","-133","","0","","","","images/map26_RdYlGn_scaleDef_orientMir_270.png","happy","1","26","26","RdYlGn","orientMir","scaleDef","270","",""
"","","","","","html-slider-response","133","371073","0.0-123.0","usqfsn43dp","11","NaN","<div style=""width:500px;"">
                            <p style=""font-size:50px; font-weight:bold;""
                            >happy</p>
                            <div style=""width:240px; margin: auto;"">
                                <img src=""images/map27_Spectral_scaleRev_orientDef_180.png"" style= ""width:200px""alt=""img"">
                            </div>
                        </div>","-133","","0","","","","images/map27_Spectral_scaleRev_orientDef_180.png","happy","1","27","27","Spectral","orientDef","scaleRev","180","",""
"","","","","","html-slider-response","134","372593","0.0-124.0","usqfsn43dp","11","NaN","<div style=""width:500px;"">
                            <p style=""font-size:50px; font-weight:bold;""
                            >happy</p>
                            <div style=""width:240px; margin: auto;"">
                                <img src=""images/map26_RdBu_scaleRev_orientMir_000.png"" style= ""width:200px""alt=""img"">
                            </div>
                        </div>","-133","","0","","","","images/map26_RdBu_scaleRev_orientMir_000.png","happy","1","26","26","RdBu","orientMir","scaleRev","000","",""
"","","","","","html-slider-response","135","375146","0.0-125.0","usqfsn43dp","11","NaN","<div style=""width:500px;"">
                            <p style=""font-size:50px; font-weight:bold;""
                            >happy</p>
                            <div style=""width:240px; margin: auto;"">
                                <img src=""images/map23_BrBG_scaleRev_orientMir_180.png"" style= ""width:200px""alt=""img"">
                            </div>
                        </div>","-79","","0","","","","images/map23_BrBG_scaleRev_orientMir_180.png","happy","1","23","23","BrBG","orientMir","scaleRev","180","",""
"","","","","","html-slider-response","136","376933","0.0-126.0","usqfsn43dp","11","NaN","<div style=""width:500px;"">
                            <p style=""font-size:50px; font-weight:bold;""
                            >happy</p>
                            <div style=""width:240px; margin: auto;"">
                                <img src=""images/map26_RdGy_scaleDef_orientDef_090.png"" style= ""width:200px""alt=""img"">
                            </div>
                        </div>","-109","","0","","","","images/map26_RdGy_scaleDef_orientDef_090.png","happy","1","26","26","RdGy","orientDef","scaleDef","090","",""
"","","","","","html-slider-response","137","486108","0.0-127.0","usqfsn43dp","11","NaN","<div style=""width:500px;"">
                            <p style=""font-size:50px; font-weight:bold;""
                            >happy</p>
                            <div style=""width:240px; margin: auto;"">
                                <img src=""images/map27_Spectral_scaleDef_orientDef_090.png"" style= ""width:200px""alt=""img"">
                            </div>
                        </div>","-160","","0","","","","images/map27_Spectral_scaleDef_orientDef_090.png","happy","1","27","27","Spectral","orientDef","scaleDef","090","",""
"","","","","","html-slider-response","138","498158","0.0-128.0","usqfsn43dp","11","NaN","<div style=""width:500px;"">
                            <p style=""font-size:50px; font-weight:bold;""
                            >happy</p>
                            <div style=""width:240px; margin: auto;"">
                                <img src=""images/map27_RdYlGn_scaleRev_orientDef_000.png"" style= ""width:200px""alt=""img"">
                            </div>
                        </div>","-141","","0","","","","images/map27_RdYlGn_scaleRev_orientDef_000.png","happy","1","27","27","RdYlGn","orientDef","scaleRev","000","",""
"","","","","","html-slider-response","139","499451","0.0-129.0","usqfsn43dp","11","NaN","<div style=""width:500px;"">
                            <p style=""font-size:50px; font-weight:bold;""
                            >happy</p>
                            <div style=""width:240px; margin: auto;"">
                                <img src=""images/map15_YlGnBu_scaleRev_orientDef_180.png"" style= ""width:200px""alt=""img"">
                            </div>
                        </div>","-107","","0","","","","images/map15_YlGnBu_scaleRev_orientDef_180.png","happy","1","15","15","YlGnBu","orientDef","scaleRev","180","",""
"","","","","","html-slider-response","140","500578","0.0-130.0","usqfsn43dp","11","NaN","<div style=""width:500px;"">
                            <p style=""font-size:50px; font-weight:bold;""
                            >happy</p>
                            <div style=""width:240px; margin: auto;"">
                                <img src=""images/map26_RdGy_scaleRev_orientDef_180.png"" style= ""width:200px""alt=""img"">
                            </div>
                        </div>","-128","","0","","","","images/map26_RdGy_scaleRev_orientDef_180.png","happy","1","26","26","RdGy","orientDef","scaleRev","180","",""
"","","","","","html-slider-response","141","501873","0.0-131.0","usqfsn43dp","11","NaN","<div style=""width:500px;"">
                            <p style=""font-size:50px; font-weight:bold;""
                            >happy</p>
                            <div style=""width:240px; margin: auto;"">
                                <img src=""images/map23_YlGn_scaleRev_orientDef_000.png"" style= ""width:200px""alt=""img"">
                            </div>
                        </div>","-120","","0","","","","images/map23_YlGn_scaleRev_orientDef_000.png","happy","1","23","23","YlGn","orientDef","scaleRev","000","",""
"","","","","","html-slider-response","142","503127","0.0-132.0","usqfsn43dp","11","NaN","<div style=""width:500px;"">
                            <p style=""font-size:50px; font-weight:bold;""
                            >happy</p>
                            <div style=""width:240px; margin: auto;"">
                                <img src=""images/map10_Purples_scaleRev_orientDef_000.png"" style= ""width:200px""alt=""img"">
                            </div>
                        </div>","-120","","0","","","","images/map10_Purples_scaleRev_orientDef_000.png","happy","1","10","10","Purples","orientDef","scaleRev","000","",""
"","","","","","html-slider-response","143","504751","0.0-133.0","usqfsn43dp","11","NaN","<div style=""width:500px;"">
                            <p style=""font-size:50px; font-weight:bold;""
                            >happy</p>
                            <div style=""width:240px; margin: auto;"">
                                <img src=""images/map13_BuPu_scaleDef_orientDef_270.png"" style= ""width:200px""alt=""img"">
                            </div>
                        </div>","-120","","0","","","","images/map13_BuPu_scaleDef_orientDef_270.png","happy","1","13","13","BuPu","orientDef","scaleDef","270","",""
"","","","","","html-slider-response","144","508259","0.0-134.0","usqfsn43dp","11","NaN","<div style=""width:500px;"">
                            <p style=""font-size:50px; font-weight:bold;""
                            >happy</p>
                            <div style=""width:240px; margin: auto;"">
                                <img src=""images/map07_magma_scaleRev_orientDef_180.png"" style= ""width:200px""alt=""img"">
                            </div>
                        </div>","-187","","0","","","","images/map07_magma_scaleRev_orientDef_180.png","happy","1","07","07","magma","orientDef","scaleRev","180","",""
"","","","","","html-slider-response","145","509538","0.0-135.0","usqfsn43dp","11","NaN","<div style=""width:500px;"">
                            <p style=""font-size:50px; font-weight:bold;""
                            >happy</p>
                            <div style=""width:240px; margin: auto;"">
                                <img src=""images/map13_BuPu_scaleRev_orientMir_000.png"" style= ""width:200px""alt=""img"">
                            </div>
                        </div>","-187","","0","","","","images/map13_BuPu_scaleRev_orientMir_000.png","happy","1","13","13","BuPu","orientMir","scaleRev","000","",""
"","","","","","html-slider-response","146","510867","0.0-136.0","usqfsn43dp","11","NaN","<div style=""width:500px;"">
                            <p style=""font-size:50px; font-weight:bold;""
                            >happy</p>
                            <div style=""width:240px; margin: auto;"">
                                <img src=""images/map13_GnBu_scaleRev_orientMir_180.png"" style= ""width:200px""alt=""img"">
                            </div>
                        </div>","-187","","0","","","","images/map13_GnBu_scaleRev_orientMir_180.png","happy","1","13","13","GnBu","orientMir","scaleRev","180","",""
"","","","","","html-button-response","147","514313","0.0-137.0","usqfsn43dp","11","2936","<p>You are doing great!<br></br> You are halway done with the current block. When you are ready to continue, click the 'Continue' button.</p>","0","","","","","","","","","","","","","","","",""
"","","","","","html-slider-response","148","515401","0.0-138.0","usqfsn43dp","11","NaN","<div style=""width:500px;"">
                            <p style=""font-size:50px; font-weight:bold;""
                            >happy</p>
                            <div style=""width:240px; margin: auto;"">
                                <img src=""images/map15_BuGn_scaleRev_orientMir_180.png"" style= ""width:200px""alt=""img"">
                            </div>
                        </div>","-186","","0","","","","images/map15_BuGn_scaleRev_orientMir_180.png","happy","1","15","15","BuGn","orientMir","scaleRev","180","",""
"","","","","","html-slider-response","149","517149","0.0-139.0","usqfsn43dp","11","NaN","<div style=""width:500px;"">
                            <p style=""font-size:50px; font-weight:bold;""
                            >happy</p>
                            <div style=""width:240px; margin: auto;"">
                                <img src=""images/map07_magma_scaleDef_orientDef_090.png"" style= ""width:200px""alt=""img"">
                            </div>
                        </div>","66","","0","","","","images/map07_magma_scaleDef_orientDef_090.png","happy","1","07","07","magma","orientDef","scaleDef","090","",""
"","","","","","html-slider-response","150","518717","0.0-140.0","usqfsn43dp","11","NaN","<div style=""width:500px;"">
                            <p style=""font-size:50px; font-weight:bold;""
                            >happy</p>
                            <div style=""width:240px; margin: auto;"">
                                <img src=""images/map07_Greys_scaleRev_orientMir_180.png"" style= ""width:200px""alt=""img"">
                            </div>
                        </div>","-200","","0","","","","images/map07_Greys_scaleRev_orientMir_180.png","happy","1","07","07","Greys","orientMir","scaleRev","180","",""
"","","","","","html-slider-response","151","520749","0.0-141.0","usqfsn43dp","11","NaN","<div style=""width:500px;"">
                            <p style=""font-size:50px; font-weight:bold;""
                            >happy</p>
                            <div style=""width:240px; margin: auto;"">
                                <img src=""images/map07_cividis_scaleDef_orientDef_270.png"" style= ""width:200px""alt=""img"">
                            </div>
                        </div>","118","","0","","","","images/map07_cividis_scaleDef_orientDef_270.png","happy","1","07","07","cividis","orientDef","scaleDef","270","",""
"","","","","","html-slider-response","152","522559","0.0-142.0","usqfsn43dp","11","NaN","<div style=""width:500px;"">
                            <p style=""font-size:50px; font-weight:bold;""
                            >happy</p>
                            <div style=""width:240px; margin: auto;"">
                                <img src=""images/map05_plasma_scaleRev_orientMir_180.png"" style= ""width:200px""alt=""img"">
                            </div>
                        </div>","-43","","0","","","","images/map05_plasma_scaleRev_orientMir_180.png","happy","1","05","05","plasma","orientMir","scaleRev","180","",""
"","","","","","html-slider-response","153","523675","0.0-143.0","usqfsn43dp","11","NaN","<div style=""width:500px;"">
                            <p style=""font-size:50px; font-weight:bold;""
                            >happy</p>
                            <div style=""width:240px; margin: auto;"">
                                <img src=""images/map15_BuGn_scaleDef_orientMir_090.png"" style= ""width:200px""alt=""img"">
                            </div>
                        </div>","-97","","0","","","","images/map15_BuGn_scaleDef_orientMir_090.png","happy","1","15","15","BuGn","orientMir","scaleDef","090","",""
"","","","","","html-slider-response","154","524612","0.0-144.0","usqfsn43dp","11","NaN","<div style=""width:500px;"">
                            <p style=""font-size:50px; font-weight:bold;""
                            >happy</p>
                            <div style=""width:240px; margin: auto;"">
                                <img src=""images/map10_Greens_scaleRev_orientMir_000.png"" style= ""width:200px""alt=""img"">
                            </div>
                        </div>","-112","","0","","","","images/map10_Greens_scaleRev_orientMir_000.png","happy","1","10","10","Greens","orientMir","scaleRev","000","",""
"","","","","","html-slider-response","155","525837","0.0-145.0","usqfsn43dp","11","NaN","<div style=""width:500px;"">
                            <p style=""font-size:50px; font-weight:bold;""
                            >happy</p>
                            <div style=""width:240px; margin: auto;"">
                                <img src=""images/map10_Oranges_scaleRev_orientMir_180.png"" style= ""width:200px""alt=""img"">
                            </div>
                        </div>","-112","","0","","","","images/map10_Oranges_scaleRev_orientMir_180.png","happy","1","10","10","Oranges","orientMir","scaleRev","180","",""
"","","","","","html-slider-response","156","527907","0.0-146.0","usqfsn43dp","11","NaN","<div style=""width:500px;"">
                            <p style=""font-size:50px; font-weight:bold;""
                            >happy</p>
                            <div style=""width:240px; margin: auto;"">
                                <img src=""images/map10_Reds_scaleDef_orientMir_270.png"" style= ""width:200px""alt=""img"">
                            </div>
                        </div>","-138","","0","","","","images/map10_Reds_scaleDef_orientMir_270.png","happy","1","10","10","Reds","orientMir","scaleDef","270","",""
"","","","","","html-slider-response","157","530215","0.0-147.0","usqfsn43dp","11","NaN","<div style=""width:500px;"">
                            <p style=""font-size:50px; font-weight:bold;""
                            >happy</p>
                            <div style=""width:240px; margin: auto;"">
                                <img src=""images/map12_YlOrRd_scaleDef_orientDef_270.png"" style= ""width:200px""alt=""img"">
                            </div>
                        </div>","23","","0","","","","images/map12_YlOrRd_scaleDef_orientDef_270.png","happy","1","12","12","YlOrRd","orientDef","scaleDef","270","",""
"","","","","","html-slider-response","158","532809","0.0-148.0","usqfsn43dp","11","NaN","<div style=""width:500px;"">
                            <p style=""font-size:50px; font-weight:bold;""
                            >happy</p>
                            <div style=""width:240px; margin: auto;"">
                                <img src=""images/map12_YlOrBr_scaleRev_orientDef_180.png"" style= ""width:200px""alt=""img"">
                            </div>
                        </div>","16","","0","","","","images/map12_YlOrBr_scaleRev_orientDef_180.png","happy","1","12","12","YlOrBr","orientDef","scaleRev","180","",""
"","","","","","html-slider-response","159","534792","0.0-149.0","usqfsn43dp","11","NaN","<div style=""width:500px;"">
                            <p style=""font-size:50px; font-weight:bold;""
                            >happy</p>
                            <div style=""width:240px; margin: auto;"">
                                <img src=""images/map02_seismic_scaleRev_orientDef_000.png"" style= ""width:200px""alt=""img"">
                            </div>
                        </div>","-189","","0","","","","images/map02_seismic_scaleRev_orientDef_000.png","happy","1","02","02","seismic","orientDef","scaleRev","000","",""
"","","","","","html-slider-response","160","537234","0.0-150.0","usqfsn43dp","11","NaN","<div style=""width:500px;"">
                            <p style=""font-size:50px; font-weight:bold;""
