"success","timeout","failed_images","failed_audio","failed_video","trial_type","trial_index","time_elapsed","internal_node_id","subject_id","condition_num","rt","stimulus","response","question_order","slider_start","practiceTrial","practiceTrialNum","correct","image_path","concept","repetition","map_id","map_num","scale_name","orientation_code","mapping_code","rotation_code","ishihara_plate","correct_response"
"true","false","[]","[]","[]","preload","0","591","0.0-0.0","v8mtw2p5lp","68","","","","","","","","","","","","","","","","","","",""
"","","","","","html-button-response","1","1849","0.0-1.0","v8mtw2p5lp","68","1255","Welcome to our experiment!<p>At the bottom of this screen, you will see a button that says ""Begin Experiment"".<br>Please only click that button when you are ready to complete the 30 minute experiment in one sitting.</p><p> Once you click that button, it will not be possible to restart the experiment.","0","","","","","","","","","","","","","","","",""
"true","","","","","fullscreen","2","5930","0.0-2.0","v8mtw2p5lp","68","3024","","","","","","","","","","","","","","","","","",""
"","","","","","survey-multi-select","3","20721","0.0-3.0","v8mtw2p5lp","68","14785","","{""Consent"":[""<strong>I consent</strong>""]}","[0]","","","","","","","","","","","","","","",""
"","","","","","html-button-response","4","95308","0.0-4.0","v8mtw2p5lp","68","74583","Welcome! <p> This experiment involves two parts: demographic information, followed by the experimental task.<p> It will take about 30 minutes to complete both parts.","0","","","","","","","","","","","","","","","",""
"","","","","","survey-text","5","109073","0.0-5.0","v8mtw2p5lp","68","13754","","{""Age"":""20"",""Gender"":""female"",""Race/ethnicity"":""white"",""Languages"":""english""}","","","","","","","","","","","","","","","",""
"","","","","","html-slider-response","6","112854","0.0-6.0","v8mtw2p5lp","68","3775","<div style='text-align:left; font-size:20px; line-height:25px; width: 1000px;'>
                                During this experiment you will be asked to rate how much you associate maps with                    different concepts.<br> Below, you can see some examples of the maps you will be asked to rate. Above the maps
                    is the list of concepts.<br>You will be asked                    to rate how much you associate each map with each concept on a scale from 'not at all' to 'very much' like the
                    one below. <br><br>
                    Now, please look at the list of concepts and maps. For each concept, think about the map you associate 'very
                    much' with the concept.<br>                     When you see that map during the experiment, please rate it near the 'very much' endpoint of the
                    scale.<br>Now, please think about which map you associate 'not at all'                     with each concept. When you see that map during the experiment, please rate it near the 'not at all' endpoint
                    of the scale.<br>
                    Please use the full range of the scale. That is, if a map is somewhat associated with the concept, you would
                    click partway between the middle point and right side of the scale.                    You will be asked to rate each map for a given concept before moving on to the next concept.<br>Press the
                    'Continue' button for instructions on how to use the slider.                    <br>
                </div>

                <div style=""width: 500px; margin: 0 auto;"">
                    <!-- Centered text paragraphs -->
                    <div style=""text-align: center; width: 500px;"">
                        <p style=""font-size:25px; line-height:15px;"">
                            fearful&nbsp;&nbsp;&nbsp;&nbsp;
                            happy&nbsp;&nbsp;&nbsp;&nbsp;
                            sad&nbsp;&nbsp;&nbsp;&nbsp;
                            disgust&nbsp;&nbsp;&nbsp;&nbsp;
                            angry
                        </p>
                        <!-- <p style=""font-size:20px; line-height:15px;"">happy</p>
                        <p style=""font-size:20px;line-height:15px;"">sad</p>
                        <p style=""font-size:20px;line-height:15px;"">disgust</p>
                        <p style=""font-size:20px;line-height:15px;"">angry</p> -->
                    </div>
            

                    <!-- Grid section -->
                   <div style=""display: flex; justify-content: center; padding-top: 15px;"">
                    <div style=""display: grid; grid-template-columns: repeat(10, 55px); grid-gap: 5px; width: auto;"">
                        <img src=""images/map02_Oranges_scaleDef_orientMir_180.png"" alt=""map"" style=""width: 100%;""><img src=""images/map27_cividis_scaleRev_orientMir_090.png"" alt=""map"" style=""width: 100%;""><img src=""images/map07_GnBu_scaleRev_orientMir_270.png"" alt=""map"" style=""width: 100%;""><img src=""images/map26_turbo_scaleRev_orientDef_270.png"" alt=""map"" style=""width: 100%;""><img src=""images/map10_PuBu_scaleDef_orientDef_000.png"" alt=""map"" style=""width: 100%;""><img src=""images/map23_vanimo_scaleDef_orientMir_180.png"" alt=""map"" style=""width: 100%;""><img src=""images/map12_PRGn_scaleDef_orientMir_000.png"" alt=""map"" style=""width: 100%;""><img src=""images/map10_YlGnBu_scaleDef_orientDef_180.png"" alt=""map"" style=""width: 100%;""><img src=""images/map26_gist_earth_scaleDef_orientDef_000.png"" alt=""map"" style=""width: 100%;""><img src=""images/map23_managua_scaleRev_orientMir_090.png"" alt=""map"" style=""width: 100%;""><img src=""images/map13_RdBu_scaleRev_orientMir_090.png"" alt=""map"" style=""width: 100%;""><img src=""images/map05_OrRd_scaleDef_orientMir_180.png"" alt=""map"" style=""width: 100%;""><img src=""images/map26_plasma_scaleRev_orientMir_270.png"" alt=""map"" style=""width: 100%;""><img src=""images/map12_BrBG_scaleRev_orientMir_270.png"" alt=""map"" style=""width: 100%;""><img src=""images/map12_YlGn_scaleDef_orientDef_000.png"" alt=""map"" style=""width: 100%;""><img src=""images/map15_bwr_scaleDef_orientMir_180.png"" alt=""map"" style=""width: 100%;""><img src=""images/map15_RdYlGn_scaleRev_orientDef_090.png"" alt=""map"" style=""width: 100%;""><img src=""images/map15_Spectral_scaleDef_orientDef_180.png"" alt=""map"" style=""width: 100%;""><img src=""images/map13_RdYlBu_scaleRev_orientMir_270.png"" alt=""map"" style=""width: 100%;""><img src=""images/map23_seismic_scaleDef_orientDef_000.png"" alt=""map"" style=""width: 100%;""><img src=""images/map27_inferno_scaleDef_orientDef_000.png"" alt=""map"" style=""width: 100%;""><img src=""images/map02_Greens_scaleRev_orientMir_090.png"" alt=""map"" style=""width: 100%;""><img src=""images/map15_coolwarm_scaleRev_orientMir_090.png"" alt=""map"" style=""width: 100%;""><img src=""images/map07_PuRd_scaleDef_orientDef_000.png"" alt=""map"" style=""width: 100%;""><img src=""images/map10_PuBuGn_scaleDef_orientMir_000.png"" alt=""map"" style=""width: 100%;""><img src=""images/map02_Purples_scaleRev_orientDef_090.png"" alt=""map"" style=""width: 100%;""><img src=""images/map23_berlin_scaleDef_orientDef_180.png"" alt=""map"" style=""width: 100%;""><img src=""images/map05_Reds_scaleRev_orientDef_090.png"" alt=""map"" style=""width: 100%;""><img src=""images/map26_viridis_scaleDef_orientMir_000.png"" alt=""map"" style=""width: 100%;""><img src=""images/map13_RdGy_scaleDef_orientDef_180.png"" alt=""map"" style=""width: 100%;""><img src=""images/map07_BuPu_scaleDef_orientMir_000.png"" alt=""map"" style=""width: 100%;""><img src=""images/map13_PuOr_scaleRev_orientDef_090.png"" alt=""map"" style=""width: 100%;""><img src=""images/map10_BuGn_scaleDef_orientMir_180.png"" alt=""map"" style=""width: 100%;""><img src=""images/map02_Blues_scaleRev_orientDef_270.png"" alt=""map"" style=""width: 100%;""><img src=""images/map05_YlOrRd_scaleRev_orientMir_090.png"" alt=""map"" style=""width: 100%;""><img src=""images/map27_Greys_scaleDef_orientMir_180.png"" alt=""map"" style=""width: 100%;""><img src=""images/map07_RdPu_scaleDef_orientDef_180.png"" alt=""map"" style=""width: 100%;""><img src=""images/map27_magma_scaleRev_orientDef_270.png"" alt=""map"" style=""width: 100%;""><img src=""images/map12_PiYG_scaleDef_orientDef_180.png"" alt=""map"" style=""width: 100%;""><img src=""images/map05_YlOrBr_scaleRev_orientDef_270.png"" alt=""map"" style=""width: 100%;"">
                    </div>
                </div>

                    <!-- Clear floats -->
                    <div style=""clear: both;""></div>
                </div>
                            ","null","","0","true","","","","","","","","","","","","",""
"","","","","","html-button-response","7","115014","0.0-7.0","v8mtw2p5lp","68","2157","<div style=""width:800px;""><p style=""text-align:left"">To move the slider, click and drag your cursor to the location of the scale where you would like to make your rating and then let go. When you let go of the slider, your response will be recorded and the next trial will begin. <br>
                    We are interested in your initial impressions of each map for the given concept, so please go with your first intuition. <br>
                    Before you begin the experiment, there will be four training trials for you to practice using the scale. <br>
                     When you are ready to start the training trials, please click ""Continue"".</p><br></div>","0","","","","","","","","","","","","","","","",""
"","","","","","html-slider-response","8","119230","0.0-8.0-0.0","v8mtw2p5lp","68","NaN","<div style=""width:500px;"">
                                    <p style=""font-size:25px;"">Please move the slider all the way to the <br> right endpoint of the scale</p>

                                    </div>
                                </div>","200","","0","true","0","true","","","","","","","","","","",""
"","","","","","html-button-response","9","120819","0.0-8.0-1.0","v8mtw2p5lp","68","1079","<p align='center'><b>Good job!</b> Click on 'Continue' to proceed.</p>","0","","","","","","","","","","","","","","","",""
"","","","","","html-slider-response","10","122341","0.0-9.0-0.0","v8mtw2p5lp","68","NaN","<div style=""width:500px;"">
                                    <p style=""font-size:25px;"">Please move the slider all the way to the <br> left endpoint of the scale</p>

                                    </div>
                                </div>","-200","","0","true","1","true","","","","","","","","","","",""
"","","","","","html-button-response","11","123796","0.0-9.0-1.0","v8mtw2p5lp","68","951","<p align='center'><b>Good job!</b> Click on 'Continue' to proceed.</p>","0","","","","","","","","","","","","","","","",""
"","","","","","html-slider-response","12","128598","0.0-10.0-0.0","v8mtw2p5lp","68","NaN","<div style=""width:500px;"">
                                    <p style=""font-size:25px;"">Please move the slider halfway between the center and right endpoint of the scale</p>

                                    </div>
                                </div>","100","","0","true","2","true","","","","","","","","","","",""
"","","","","","html-button-response","13","129645","0.0-10.0-1.0","v8mtw2p5lp","68","530","<p align='center'><b>Good job!</b> Click on 'Continue' to proceed.</p>","0","","","","","","","","","","","","","","","",""
"","","","","","html-slider-response","14","132399","0.0-11.0-0.0","v8mtw2p5lp","68","NaN","<div style=""width:500px;"">
                                    <p style=""font-size:25px;"">Please move the slider halfway between the center and left endpoint of the scale</p>

                                    </div>
                                </div>","-107","","0","true","3","true","","","","","","","","","","",""
"","","","","","html-button-response","15","133440","0.0-11.0-1.0","v8mtw2p5lp","68","538","<p align='center'><b>Good job!</b> Click on 'Continue' to proceed.</p>","0","","","","","","","","","","","","","","","",""
"","","","","","html-button-response","16","135898","0.0-12.0","v8mtw2p5lp","68","2456","<p>Great job! You've completed the practice trials. Now you will begin the main task.</p>","0","","","","","","","","","","","","","","","",""
"","","","","","html-button-response","17","141029","0.0-13.0","v8mtw2p5lp","68","5129","<p>In this block of trials, you will be asked to rate how much you associate each map with:</p > <p style = 'font-size:150%; font-weight: bold'>fearful</p><br></br>","0","","","","","","","","","","","","","","","",""
"","","","","","html-slider-response","18","146279","0.0-14.0","v8mtw2p5lp","68","NaN","<div style=""width:500px;"">
                            <p style=""font-size:50px; font-weight:bold;""
                            >fearful</p>
                            <div style=""width:240px; margin: auto;"">
                                <img src=""images/map26_plasma_scaleDef_orientMir_180.png"" style= ""width:200px""alt=""img"">
                            </div>
                        </div>","29","","0","","","","images/map26_plasma_scaleDef_orientMir_180.png","fearful","1","26","26","plasma","orientMir","scaleDef","180","",""
"","","","","","html-slider-response","19","149749","0.0-15.0","v8mtw2p5lp","68","NaN","<div style=""width:500px;"">
                            <p style=""font-size:50px; font-weight:bold;""
                            >fearful</p>
                            <div style=""width:240px; margin: auto;"">
                                <img src=""images/map02_Purples_scaleDef_orientDef_000.png"" style= ""width:200px""alt=""img"">
                            </div>
                        </div>","25","","0","","","","images/map02_Purples_scaleDef_orientDef_000.png","fearful","1","02","02","Purples","orientDef","scaleDef","000","",""
"","","","","","html-slider-response","20","153903","0.0-16.0","v8mtw2p5lp","68","NaN","<div style=""width:500px;"">
                            <p style=""font-size:50px; font-weight:bold;""
                            >fearful</p>
                            <div style=""width:240px; margin: auto;"">
                                <img src=""images/map02_Greens_scaleRev_orientMir_090.png"" style= ""width:200px""alt=""img"">
                            </div>
                        </div>","29","","0","","","","images/map02_Greens_scaleRev_orientMir_090.png","fearful","1","02","02","Greens","orientMir","scaleRev","090","",""
"","","","","","html-slider-response","21","156539","0.0-17.0","v8mtw2p5lp","68","NaN","<div style=""width:500px;"">
                            <p style=""font-size:50px; font-weight:bold;""
                            >fearful</p>
                            <div style=""width:240px; margin: auto;"">
                                <img src=""images/map15_bwr_scaleRev_orientMir_270.png"" style= ""width:200px""alt=""img"">
                            </div>
                        </div>","118","","0","","","","images/map15_bwr_scaleRev_orientMir_270.png","fearful","1","15","15","bwr","orientMir","scaleRev","270","",""
"","","","","","html-slider-response","22","160172","0.0-18.0","v8mtw2p5lp","68","NaN","<div style=""width:500px;"">
                            <p style=""font-size:50px; font-weight:bold;""
                            >fearful</p>
                            <div style=""width:240px; margin: auto;"">
                                <img src=""images/map26_gist_earth_scaleRev_orientDef_090.png"" style= ""width:200px""alt=""img"">
                            </div>
                        </div>","72","","0","","","","images/map26_gist_earth_scaleRev_orientDef_090.png","fearful","1","26","26","gist","scaleRev","earth","orientDef","",""
"","","","","","html-slider-response","23","163133","0.0-19.0","v8mtw2p5lp","68","NaN","<div style=""width:500px;"">
                            <p style=""font-size:50px; font-weight:bold;""
                            >fearful</p>
                            <div style=""width:240px; margin: auto;"">
                                <img src=""images/map27_inferno_scaleRev_orientDef_090.png"" style= ""width:200px""alt=""img"">
                            </div>
                        </div>","156","","0","","","","images/map27_inferno_scaleRev_orientDef_090.png","fearful","1","27","27","inferno","orientDef","scaleRev","090","",""
"","","","","","html-slider-response","24","165912","0.0-20.0","v8mtw2p5lp","68","NaN","<div style=""width:500px;"">
                            <p style=""font-size:50px; font-weight:bold;""
                            >fearful</p>
                            <div style=""width:240px; margin: auto;"">
                                <img src=""images/map07_PuRd_scaleDef_orientDef_000.png"" style= ""width:200px""alt=""img"">
                            </div>
                        </div>","166","","0","","","","images/map07_PuRd_scaleDef_orientDef_000.png","fearful","1","07","07","PuRd","orientDef","scaleDef","000","",""
"","","","","","html-slider-response","25","168880","0.0-21.0","v8mtw2p5lp","68","NaN","<div style=""width:500px;"">
                            <p style=""font-size:50px; font-weight:bold;""
                            >fearful</p>
                            <div style=""width:240px; margin: auto;"">
                                <img src=""images/map15_Spectral_scaleRev_orientDef_270.png"" style= ""width:200px""alt=""img"">
                            </div>
                        </div>","-61","","0","","","","images/map15_Spectral_scaleRev_orientDef_270.png","fearful","1","15","15","Spectral","orientDef","scaleRev","270","",""
"","","","","","html-slider-response","26","171303","0.0-22.0","v8mtw2p5lp","68","NaN","<div style=""width:500px;"">
                            <p style=""font-size:50px; font-weight:bold;""
                            >fearful</p>
                            <div style=""width:240px; margin: auto;"">
                                <img src=""images/map13_PuOr_scaleDef_orientDef_000.png"" style= ""width:200px""alt=""img"">
                            </div>
                        </div>","-106","","0","","","","images/map13_PuOr_scaleDef_orientDef_000.png","fearful","1","13","13","PuOr","orientDef","scaleDef","000","",""
"","","","","","html-slider-response","27","173740","0.0-23.0","v8mtw2p5lp","68","NaN","<div style=""width:500px;"">
                            <p style=""font-size:50px; font-weight:bold;""
                            >fearful</p>
                            <div style=""width:240px; margin: auto;"">
                                <img src=""images/map07_BuPu_scaleDef_orientMir_000.png"" style= ""width:200px""alt=""img"">
                            </div>
                        </div>","-78","","0","","","","images/map07_BuPu_scaleDef_orientMir_000.png","fearful","1","07","07","BuPu","orientMir","scaleDef","000","",""
"","","","","","html-slider-response","28","176353","0.0-24.0","v8mtw2p5lp","68","NaN","<div style=""width:500px;"">
                            <p style=""font-size:50px; font-weight:bold;""
                            >fearful</p>
                            <div style=""width:240px; margin: auto;"">
                                <img src=""images/map12_PRGn_scaleDef_orientMir_000.png"" style= ""width:200px""alt=""img"">
                            </div>
                        </div>","62","","0","","","","images/map12_PRGn_scaleDef_orientMir_000.png","fearful","1","12","12","PRGn","orientMir","scaleDef","000","",""
"","","","","","html-slider-response","29","178451","0.0-25.0","v8mtw2p5lp","68","NaN","<div style=""width:500px;"">
                            <p style=""font-size:50px; font-weight:bold;""
                            >fearful</p>
                            <div style=""width:240px; margin: auto;"">
                                <img src=""images/map07_BuPu_scaleRev_orientMir_090.png"" style= ""width:200px""alt=""img"">
                            </div>
                        </div>","-82","","0","","","","images/map07_BuPu_scaleRev_orientMir_090.png","fearful","1","07","07","BuPu","orientMir","scaleRev","090","",""
"","","","","","html-slider-response","30","180302","0.0-26.0","v8mtw2p5lp","68","NaN","<div style=""width:500px;"">
                            <p style=""font-size:50px; font-weight:bold;""
                            >fearful</p>
                            <div style=""width:240px; margin: auto;"">
                                <img src=""images/map02_Oranges_scaleDef_orientMir_180.png"" style= ""width:200px""alt=""img"">
                            </div>
                        </div>","-58","","0","","","","images/map02_Oranges_scaleDef_orientMir_180.png","fearful","1","02","02","Oranges","orientMir","scaleDef","180","",""
"","","","","","html-slider-response","31","182157","0.0-27.0","v8mtw2p5lp","68","NaN","<div style=""width:500px;"">
                            <p style=""font-size:50px; font-weight:bold;""
                            >fearful</p>
                            <div style=""width:240px; margin: auto;"">
                                <img src=""images/map02_Purples_scaleRev_orientDef_090.png"" style= ""width:200px""alt=""img"">
                            </div>
                        </div>","-59","","0","","","","images/map02_Purples_scaleRev_orientDef_090.png","fearful","1","02","02","Purples","orientDef","scaleRev","090","",""
"","","","","","html-slider-response","32","184419","0.0-28.0","v8mtw2p5lp","68","NaN","<div style=""width:500px;"">
                            <p style=""font-size:50px; font-weight:bold;""
                            >fearful</p>
                            <div style=""width:240px; margin: auto;"">
                                <img src=""images/map23_vanimo_scaleRev_orientMir_270.png"" style= ""width:200px""alt=""img"">
                            </div>
                        </div>","200","","0","","","","images/map23_vanimo_scaleRev_orientMir_270.png","fearful","1","23","23","vanimo","orientMir","scaleRev","270","",""
"","","","","","html-slider-response","33","186826","0.0-29.0","v8mtw2p5lp","68","NaN","<div style=""width:500px;"">
                            <p style=""font-size:50px; font-weight:bold;""
                            >fearful</p>
                            <div style=""width:240px; margin: auto;"">
                                <img src=""images/map12_YlGn_scaleDef_orientDef_000.png"" style= ""width:200px""alt=""img"">
                            </div>
                        </div>","34","","0","","","","images/map12_YlGn_scaleDef_orientDef_000.png","fearful","1","12","12","YlGn","orientDef","scaleDef","000","",""
"","","","","","html-slider-response","34","188917","0.0-30.0","v8mtw2p5lp","68","NaN","<div style=""width:500px;"">
                            <p style=""font-size:50px; font-weight:bold;""
                            >fearful</p>
                            <div style=""width:240px; margin: auto;"">
                                <img src=""images/map10_YlGnBu_scaleRev_orientDef_270.png"" style= ""width:200px""alt=""img"">
                            </div>
                        </div>","-62","","0","","","","images/map10_YlGnBu_scaleRev_orientDef_270.png","fearful","1","10","10","YlGnBu","orientDef","scaleRev","270","",""
"","","","","","html-slider-response","35","191418","0.0-31.0","v8mtw2p5lp","68","NaN","<div style=""width:500px;"">
                            <p style=""font-size:50px; font-weight:bold;""
                            >fearful</p>
                            <div style=""width:240px; margin: auto;"">
                                <img src=""images/map13_RdYlBu_scaleDef_orientMir_180.png"" style= ""width:200px""alt=""img"">
                            </div>
                        </div>","71","","0","","","","images/map13_RdYlBu_scaleDef_orientMir_180.png","fearful","1","13","13","RdYlBu","orientMir","scaleDef","180","",""
"","","","","","html-slider-response","36","192326","0.0-32.0","v8mtw2p5lp","68","NaN","<div style=""width:500px;"">
                            <p style=""font-size:50px; font-weight:bold;""
                            >fearful</p>
                            <div style=""width:240px; margin: auto;"">
                                <img src=""images/map12_PiYG_scaleDef_orientDef_180.png"" style= ""width:200px""alt=""img"">
                            </div>
                        </div>","71","","0","","","","images/map12_PiYG_scaleDef_orientDef_180.png","fearful","1","12","12","PiYG","orientDef","scaleDef","180","",""
"","","","","","html-slider-response","37","194155","0.0-33.0","v8mtw2p5lp","68","NaN","<div style=""width:500px;"">
                            <p style=""font-size:50px; font-weight:bold;""
                            >fearful</p>
                            <div style=""width:240px; margin: auto;"">
                                <img src=""images/map15_coolwarm_scaleRev_orientMir_090.png"" style= ""width:200px""alt=""img"">
                            </div>
                        </div>","85","","0","","","","images/map15_coolwarm_scaleRev_orientMir_090.png","fearful","1","15","15","coolwarm","orientMir","scaleRev","090","",""
"","","","","","html-slider-response","38","196177","0.0-34.0","v8mtw2p5lp","68","NaN","<div style=""width:500px;"">
                            <p style=""font-size:50px; font-weight:bold;""
                            >fearful</p>
                            <div style=""width:240px; margin: auto;"">
                                <img src=""images/map27_Greys_scaleRev_orientMir_270.png"" style= ""width:200px""alt=""img"">
                            </div>
                        </div>","-71","","0","","","","images/map27_Greys_scaleRev_orientMir_270.png","fearful","1","27","27","Greys","orientMir","scaleRev","270","",""
"","","","","","html-slider-response","39","199299","0.0-35.0","v8mtw2p5lp","68","NaN","<div style=""width:500px;"">
                            <p style=""font-size:50px; font-weight:bold;""
                            >fearful</p>
                            <div style=""width:240px; margin: auto;"">
                                <img src=""images/map15_Spectral_scaleDef_orientDef_180.png"" style= ""width:200px""alt=""img"">
                            </div>
                        </div>","70","","0","","","","images/map15_Spectral_scaleDef_orientDef_180.png","fearful","1","15","15","Spectral","orientDef","scaleDef","180","",""
"","","","","","html-slider-response","40","200567","0.0-36.0","v8mtw2p5lp","68","NaN","<div style=""width:500px;"">
                            <p style=""font-size:50px; font-weight:bold;""
                            >fearful</p>
                            <div style=""width:240px; margin: auto;"">
                                <img src=""images/map07_RdPu_scaleRev_orientDef_270.png"" style= ""width:200px""alt=""img"">
                            </div>
                        </div>","70","","0","","","","images/map07_RdPu_scaleRev_orientDef_270.png","fearful","1","07","07","RdPu","orientDef","scaleRev","270","",""
"","","","","","html-slider-response","41","202317","0.0-37.0","v8mtw2p5lp","68","NaN","<div style=""width:500px;"">
                            <p style=""font-size:50px; font-weight:bold;""
                            >fearful</p>
                            <div style=""width:240px; margin: auto;"">
                                <img src=""images/map27_magma_scaleRev_orientDef_270.png"" style= ""width:200px""alt=""img"">
                            </div>
                        </div>","149","","0","","","","images/map27_magma_scaleRev_orientDef_270.png","fearful","1","27","27","magma","orientDef","scaleRev","270","",""
"","","","","","html-slider-response","42","203573","0.0-38.0","v8mtw2p5lp","68","NaN","<div style=""width:500px;"">
                            <p style=""font-size:50px; font-weight:bold;""
                            >fearful</p>
                            <div style=""width:240px; margin: auto;"">
                                <img src=""images/map23_seismic_scaleDef_orientDef_000.png"" style= ""width:200px""alt=""img"">
                            </div>
                        </div>","149","","0","","","","images/map23_seismic_scaleDef_orientDef_000.png","fearful","1","23","23","seismic","orientDef","scaleDef","000","",""
"","","","","","html-slider-response","43","205328","0.0-39.0","v8mtw2p5lp","68","NaN","<div style=""width:500px;"">
                            <p style=""font-size:50px; font-weight:bold;""
                            >fearful</p>
                            <div style=""width:240px; margin: auto;"">
                                <img src=""images/map10_BuGn_scaleDef_orientMir_180.png"" style= ""width:200px""alt=""img"">
                            </div>
                        </div>","62","","0","","","","images/map10_BuGn_scaleDef_orientMir_180.png","fearful","1","10","10","BuGn","orientMir","scaleDef","180","",""
"","","","","","html-slider-response","44","208076","0.0-40.0","v8mtw2p5lp","68","NaN","<div style=""width:500px;"">
                            <p style=""font-size:50px; font-weight:bold;""
                            >fearful</p>
                            <div style=""width:240px; margin: auto;"">
                                <img src=""images/map12_BrBG_scaleRev_orientMir_270.png"" style= ""width:200px""alt=""img"">
                            </div>
                        </div>","-62","","0","","","","images/map12_BrBG_scaleRev_orientMir_270.png","fearful","1","12","12","BrBG","orientMir","scaleRev","270","",""
"","","","","","html-slider-response","45","210648","0.0-41.0","v8mtw2p5lp","68","NaN","<div style=""width:500px;"">
                            <p style=""font-size:50px; font-weight:bold;""
                            >fearful</p>
                            <div style=""width:240px; margin: auto;"">
                                <img src=""images/map23_managua_scaleRev_orientMir_090.png"" style= ""width:200px""alt=""img"">
                            </div>
                        </div>","-62","","0","","","","images/map23_managua_scaleRev_orientMir_090.png","fearful","1","23","23","managua","orientMir","scaleRev","090","",""
"","","","","","html-slider-response","46","212247","0.0-42.0","v8mtw2p5lp","68","NaN","<div style=""width:500px;"">
                            <p style=""font-size:50px; font-weight:bold;""
                            >fearful</p>
                            <div style=""width:240px; margin: auto;"">
                                <img src=""images/map12_PiYG_scaleRev_orientDef_270.png"" style= ""width:200px""alt=""img"">
                            </div>
                        </div>","-96","","0","","","","images/map12_PiYG_scaleRev_orientDef_270.png","fearful","1","12","12","PiYG","orientDef","scaleRev","270","",""
"","","","","","html-slider-response","47","214630","0.0-43.0","v8mtw2p5lp","68","NaN","<div style=""width:500px;"">
                            <p style=""font-size:50px; font-weight:bold;""
                            >fearful</p>
                            <div style=""width:240px; margin: auto;"">
                                <img src=""images/map27_inferno_scaleDef_orientDef_000.png"" style= ""width:200px""alt=""img"">
                            </div>
                        </div>","163","","0","","","","images/map27_inferno_scaleDef_orientDef_000.png","fearful","1","27","27","inferno","orientDef","scaleDef","000","",""
"","","","","","html-slider-response","48","216409","0.0-44.0","v8mtw2p5lp","68","NaN","<div style=""width:500px;"">
                            <p style=""font-size:50px; font-weight:bold;""
                            >fearful</p>
                            <div style=""width:240px; margin: auto;"">
                                <img src=""images/map05_YlOrBr_scaleRev_orientDef_270.png"" style= ""width:200px""alt=""img"">
                            </div>
                        </div>","128","","0","","","","images/map05_YlOrBr_scaleRev_orientDef_270.png","fearful","1","05","05","YlOrBr","orientDef","scaleRev","270","",""
"","","","","","html-slider-response","49","217844","0.0-45.0","v8mtw2p5lp","68","NaN","<div style=""width:500px;"">
                            <p style=""font-size:50px; font-weight:bold;""
                            >fearful</p>
                            <div style=""width:240px; margin: auto;"">
                                <img src=""images/map13_PuOr_scaleRev_orientDef_090.png"" style= ""width:200px""alt=""img"">
                            </div>
                        </div>","112","","0","","","","images/map13_PuOr_scaleRev_orientDef_090.png","fearful","1","13","13","PuOr","orientDef","scaleRev","090","",""
"","","","","","html-slider-response","50","219310","0.0-46.0","v8mtw2p5lp","68","NaN","<div style=""width:500px;"">
                            <p style=""font-size:50px; font-weight:bold;""
                            >fearful</p>
                            <div style=""width:240px; margin: auto;"">
                                <img src=""images/map23_managua_scaleDef_orientMir_000.png"" style= ""width:200px""alt=""img"">
                            </div>
                        </div>","86","","0","","","","images/map23_managua_scaleDef_orientMir_000.png","fearful","1","23","23","managua","orientMir","scaleDef","000","",""
"","","","","","html-slider-response","51","220979","0.0-47.0","v8mtw2p5lp","68","NaN","<div style=""width:500px;"">
                            <p style=""font-size:50px; font-weight:bold;""
                            >fearful</p>
                            <div style=""width:240px; margin: auto;"">
                                <img src=""images/map13_RdYlBu_scaleRev_orientMir_270.png"" style= ""width:200px""alt=""img"">
                            </div>
                        </div>","86","","0","","","","images/map13_RdYlBu_scaleRev_orientMir_270.png","fearful","1","13","13","RdYlBu","orientMir","scaleRev","270","",""
"","","","","","html-slider-response","52","223153","0.0-48.0","v8mtw2p5lp","68","NaN","<div style=""width:500px;"">
                            <p style=""font-size:50px; font-weight:bold;""
                            >fearful</p>
                            <div style=""width:240px; margin: auto;"">
                                <img src=""images/map05_YlOrRd_scaleRev_orientMir_090.png"" style= ""width:200px""alt=""img"">
                            </div>
                        </div>","177","","0","","","","images/map05_YlOrRd_scaleRev_orientMir_090.png","fearful","1","05","05","YlOrRd","orientMir","scaleRev","090","",""
"","","","","","html-slider-response","53","224929","0.0-49.0","v8mtw2p5lp","68","NaN","<div style=""width:500px;"">
                            <p style=""font-size:50px; font-weight:bold;""
                            >fearful</p>
                            <div style=""width:240px; margin: auto;"">
                                <img src=""images/map10_YlGnBu_scaleDef_orientDef_180.png"" style= ""width:200px""alt=""img"">
                            </div>
                        </div>","-86","","0","","","","images/map10_YlGnBu_scaleDef_orientDef_180.png","fearful","1","10","10","YlGnBu","orientDef","scaleDef","180","",""
"","","","","","html-slider-response","54","227771","0.0-50.0","v8mtw2p5lp","68","NaN","<div style=""width:500px;"">
                            <p style=""font-size:50px; font-weight:bold;""
                            >fearful</p>
                            <div style=""width:240px; margin: auto;"">
                                <img src=""images/map15_bwr_scaleDef_orientMir_180.png"" style= ""width:200px""alt=""img"">
                            </div>
                        </div>","77","","0","","","","images/map15_bwr_scaleDef_orientMir_180.png","fearful","1","15","15","bwr","orientMir","scaleDef","180","",""
"","","","","","html-slider-response","55","229708","0.0-51.0","v8mtw2p5lp","68","NaN","<div style=""width:500px;"">
                            <p style=""font-size:50px; font-weight:bold;""
                            >fearful</p>
                            <div style=""width:240px; margin: auto;"">
                                <img src=""images/map02_Oranges_scaleRev_orientMir_270.png"" style= ""width:200px""alt=""img"">
                            </div>
                        </div>","-38","","0","","","","images/map02_Oranges_scaleRev_orientMir_270.png","fearful","1","02","02","Oranges","orientMir","scaleRev","270","",""
"","","","","","html-slider-response","56","231523","0.0-52.0","v8mtw2p5lp","68","NaN","<div style=""width:500px;"">
                            <p style=""font-size:50px; font-weight:bold;""
                            >fearful</p>
                            <div style=""width:240px; margin: auto;"">
                                <img src=""images/map13_RdGy_scaleDef_orientDef_180.png"" style= ""width:200px""alt=""img"">
                            </div>
                        </div>","106","","0","","","","images/map13_RdGy_scaleDef_orientDef_180.png","fearful","1","13","13","RdGy","orientDef","scaleDef","180","",""
"","","","","","html-slider-response","57","233969","0.0-53.0","v8mtw2p5lp","68","NaN","<div style=""width:500px;"">
                            <p style=""font-size:50px; font-weight:bold;""
                            >fearful</p>
                            <div style=""width:240px; margin: auto;"">
                                <img src=""images/map27_cividis_scaleDef_orientMir_000.png"" style= ""width:200px""alt=""img"">
                            </div>
                        </div>","-74","","0","","","","images/map27_cividis_scaleDef_orientMir_000.png","fearful","1","27","27","cividis","orientMir","scaleDef","000","",""
"","","","","","html-button-response","58","235482","0.0-54.0","v8mtw2p5lp","68","1007","<p>You are doing great!<br></br> You are halway done with the current block. When you are ready to continue, click the 'Continue' button.</p>","0","","","","","","","","","","","","","","","",""
"","","","","","html-slider-response","59","237333","0.0-55.0","v8mtw2p5lp","68","NaN","<div style=""width:500px;"">
                            <p style=""font-size:50px; font-weight:bold;""
                            >fearful</p>
                            <div style=""width:240px; margin: auto;"">
                                <img src=""images/map10_PuBuGn_scaleRev_orientMir_090.png"" style= ""width:200px""alt=""img"">
                            </div>
                        </div>","-67","","0","","","","images/map10_PuBuGn_scaleRev_orientMir_090.png","fearful","1","10","10","PuBuGn","orientMir","scaleRev","090","",""
"","","","","","html-slider-response","60","238994","0.0-56.0","v8mtw2p5lp","68","NaN","<div style=""width:500px;"">
                            <p style=""font-size:50px; font-weight:bold;""
                            >fearful</p>
                            <div style=""width:240px; margin: auto;"">
                                <img src=""images/map15_RdYlGn_scaleRev_orientDef_090.png"" style= ""width:200px""alt=""img"">
                            </div>
                        </div>","-66","","0","","","","images/map15_RdYlGn_scaleRev_orientDef_090.png","fearful","1","15","15","RdYlGn","orientDef","scaleRev","090","",""
"","","","","","html-slider-response","61","240288","0.0-57.0","v8mtw2p5lp","68","NaN","<div style=""width:500px;"">
                            <p style=""font-size:50px; font-weight:bold;""
                            >fearful</p>
                            <div style=""width:240px; margin: auto;"">
                                <img src=""images/map26_viridis_scaleRev_orientMir_090.png"" style= ""width:200px""alt=""img"">
                            </div>
                        </div>","-66","","0","","","","images/map26_viridis_scaleRev_orientMir_090.png","fearful","1","26","26","viridis","orientMir","scaleRev","090","",""
"","","","","","html-slider-response","62","242358","0.0-58.0","v8mtw2p5lp","68","NaN","<div style=""width:500px;"">
                            <p style=""font-size:50px; font-weight:bold;""
                            >fearful</p>
                            <div style=""width:240px; margin: auto;"">
                                <img src=""images/map13_RdGy_scaleRev_orientDef_270.png"" style= ""width:200px""alt=""img"">
                            </div>
                        </div>","48","","0","","","","images/map13_RdGy_scaleRev_orientDef_270.png","fearful","1","13","13","RdGy","orientDef","scaleRev","270","",""
"","","","","","html-slider-response","63","244436","0.0-59.0","v8mtw2p5lp","68","NaN","<div style=""width:500px;"">
                            <p style=""font-size:50px; font-weight:bold;""
                            >fearful</p>
                            <div style=""width:240px; margin: auto;"">
                                <img src=""images/map05_OrRd_scaleDef_orientMir_180.png"" style= ""width:200px""alt=""img"">
                            </div>
                        </div>","106","","0","","","","images/map05_OrRd_scaleDef_orientMir_180.png","fearful","1","05","05","OrRd","orientMir","scaleDef","180","",""
"","","","","","html-slider-response","64","245669","0.0-60.0","v8mtw2p5lp","68","NaN","<div style=""width:500px;"">
                            <p style=""font-size:50px; font-weight:bold;""
                            >fearful</p>
                            <div style=""width:240px; margin: auto;"">
                                <img src=""images/map12_PRGn_scaleRev_orientMir_090.png"" style= ""width:200px""alt=""img"">
                            </div>
                        </div>","106","","0","","","","images/map12_PRGn_scaleRev_orientMir_090.png","fearful","1","12","12","PRGn","orientMir","scaleRev","090","",""
"","","","","","html-slider-response","65","246926","0.0-61.0","v8mtw2p5lp","68","NaN","<div style=""width:500px;"">
                            <p style=""font-size:50px; font-weight:bold;""
                            >fearful</p>
                            <div style=""width:240px; margin: auto;"">
                                <img src=""images/map23_berlin_scaleDef_orientDef_180.png"" style= ""width:200px""alt=""img"">
                            </div>
                        </div>","106","","0","","","","images/map23_berlin_scaleDef_orientDef_180.png","fearful","1","23","23","berlin","orientDef","scaleDef","180","",""
"","","","","","html-slider-response","66","248741","0.0-62.0","v8mtw2p5lp","68","NaN","<div style=""width:500px;"">
                            <p style=""font-size:50px; font-weight:bold;""
                            >fearful</p>
                            <div style=""width:240px; margin: auto;"">
                                <img src=""images/map07_GnBu_scaleRev_orientMir_270.png"" style= ""width:200px""alt=""img"">
                            </div>
                        </div>","106","","0","","","","images/map07_GnBu_scaleRev_orientMir_270.png","fearful","1","07","07","GnBu","orientMir","scaleRev","270","",""
"","","","","","html-slider-response","67","253145","0.0-63.0","v8mtw2p5lp","68","NaN","<div style=""width:500px;"">
                            <p style=""font-size:50px; font-weight:bold;""
                            >fearful</p>
                            <div style=""width:240px; margin: auto;"">
                                <img src=""images/map12_YlGn_scaleRev_orientDef_090.png"" style= ""width:200px""alt=""img"">
                            </div>
                        </div>","106","","0","","","","images/map12_YlGn_scaleRev_orientDef_090.png","fearful","1","12","12","YlGn","orientDef","scaleRev","090","",""
"","","","","","html-slider-response","68","254352","0.0-64.0","v8mtw2p5lp","68","NaN","<div style=""width:500px;"">
                            <p style=""font-size:50px; font-weight:bold;""
                            >fearful</p>
                            <div style=""width:240px; margin: auto;"">
                                <img src=""images/map26_plasma_scaleRev_orientMir_270.png"" style= ""width:200px""alt=""img"">
                            </div>
                        </div>","106","","0","","","","images/map26_plasma_scaleRev_orientMir_270.png","fearful","1","26","26","plasma","orientMir","scaleRev","270","",""
"","","","","","html-slider-response","69","256144","0.0-65.0","v8mtw2p5lp","68","NaN","<div style=""width:500px;"">
                            <p style=""font-size:50px; font-weight:bold;""
                            >fearful</p>
                            <div style=""width:240px; margin: auto;"">
                                <img src=""images/map27_cividis_scaleRev_orientMir_090.png"" style= ""width:200px""alt=""img"">
                            </div>
                        </div>","-33","","0","","","","images/map27_cividis_scaleRev_orientMir_090.png","fearful","1","27","27","cividis","orientMir","scaleRev","090","",""
"","","","","","html-slider-response","70","257827","0.0-66.0","v8mtw2p5lp","68","NaN","<div style=""width:500px;"">
                            <p style=""font-size:50px; font-weight:bold;""
                            >fearful</p>
                            <div style=""width:240px; margin: auto;"">
                                <img src=""images/map15_coolwarm_scaleDef_orientMir_000.png"" style= ""width:200px""alt=""img"">
                            </div>
                        </div>","48","","0","","","","images/map15_coolwarm_scaleDef_orientMir_000.png","fearful","1","15","15","coolwarm","orientMir","scaleDef","000","",""
"","","","","","html-slider-response","71","260392","0.0-67.0","v8mtw2p5lp","68","NaN","<div style=""width:500px;"">
                            <p style=""font-size:50px; font-weight:bold;""
                            >fearful</p>
                            <div style=""width:240px; margin: auto;"">
                                <img src=""images/map26_turbo_scaleDef_orientDef_180.png"" style= ""width:200px""alt=""img"">
                            </div>
                        </div>","-58","","0","","","","images/map26_turbo_scaleDef_orientDef_180.png","fearful","1","26","26","turbo","orientDef","scaleDef","180","",""
"","","","","","html-slider-response","72","261776","0.0-68.0","v8mtw2p5lp","68","NaN","<div style=""width:500px;"">
                            <p style=""font-size:50px; font-weight:bold;""
                            >fearful</p>
                            <div style=""width:240px; margin: auto;"">
                                <img src=""images/map12_BrBG_scaleDef_orientMir_180.png"" style= ""width:200px""alt=""img"">
                            </div>
                        </div>","-58","","0","","","","images/map12_BrBG_scaleDef_orientMir_180.png","fearful","1","12","12","BrBG","orientMir","scaleDef","180","",""
"","","","","","html-slider-response","73","262888","0.0-69.0","v8mtw2p5lp","68","NaN","<div style=""width:500px;"">
                            <p style=""font-size:50px; font-weight:bold;""
                            >fearful</p>
                            <div style=""width:240px; margin: auto;"">
                                <img src=""images/map23_berlin_scaleRev_orientDef_270.png"" style= ""width:200px""alt=""img"">
                            </div>
                        </div>","-58","","0","","","","images/map23_berlin_scaleRev_orientDef_270.png","fearful","1","23","23","berlin","orientDef","scaleRev","270","",""
"","","","","","html-slider-response","74","264768","0.0-70.0","v8mtw2p5lp","68","NaN","<div style=""width:500px;"">
                            <p style=""font-size:50px; font-weight:bold;""
                            >fearful</p>
                            <div style=""width:240px; margin: auto;"">
                                <img src=""images/map07_PuRd_scaleRev_orientDef_090.png"" style= ""width:200px""alt=""img"">
                            </div>
                        </div>","151","","0","","","","images/map07_PuRd_scaleRev_orientDef_090.png","fearful","1","07","07","PuRd","orientDef","scaleRev","090","",""
"","","","","","html-slider-response","75","265924","0.0-71.0","v8mtw2p5lp","68","NaN","<div style=""width:500px;"">
                            <p style=""font-size:50px; font-weight:bold;""
                            >fearful</p>
                            <div style=""width:240px; margin: auto;"">
                                <img src=""images/map23_seismic_scaleRev_orientDef_090.png"" style= ""width:200px""alt=""img"">
                            </div>
                        </div>","151","","0","","","","images/map23_seismic_scaleRev_orientDef_090.png","fearful","1","23","23","seismic","orientDef","scaleRev","090","",""
"","","","","","html-slider-response","76","268266","0.0-72.0","v8mtw2p5lp","68","NaN","<div style=""width:500px;"">
                            <p style=""font-size:50px; font-weight:bold;""
                            >fearful</p>
                            <div style=""width:240px; margin: auto;"">
                                <img src=""images/map10_PuBuGn_scaleDef_orientMir_000.png"" style= ""width:200px""alt=""img"">
                            </div>
                        </div>","-134","","0","","","","images/map10_PuBuGn_scaleDef_orientMir_000.png","fearful","1","10","10","PuBuGn","orientMir","scaleDef","000","",""
"","","","","","html-slider-response","77","269543","0.0-73.0","v8mtw2p5lp","68","NaN","<div style=""width:500px;"">
                            <p style=""font-size:50px; font-weight:bold;""
                            >fearful</p>
                            <div style=""width:240px; margin: auto;"">
                                <img src=""images/map02_Greens_scaleDef_orientMir_000.png"" style= ""width:200px""alt=""img"">
                            </div>
                        </div>","-134","","0","","","","images/map02_Greens_scaleDef_orientMir_000.png","fearful","1","02","02","Greens","orientMir","scaleDef","000","",""
"","","","","","html-slider-response","78","271479","0.0-74.0","v8mtw2p5lp","68","NaN","<div style=""width:500px;"">
                            <p style=""font-size:50px; font-weight:bold;""
                            >fearful</p>
                            <div style=""width:240px; margin: auto;"">
                                <img src=""images/map05_Reds_scaleRev_orientDef_090.png"" style= ""width:200px""alt=""img"">
                            </div>
                        </div>","180","","0","","","","images/map05_Reds_scaleRev_orientDef_090.png","fearful","1","05","05","Reds","orientDef","scaleRev","090","",""
"","","","","","html-slider-response","79","273019","0.0-75.0","v8mtw2p5lp","68","NaN","<div style=""width:500px;"">
                            <p style=""font-size:50px; font-weight:bold;""
                            >fearful</p>
                            <div style=""width:240px; margin: auto;"">
                                <img src=""images/map05_YlOrBr_scaleDef_orientDef_180.png"" style= ""width:200px""alt=""img"">
                            </div>
                        </div>","163","","0","","","","images/map05_YlOrBr_scaleDef_orientDef_180.png","fearful","1","05","05","YlOrBr","orientDef","scaleDef","180","",""
"","","","","","html-slider-response","80","274236","0.0-76.0","v8mtw2p5lp","68","NaN","<div style=""width:500px;"">
                            <p style=""font-size:50px; font-weight:bold;""
                            >fearful</p>
                            <div style=""width:240px; margin: auto;"">
                                <img src=""images/map05_YlOrRd_scaleDef_orientMir_000.png"" style= ""width:200px""alt=""img"">
                            </div>
                        </div>","163","","0","","","","images/map05_YlOrRd_scaleDef_orientMir_000.png","fearful","1","05","05","YlOrRd","orientMir","scaleDef","000","",""
"","","","","","html-slider-response","81","275387","0.0-77.0","v8mtw2p5lp","68","NaN","<div style=""width:500px;"">
                            <p style=""font-size:50px; font-weight:bold;""
                            >fearful</p>
                            <div style=""width:240px; margin: auto;"">
                                <img src=""images/map07_RdPu_scaleDef_orientDef_180.png"" style= ""width:200px""alt=""img"">
                            </div>
                        </div>","163","","0","","","","images/map07_RdPu_scaleDef_orientDef_180.png","fearful","1","07","07","RdPu","orientDef","scaleDef","180","",""
"","","","","","html-slider-response","82","277036","0.0-78.0","v8mtw2p5lp","68","NaN","<div style=""width:500px;"">
                            <p style=""font-size:50px; font-weight:bold;""
                            >fearful</p>
                            <div style=""width:240px; margin: auto;"">
                                <img src=""images/map10_BuGn_scaleRev_orientMir_270.png"" style= ""width:200px""alt=""img"">
                            </div>
                        </div>","-103","","0","","","","images/map10_BuGn_scaleRev_orientMir_270.png","fearful","1","10","10","BuGn","orientMir","scaleRev","270","",""
"","","","","","html-slider-response","83","278272","0.0-79.0","v8mtw2p5lp","68","NaN","<div style=""width:500px;"">
                            <p style=""font-size:50px; font-weight:bold;""
                            >fearful</p>
                            <div style=""width:240px; margin: auto;"">
                                <img src=""images/map26_viridis_scaleDef_orientMir_000.png"" style= ""width:200px""alt=""img"">
                            </div>
                        </div>","-103","","0","","","","images/map26_viridis_scaleDef_orientMir_000.png","fearful","1","26","26","viridis","orientMir","scaleDef","000","",""
"","","","","","html-slider-response","84","284935","0.0-80.0","v8mtw2p5lp","68","NaN","<div style=""width:500px;"">
                            <p style=""font-size:50px; font-weight:bold;""
                            >fearful</p>
                            <div style=""width:240px; margin: auto;"">
                                <img src=""images/map05_Reds_scaleDef_orientDef_000.png"" style= ""width:200px""alt=""img"">
                            </div>
                        </div>","171","","0","","","","images/map05_Reds_scaleDef_orientDef_000.png","fearful","1","05","05","Reds","orientDef","scaleDef","000","",""
"","","","","","html-slider-response","85","286838","0.0-81.0","v8mtw2p5lp","68","NaN","<div style=""width:500px;"">
                            <p style=""font-size:50px; font-weight:bold;""
                            >fearful</p>
                            <div style=""width:240px; margin: auto;"">
                                <img src=""images/map02_Blues_scaleRev_orientDef_270.png"" style= ""width:200px""alt=""img"">
                            </div>
                        </div>","-77","","0","","","","images/map02_Blues_scaleRev_orientDef_270.png","fearful","1","02","02","Blues","orientDef","scaleRev","270","",""
"","","","","","html-slider-response","86","288726","0.0-82.0","v8mtw2p5lp","68","NaN","<div style=""width:500px;"">
                            <p style=""font-size:50px; font-weight:bold;""
                            >fearful</p>
                            <div style=""width:240px; margin: auto;"">
                                <img src=""images/map13_RdBu_scaleRev_orientMir_090.png"" style= ""width:200px""alt=""img"">
                            </div>
                        </div>","114","","0","","","","images/map13_RdBu_scaleRev_orientMir_090.png","fearful","1","13","13","RdBu","orientMir","scaleRev","090","",""
"","","","","","html-slider-response","87","290118","0.0-83.0","v8mtw2p5lp","68","NaN","<div style=""width:500px;"">
                            <p style=""font-size:50px; font-weight:bold;""
                            >fearful</p>
                            <div style=""width:240px; margin: auto;"">
                                <img src=""images/map23_vanimo_scaleDef_orientMir_180.png"" style= ""width:200px""alt=""img"">
                            </div>
                        </div>","112","","0","","","","images/map23_vanimo_scaleDef_orientMir_180.png","fearful","1","23","23","vanimo","orientMir","scaleDef","180","",""
"","","","","","html-slider-response","88","295935","0.0-84.0","v8mtw2p5lp","68","NaN","<div style=""width:500px;"">
                            <p style=""font-size:50px; font-weight:bold;""
                            >fearful</p>
                            <div style=""width:240px; margin: auto;"">
                                <img src=""images/map05_OrRd_scaleRev_orientMir_270.png"" style= ""width:200px""alt=""img"">
                            </div>
                        </div>","110","","0","","","","images/map05_OrRd_scaleRev_orientMir_270.png","fearful","1","05","05","OrRd","orientMir","scaleRev","270","",""
"","","","","","html-slider-response","89","297757","0.0-85.0","v8mtw2p5lp","68","NaN","<div style=""width:500px;"">
                            <p style=""font-size:50px; font-weight:bold;""
                            >fearful</p>
                            <div style=""width:240px; margin: auto;"">
                                <img src=""images/map27_Greys_scaleDef_orientMir_180.png"" style= ""width:200px""alt=""img"">
                            </div>
                        </div>","-70","","0","","","","images/map27_Greys_scaleDef_orientMir_180.png","fearful","1","27","27","Greys","orientMir","scaleDef","180","",""
"","","","","","html-slider-response","90","298936","0.0-86.0","v8mtw2p5lp","68","NaN","<div style=""width:500px;"">
                            <p style=""font-size:50px; font-weight:bold;""
                            >fearful</p>
                            <div style=""width:240px; margin: auto;"">
                                <img src=""images/map02_Blues_scaleDef_orientDef_180.png"" style= ""width:200px""alt=""img"">
                            </div>
                        </div>","-70","","0","","","","images/map02_Blues_scaleDef_orientDef_180.png","fearful","1","02","02","Blues","orientDef","scaleDef","180","",""
"","","","","","html-slider-response","91","300896","0.0-87.0","v8mtw2p5lp","68","NaN","<div style=""width:500px;"">
                            <p style=""font-size:50px; font-weight:bold;""
                            >fearful</p>
                            <div style=""width:240px; margin: auto;"">
                                <img src=""images/map10_PuBu_scaleDef_orientDef_000.png"" style= ""width:200px""alt=""img"">
                            </div>
                        </div>","-159","","0","","","","images/map10_PuBu_scaleDef_orientDef_000.png","fearful","1","10","10","PuBu","orientDef","scaleDef","000","",""
"","","","","","html-slider-response","92","302716","0.0-88.0","v8mtw2p5lp","68","NaN","<div style=""width:500px;"">
                            <p style=""font-size:50px; font-weight:bold;""
                            >fearful</p>
                            <div style=""width:240px; margin: auto;"">
                                <img src=""images/map13_RdBu_scaleDef_orientMir_000.png"" style= ""width:200px""alt=""img"">
                            </div>
                        </div>","59","","0","","","","images/map13_RdBu_scaleDef_orientMir_000.png","fearful","1","13","13","RdBu","orientMir","scaleDef","000","",""
"","","","","","html-slider-response","93","305229","0.0-89.0","v8mtw2p5lp","68","NaN","<div style=""width:500px;"">
                            <p style=""font-size:50px; font-weight:bold;""
                            >fearful</p>
                            <div style=""width:240px; margin: auto;"">
                                <img src=""images/map26_gist_earth_scaleDef_orientDef_000.png"" style= ""width:200px""alt=""img"">
                            </div>
                        </div>","54","","0","","","","images/map26_gist_earth_scaleDef_orientDef_000.png","fearful","1","26","26","gist","scaleDef","earth","orientDef","",""
"","","","","","html-slider-response","94","307323","0.0-90.0","v8mtw2p5lp","68","NaN","<div style=""width:500px;"">
                            <p style=""font-size:50px; font-weight:bold;""
                            >fearful</p>
                            <div style=""width:240px; margin: auto;"">
                                <img src=""images/map10_PuBu_scaleRev_orientDef_090.png"" style= ""width:200px""alt=""img"">
                            </div>
                        </div>","-183","","0","","","","images/map10_PuBu_scaleRev_orientDef_090.png","fearful","1","10","10","PuBu","orientDef","scaleRev","090","",""
"","","","","","html-slider-response","95","309394","0.0-91.0","v8mtw2p5lp","68","NaN","<div style=""width:500px;"">
                            <p style=""font-size:50px; font-weight:bold;""
                            >fearful</p>
                            <div style=""width:240px; margin: auto;"">
                                <img src=""images/map26_turbo_scaleRev_orientDef_270.png"" style= ""width:200px""alt=""img"">
                            </div>
                        </div>","-35","","0","","","","images/map26_turbo_scaleRev_orientDef_270.png","fearful","1","26","26","turbo","orientDef","scaleRev","270","",""
"","","","","","html-slider-response","96","311210","0.0-92.0","v8mtw2p5lp","68","NaN","<div style=""width:500px;"">
                            <p style=""font-size:50px; font-weight:bold;""
                            >fearful</p>
                            <div style=""width:240px; margin: auto;"">
                                <img src=""images/map15_RdYlGn_scaleDef_orientDef_000.png"" style= ""width:200px""alt=""img"">
                            </div>
                        </div>","31","","0","","","","images/map15_RdYlGn_scaleDef_orientDef_000.png","fearful","1","15","15","RdYlGn","orientDef","scaleDef","000","",""
"","","","","","html-slider-response","97","313135","0.0-93.0","v8mtw2p5lp","68","NaN","<div style=""width:500px;"">
                            <p style=""font-size:50px; font-weight:bold;""
                            >fearful</p>
                            <div style=""width:240px; margin: auto;"">
                                <img src=""images/map27_magma_scaleDef_orientDef_180.png"" style= ""width:200px""alt=""img"">
                            </div>
                        </div>","175","","0","","","","images/map27_magma_scaleDef_orientDef_180.png","fearful","1","27","27","magma","orientDef","scaleDef","180","",""
"","","","","","html-slider-response","98","317039","0.0-94.0","v8mtw2p5lp","68","NaN","<div style=""width:500px;"">
                            <p style=""font-size:50px; font-weight:bold;""
                            >fearful</p>
                            <div style=""width:240px; margin: auto;"">
                                <img src=""images/map07_GnBu_scaleDef_orientMir_180.png"" style= ""width:200px""alt=""img"">
                            </div>
                        </div>","-159","","0","","","","images/map07_GnBu_scaleDef_orientMir_180.png","fearful","1","07","07","GnBu","orientMir","scaleDef","180","",""
"","","","","","html-button-response","99","318872","0.0-95.0","v8mtw2p5lp","68","1321","<p>Great Job! You've finished block 1.<br></br> You have 4 block(s) left to go.<br></br></p>","0","","","","","","","","","","","","","","","",""
"","","","","","html-button-response","100","321700","0.0-96.0","v8mtw2p5lp","68","2826","<p>In this block of trials, you will be asked to rate how much you associate each map with:</p > <p style = 'font-size:150%; font-weight: bold'>happy</p><br></br>","0","","","","","","","","","","","","","","","",""
"","","","","","html-slider-response","101","325001","0.0-97.0","v8mtw2p5lp","68","NaN","<div style=""width:500px;"">
                            <p style=""font-size:50px; font-weight:bold;""
                            >happy</p>
                            <div style=""width:240px; margin: auto;"">
                                <img src=""images/map15_coolwarm_scaleDef_orientMir_000.png"" style= ""width:200px""alt=""img"">
                            </div>
                        </div>","-82","","0","","","","images/map15_coolwarm_scaleDef_orientMir_000.png","happy","1","15","15","coolwarm","orientMir","scaleDef","000","",""
"","","","","","html-slider-response","102","327078","0.0-98.0","v8mtw2p5lp","68","NaN","<div style=""width:500px;"">
                            <p style=""font-size:50px; font-weight:bold;""
                            >happy</p>
                            <div style=""width:240px; margin: auto;"">
                                <img src=""images/map13_PuOr_scaleRev_orientDef_090.png"" style= ""width:200px""alt=""img"">
                            </div>
                        </div>","46","","0","","","","images/map13_PuOr_scaleRev_orientDef_090.png","happy","1","13","13","PuOr","orientDef","scaleRev","090","",""
"","","","","","html-slider-response","103","330759","0.0-99.0","v8mtw2p5lp","68","NaN","<div style=""width:500px;"">
                            <p style=""font-size:50px; font-weight:bold;""
                            >happy</p>
                            <div style=""width:240px; margin: auto;"">
                                <img src=""images/map23_seismic_scaleRev_orientDef_090.png"" style= ""width:200px""alt=""img"">
                            </div>
                        </div>","-153","","0","","","","images/map23_seismic_scaleRev_orientDef_090.png","happy","1","23","23","seismic","orientDef","scaleRev","090","",""
"","","","","","html-slider-response","104","333234","0.0-100.0","v8mtw2p5lp","68","NaN","<div style=""width:500px;"">
                            <p style=""font-size:50px; font-weight:bold;""
                            >happy</p>
                            <div style=""width:240px; margin: auto;"">
                                <img src=""images/map05_YlOrRd_scaleRev_orientMir_090.png"" style= ""width:200px""alt=""img"">
                            </div>
                        </div>","-144","","0","","","","images/map05_YlOrRd_scaleRev_orientMir_090.png","happy","1","05","05","YlOrRd","orientMir","scaleRev","090","",""
"","","","","","html-slider-response","105","334846","0.0-101.0","v8mtw2p5lp","68","NaN","<div style=""width:500px;"">
                            <p style=""font-size:50px; font-weight:bold;""
                            >happy</p>
                            <div style=""width:240px; margin: auto;"">
                                <img src=""images/map15_RdYlGn_scaleRev_orientDef_090.png"" style= ""width:200px""alt=""img"">
                            </div>
                        </div>","-144","","0","","","","images/map15_RdYlGn_scaleRev_orientDef_090.png","happy","1","15","15","RdYlGn","orientDef","scaleRev","090","",""
"","","","","","html-slider-response","106","336879","0.0-102.0","v8mtw2p5lp","68","NaN","<div style=""width:500px;"">
                            <p style=""font-size:50px; font-weight:bold;""
                            >happy</p>
                            <div style=""width:240px; margin: auto;"">
                                <img src=""images/map23_managua_scaleDef_orientMir_000.png"" style= ""width:200px""alt=""img"">
                            </div>
                        </div>","91","","0","","","","images/map23_managua_scaleDef_orientMir_000.png","happy","1","23","23","managua","orientMir","scaleDef","000","",""
"","","","","","html-slider-response","107","338919","0.0-103.0","v8mtw2p5lp","68","NaN","<div style=""width:500px;"">
                            <p style=""font-size:50px; font-weight:bold;""
                            >happy</p>
                            <div style=""width:240px; margin: auto;"">
                                <img src=""images/map15_Spectral_scaleDef_orientDef_180.png"" style= ""width:200px""alt=""img"">
                            </div>
                        </div>","91","","0","","","","images/map15_Spectral_scaleDef_orientDef_180.png","happy","1","15","15","Spectral","orientDef","scaleDef","180","",""
"","","","","","html-slider-response","108","341318","0.0-104.0","v8mtw2p5lp","68","NaN","<div style=""width:500px;"">
                            <p style=""font-size:50px; font-weight:bold;""
                            >happy</p>
                            <div style=""width:240px; margin: auto;"">
                                <img src=""images/map27_magma_scaleDef_orientDef_180.png"" style= ""width:200px""alt=""img"">
                            </div>
                        </div>","-138","","0","","","","images/map27_magma_scaleDef_orientDef_180.png","happy","1","27","27","magma","orientDef","scaleDef","180","",""
"","","","","","html-slider-response","109","342498","0.0-105.0","v8mtw2p5lp","68","NaN","<div style=""width:500px;"">
                            <p style=""font-size:50px; font-weight:bold;""
                            >happy</p>
                            <div style=""width:240px; margin: auto;"">
                                <img src=""images/map05_OrRd_scaleDef_orientMir_180.png"" style= ""width:200px""alt=""img"">
                            </div>
                        </div>","-138","","0","","","","images/map05_OrRd_scaleDef_orientMir_180.png","happy","1","05","05","OrRd","orientMir","scaleDef","180","",""
"","","","","","html-slider-response","110","343726","0.0-106.0","v8mtw2p5lp","68","NaN","<div style=""width:500px;"">
                            <p style=""font-size:50px; font-weight:bold;""
                            >happy</p>
                            <div style=""width:240px; margin: auto;"">
                                <img src=""images/map07_RdPu_scaleDef_orientDef_180.png"" style= ""width:200px""alt=""img"">
                            </div>
                        </div>","-138","","0","","","","images/map07_RdPu_scaleDef_orientDef_180.png","happy","1","07","07","RdPu","orientDef","scaleDef","180","",""
"","","","","","html-slider-response","111","345986","0.0-107.0","v8mtw2p5lp","68","NaN","<div style=""width:500px;"">
                            <p style=""font-size:50px; font-weight:bold;""
                            >happy</p>
                            <div style=""width:240px; margin: auto;"">
                                <img src=""images/map02_Greens_scaleDef_orientMir_000.png"" style= ""width:200px""alt=""img"">
                            </div>
                        </div>","113","","0","","","","images/map02_Greens_scaleDef_orientMir_000.png","happy","1","02","02","Greens","orientMir","scaleDef","000","",""
"","","","","","html-slider-response","112","348271","0.0-108.0","v8mtw2p5lp","68","NaN","<div style=""width:500px;"">
                            <p style=""font-size:50px; font-weight:bold;""
                            >happy</p>
                            <div style=""width:240px; margin: auto;"">
                                <img src=""images/map23_vanimo_scaleDef_orientMir_180.png"" style= ""width:200px""alt=""img"">
                            </div>
                        </div>","-67","","0","","","","images/map23_vanimo_scaleDef_orientMir_180.png","happy","1","23","23","vanimo","orientMir","scaleDef","180","",""
"","","","","","html-slider-response","113","350270","0.0-109.0","v8mtw2p5lp","68","NaN","<div style=""width:500px;"">
                            <p style=""font-size:50px; font-weight:bold;""
                            >happy</p>
                            <div style=""width:240px; margin: auto;"">
                                <img src=""images/map02_Purples_scaleRev_orientDef_090.png"" style= ""width:200px""alt=""img"">
                            </div>
                        </div>","86","","0","","","","images/map02_Purples_scaleRev_orientDef_090.png","happy","1","02","02","Purples","orientDef","scaleRev","090","",""
"","","","","","html-slider-response","114","351509","0.0-110.0","v8mtw2p5lp","68","NaN","<div style=""width:500px;"">
                            <p style=""font-size:50px; font-weight:bold;""
                            >happy</p>
                            <div style=""width:240px; margin: auto;"">
                                <img src=""images/map10_PuBu_scaleRev_orientDef_090.png"" style= ""width:200px""alt=""img"">
                            </div>
                        </div>","86","","0","","","","images/map10_PuBu_scaleRev_orientDef_090.png","happy","1","10","10","PuBu","orientDef","scaleRev","090","",""
"","","","","","html-slider-response","115","353183","0.0-111.0","v8mtw2p5lp","68","NaN","<div style=""width:500px;"">
                            <p style=""font-size:50px; font-weight:bold;""
                            >happy</p>
                            <div style=""width:240px; margin: auto;"">
                                <img src=""images/map05_YlOrBr_scaleDef_orientDef_180.png"" style= ""width:200px""alt=""img"">
                            </div>
                        </div>","-130","","0","","","","images/map05_YlOrBr_scaleDef_orientDef_180.png","happy","1","05","05","YlOrBr","orientDef","scaleDef","180","",""
"","","","","","html-slider-response","116","354258","0.0-112.0","v8mtw2p5lp","68","NaN","<div style=""width:500px;"">
                            <p style=""font-size:50px; font-weight:bold;""
                            >happy</p>
                            <div style=""width:240px; margin: auto;"">
                                <img src=""images/map27_inferno_scaleDef_orientDef_000.png"" style= ""width:200px""alt=""img"">
                            </div>
                        </div>","-130","","0","","","","images/map27_inferno_scaleDef_orientDef_000.png","happy","1","27","27","inferno","orientDef","scaleDef","000","",""
"","","","","","html-slider-response","117","355204","0.0-113.0","v8mtw2p5lp","68","NaN","<div style=""width:500px;"">
                            <p style=""font-size:50px; font-weight:bold;""
                            >happy</p>
                            <div style=""width:240px; margin: auto;"">
                                <img src=""images/map26_plasma_scaleDef_orientMir_180.png"" style= ""width:200px""alt=""img"">
                            </div>
                        </div>","-130","","0","","","","images/map26_plasma_scaleDef_orientMir_180.png","happy","1","26","26","plasma","orientMir","scaleDef","180","",""
"","","","","","html-slider-response","118","357285","0.0-114.0","v8mtw2p5lp","68","NaN","<div style=""width:500px;"">
                            <p style=""font-size:50px; font-weight:bold;""
                            >happy</p>
                            <div style=""width:240px; margin: auto;"">
                                <img src=""images/map12_PiYG_scaleRev_orientDef_270.png"" style= ""width:200px""alt=""img"">
                            </div>
                        </div>","158","","0","","","","images/map12_PiYG_scaleRev_orientDef_270.png","happy","1","12","12","PiYG","orientDef","scaleRev","270","",""
"","","","","","html-slider-response","119","358539","0.0-115.0","v8mtw2p5lp","68","NaN","<div style=""width:500px;"">
                            <p style=""font-size:50px; font-weight:bold;""
                            >happy</p>
                            <div style=""width:240px; margin: auto;"">
                                <img src=""images/map02_Purples_scaleDef_orientDef_000.png"" style= ""width:200px""alt=""img"">
                            </div>
                        </div>","158","","0","","","","images/map02_Purples_scaleDef_orientDef_000.png","happy","1","02","02","Purples","orientDef","scaleDef","000","",""
"","","","","","html-slider-response","120","360244","0.0-116.0","v8mtw2p5lp","68","NaN","<div style=""width:500px;"">
                            <p style=""font-size:50px; font-weight:bold;""
                            >happy</p>
                            <div style=""width:240px; margin: auto;"">
                                <img src=""images/map05_YlOrRd_scaleDef_orientMir_000.png"" style= ""width:200px""alt=""img"">
                            </div>
                        </div>","-130","","0","","","","images/map05_YlOrRd_scaleDef_orientMir_000.png","happy","1","05","05","YlOrRd","orientMir","scaleDef","000","",""
"","","","","","html-slider-response","121","361261","0.0-117.0","v8mtw2p5lp","68","NaN","<div style=""width:500px;"">
                            <p style=""font-size:50px; font-weight:bold;""
                            >happy</p>
                            <div style=""width:240px; margin: auto;"">
                                <img src=""images/map26_turbo_scaleRev_orientDef_270.png"" style= ""width:200px""alt=""img"">
                            </div>
                        </div>","-130","","0","","","","images/map26_turbo_scaleRev_orientDef_270.png","happy","1","26","26","turbo","orientDef","scaleRev","270","",""
"","","","","","html-slider-response","122","363380","0.0-118.0","v8mtw2p5lp","68","NaN","<div style=""width:500px;"">
                            <p style=""font-size:50px; font-weight:bold;""
                            >happy</p>
                            <div style=""width:240px; margin: auto;"">
                                <img src=""images/map15_RdYlGn_scaleDef_orientDef_000.png"" style= ""width:200px""alt=""img"">
                            </div>
                        </div>","93","","0","","","","images/map15_RdYlGn_scaleDef_orientDef_000.png","happy","1","15","15","RdYlGn","orientDef","scaleDef","000","",""
"","","","","","html-slider-response","123","365101","0.0-119.0","v8mtw2p5lp","68","NaN","<div style=""width:500px;"">
                            <p style=""font-size:50px; font-weight:bold;""
                            >happy</p>
                            <div style=""width:240px; margin: auto;"">
                                <img src=""images/map10_YlGnBu_scaleDef_orientDef_180.png"" style= ""width:200px""alt=""img"">
                            </div>
                        </div>","172","","0","","","","images/map10_YlGnBu_scaleDef_orientDef_180.png","happy","1","10","10","YlGnBu","orientDef","scaleDef","180","",""
"","","","","","html-slider-response","124","367421","0.0-120.0","v8mtw2p5lp","68","NaN","<div style=""width:500px;"">
                            <p style=""font-size:50px; font-weight:bold;""
                            >happy</p>
                            <div style=""width:240px; margin: auto;"">
                                <img src=""images/map13_PuOr_scaleDef_orientDef_000.png"" style= ""width:200px""alt=""img"">
                            </div>
                        </div>","50","","0","","","","images/map13_PuOr_scaleDef_orientDef_000.png","happy","1","13","13","PuOr","orientDef","scaleDef","000","",""
"","","","","","html-slider-response","125","369314","0.0-121.0","v8mtw2p5lp","68","NaN","<div style=""width:500px;"">
                            <p style=""font-size:50px; font-weight:bold;""
                            >happy</p>
                            <div style=""width:240px; margin: auto;"">
                                <img src=""images/map27_Greys_scaleDef_orientMir_180.png"" style= ""width:200px""alt=""img"">
                            </div>
                        </div>","38","","0","","","","images/map27_Greys_scaleDef_orientMir_180.png","happy","1","27","27","Greys","orientMir","scaleDef","180","",""
"","","","","","html-slider-response","126","371187","0.0-122.0","v8mtw2p5lp","68","NaN","<div style=""width:500px;"">
                            <p style=""font-size:50px; font-weight:bold;""
                            >happy</p>
                            <div style=""width:240px; margin: auto;"">
                                <img src=""images/map02_Blues_scaleDef_orientDef_180.png"" style= ""width:200px""alt=""img"">
                            </div>
                        </div>","139","","0","","","","images/map02_Blues_scaleDef_orientDef_180.png","happy","1","02","02","Blues","orientDef","scaleDef","180","",""
"","","","","","html-slider-response","127","373012","0.0-123.0","v8mtw2p5lp","68","NaN","<div style=""width:500px;"">
                            <p style=""font-size:50px; font-weight:bold;""
                            >happy</p>
                            <div style=""width:240px; margin: auto;"">
                                <img src=""images/map26_viridis_scaleRev_orientMir_090.png"" style= ""width:200px""alt=""img"">
                            </div>
                        </div>","145","","0","","","","images/map26_viridis_scaleRev_orientMir_090.png","happy","1","26","26","viridis","orientMir","scaleRev","090","",""
"","","","","","html-slider-response","128","375312","0.0-124.0","v8mtw2p5lp","68","NaN","<div style=""width:500px;"">
                            <p style=""font-size:50px; font-weight:bold;""
                            >happy</p>
                            <div style=""width:240px; margin: auto;"">
                                <img src=""images/map12_BrBG_scaleDef_orientMir_180.png"" style= ""width:200px""alt=""img"">
                            </div>
                        </div>","46","","0","","","","images/map12_BrBG_scaleDef_orientMir_180.png","happy","1","12","12","BrBG","orientMir","scaleDef","180","",""
"","","","","","html-slider-response","129","377652","0.0-125.0","v8mtw2p5lp","68","NaN","<div style=""width:500px;"">
                            <p style=""font-size:50px; font-weight:bold;""
                            >happy</p>
                            <div style=""width:240px; margin: auto;"">
                                <img src=""images/map15_bwr_scaleRev_orientMir_270.png"" style= ""width:200px""alt=""img"">
                            </div>
                        </div>","-123","","0","","","","images/map15_bwr_scaleRev_orientMir_270.png","happy","1","15","15","bwr","orientMir","scaleRev","270","",""
"","","","","","html-slider-response","130","378596","0.0-126.0","v8mtw2p5lp","68","NaN","<div style=""width:500px;"">
                            <p style=""font-size:50px; font-weight:bold;""
                            >happy</p>
                            <div style=""width:240px; margin: auto;"">
                                <img src=""images/map26_plasma_scaleRev_orientMir_270.png"" style= ""width:200px""alt=""img"">
                            </div>
                        </div>","-123","","0","","","","images/map26_plasma_scaleRev_orientMir_270.png","happy","1","26","26","plasma","orientMir","scaleRev","270","",""
"","","","","","html-slider-response","131","379508","0.0-127.0","v8mtw2p5lp","68","NaN","<div style=""width:500px;"">
                            <p style=""font-size:50px; font-weight:bold;""
                            >happy</p>
                            <div style=""width:240px; margin: auto;"">
                                <img src=""images/map07_RdPu_scaleRev_orientDef_270.png"" style= ""width:200px""alt=""img"">
                            </div>
                        </div>","-123","","0","","","","images/map07_RdPu_scaleRev_orientDef_270.png","happy","1","07","07","RdPu","orientDef","scaleRev","270","",""
"","","","","","html-slider-response","132","381267","0.0-128.0","v8mtw2p5lp","68","NaN","<div style=""width:500px;"">
                            <p style=""font-size:50px; font-weight:bold;""
                            >happy</p>
                            <div style=""width:240px; margin: auto;"">
                                <img src=""images/map10_PuBuGn_scaleRev_orientMir_090.png"" style= ""width:200px""alt=""img"">
                            </div>
                        </div>","150","","0","","","","images/map10_PuBuGn_scaleRev_orientMir_090.png","happy","1","10","10","PuBuGn","orientMir","scaleRev","090","",""
"","","","","","html-slider-response","133","382857","0.0-129.0","v8mtw2p5lp","68","NaN","<div style=""width:500px;"">
                            <p style=""font-size:50px; font-weight:bold;""
                            >happy</p>
                            <div style=""width:240px; margin: auto;"">
                                <img src=""images/map13_RdBu_scaleDef_orientMir_000.png"" style= ""width:200px""alt=""img"">
                            </div>
                        </div>","-154","","0","","","","images/map13_RdBu_scaleDef_orientMir_000.png","happy","1","13","13","RdBu","orientMir","scaleDef","000","",""
"","","","","","html-slider-response","134","385217","0.0-130.0","v8mtw2p5lp","68","NaN","<div style=""width:500px;"">
                            <p style=""font-size:50px; font-weight:bold;""
                            >happy</p>
                            <div style=""width:240px; margin: auto;"">
                                <img src=""images/map27_cividis_scaleRev_orientMir_090.png"" style= ""width:200px""alt=""img"">
                            </div>
                        </div>","30","","0","","","","images/map27_cividis_scaleRev_orientMir_090.png","happy","1","27","27","cividis","orientMir","scaleRev","090","",""
"","","","","","html-slider-response","135","387688","0.0-131.0","v8mtw2p5lp","68","NaN","<div style=""width:500px;"">
                            <p style=""font-size:50px; font-weight:bold;""
                            >happy</p>
                            <div style=""width:240px; margin: auto;"">
                                <img src=""images/map15_bwr_scaleDef_orientMir_180.png"" style= ""width:200px""alt=""img"">
                            </div>
                        </div>","1","","0","","","","images/map15_bwr_scaleDef_orientMir_180.png","happy","1","15","15","bwr","orientMir","scaleDef","180","",""
"","","","","","html-slider-response","136","389436","0.0-132.0","v8mtw2p5lp","68","NaN","<div style=""width:500px;"">
                            <p style=""font-size:50px; font-weight:bold;""
                            >happy</p>
                            <div style=""width:240px; margin: auto;"">
                                <img src=""images/map23_managua_scaleRev_orientMir_090.png"" style= ""width:200px""alt=""img"">
                            </div>
                        </div>","69","","0","","","","images/map23_managua_scaleRev_orientMir_090.png","happy","1","23","23","managua","orientMir","scaleRev","090","",""
"","","","","","html-slider-response","137","391619","0.0-133.0","v8mtw2p5lp","68","NaN","<div style=""width:500px;"">
                            <p style=""font-size:50px; font-weight:bold;""
                            >happy</p>
                            <div style=""width:240px; margin: auto;"">
                                <img src=""images/map12_PRGn_scaleDef_orientMir_000.png"" style= ""width:200px""alt=""img"">
                            </div>
                        </div>","69","","0","","","","images/map12_PRGn_scaleDef_orientMir_000.png","happy","1","12","12","PRGn","orientMir","scaleDef","000","",""
"","","","","","html-slider-response","138","393182","0.0-134.0","v8mtw2p5lp","68","NaN","<div style=""width:500px;"">
                            <p style=""font-size:50px; font-weight:bold;""
                            >happy</p>
                            <div style=""width:240px; margin: auto;"">
                                <img src=""images/map12_YlGn_scaleRev_orientDef_090.png"" style= ""width:200px""alt=""img"">
                            </div>
                        </div>","126","","0","","","","images/map12_YlGn_scaleRev_orientDef_090.png","happy","1","12","12","YlGn","orientDef","scaleRev","090","",""
"","","","","","html-slider-response","139","394359","0.0-135.0","v8mtw2p5lp","68","NaN","<div style=""width:500px;"">
                            <p style=""font-size:50px; font-weight:bold;""
                            >happy</p>
                            <div style=""width:240px; margin: auto;"">
                                <img src=""images/map26_gist_earth_scaleRev_orientDef_090.png"" style= ""width:200px""alt=""img"">
                            </div>
                        </div>","126","","0","","","","images/map26_gist_earth_scaleRev_orientDef_090.png","happy","1","26","26","gist","scaleRev","earth","orientDef","",""
"","","","","","html-slider-response","140","396090","0.0-136.0","v8mtw2p5lp","68","NaN","<div style=""width:500px;"">
                            <p style=""font-size:50px; font-weight:bold;""
                            >happy</p>
                            <div style=""width:240px; margin: auto;"">
                                <img src=""images/map10_PuBu_scaleDef_orientDef_000.png"" style= ""width:200px""alt=""img"">
                            </div>
                        </div>","169","","0","","","","images/map10_PuBu_scaleDef_orientDef_000.png","happy","1","10","10","PuBu","orientDef","scaleDef","000","",""
"","","","","","html-button-response","141","397607","0.0-137.0","v8mtw2p5lp","68","1013","<p>You are doing great!<br></br> You are halway done with the current block. When you are ready to continue, click the 'Continue' button.</p>","0","","","","","","","","","","","","","","","",""
"","","","","","html-slider-response","142","398841","0.0-138.0","v8mtw2p5lp","68","NaN","<div style=""width:500px;"">
                            <p style=""font-size:50px; font-weight:bold;""
                            >happy</p>
                            <div style=""width:240px; margin: auto;"">
                                <img src=""images/map27_inferno_scaleRev_orientDef_090.png"" style= ""width:200px""alt=""img"">
                            </div>
                        </div>","-178","","0","","","","images/map27_inferno_scaleRev_orientDef_090.png","happy","1","27","27","inferno","orientDef","scaleRev","090","",""
"","","","","","html-slider-response","143","400398","0.0-139.0","v8mtw2p5lp","68","NaN","<div style=""width:500px;"">
                            <p style=""font-size:50px; font-weight:bold;""
                            >happy</p>
                            <div style=""width:240px; margin: auto;"">
                                <img src=""images/map02_Greens_scaleRev_orientMir_090.png"" style= ""width:200px""alt=""img"">
                            </div>
                        </div>","107","","0","","","","images/map02_Greens_scaleRev_orientMir_090.png","happy","1","02","02","Greens","orientMir","scaleRev","090","",""
"","","","","","html-slider-response","144","402219","0.0-140.0","v8mtw2p5lp","68","NaN","<div style=""width:500px;"">
                            <p style=""font-size:50px; font-weight:bold;""
                            >happy</p>
                            <div style=""width:240px; margin: auto;"">
                                <img src=""images/map27_cividis_scaleDef_orientMir_000.png"" style= ""width:200px""alt=""img"">
                            </div>
                        </div>","39","","0","","","","images/map27_cividis_scaleDef_orientMir_000.png","happy","1","27","27","cividis","orientMir","scaleDef","000","",""
"","","","","","html-slider-response","145","404128","0.0-141.0","v8mtw2p5lp","68","NaN","<div style=""width:500px;"">
                            <p style=""font-size:50px; font-weight:bold;""
                            >happy</p>
                            <div style=""width:240px; margin: auto;"">
                                <img src=""images/map02_Oranges_scaleDef_orientMir_180.png"" style= ""width:200px""alt=""img"">
                            </div>
                        </div>","-139","","0","","","","images/map02_Oranges_scaleDef_orientMir_180.png","happy","1","02","02","Oranges","orientMir","scaleDef","180","",""
"","","","","","html-slider-response","146","405024","0.0-142.0","v8mtw2p5lp","68","NaN","<div style=""width:500px;"">
                            <p style=""font-size:50px; font-weight:bold;""
                            >happy</p>
                            <div style=""width:240px; margin: auto;"">
                                <img src=""images/map05_YlOrBr_scaleRev_orientDef_270.png"" style= ""width:200px""alt=""img"">
                            </div>
                        </div>","-139","","0","","","","images/map05_YlOrBr_scaleRev_orientDef_270.png","happy","1","05","05","YlOrBr","orientDef","scaleRev","270","",""
"","","","","","html-slider-response","147","406714","0.0-143.0","v8mtw2p5lp","68","NaN","<div style=""width:500px;"">
                            <p style=""font-size:50px; font-weight:bold;""
                            >happy</p>
                            <div style=""width:240px; margin: auto;"">
                                <img src=""images/map12_YlGn_scaleDef_orientDef_000.png"" style= ""width:200px""alt=""img"">
                            </div>
                        </div>","125","","0","","","","images/map12_YlGn_scaleDef_orientDef_000.png","happy","1","12","12","YlGn","orientDef","scaleDef","000","",""
"","","","","","html-slider-response","148","408423","0.0-144.0","v8mtw2p5lp","68","NaN","<div style=""width:500px;"">
                            <p style=""font-size:50px; font-weight:bold;""
                            >happy</p>
                            <div style=""width:240px; margin: auto;"">
                                <img src=""images/map23_berlin_scaleRev_orientDef_270.png"" style= ""width:200px""alt=""img"">
                            </div>
                        </div>","86","","0","","","","images/map23_berlin_scaleRev_orientDef_270.png","happy","1","23","23","berlin","orientDef","scaleRev","270","",""
"","","","","","html-slider-response","149","409951","0.0-145.0","v8mtw2p5lp","68","NaN","<div style=""width:500px;"">
                            <p style=""font-size:50px; font-weight:bold;""
                            >happy</p>
                            <div style=""width:240px; margin: auto;"">
                                <img src=""images/map13_RdYlBu_scaleDef_orientMir_180.png"" style= ""width:200px""alt=""img"">
                            </div>
                        </div>","50","","0","","","","images/map13_RdYlBu_scaleDef_orientMir_180.png","happy","1","13","13","RdYlBu","orientMir","scaleDef","180","",""
"","","","","","html-slider-response","150","411217","0.0-146.0","v8mtw2p5lp","68","NaN","<div style=""width:500px;"">
                            <p style=""font-size:50px; font-weight:bold;""
                            >happy</p>
                            <div style=""width:240px; margin: auto;"">
                                <img src=""images/map13_RdYlBu_scaleRev_orientMir_270.png"" style= ""width:200px""alt=""img"">
                            </div>
                        </div>","26","","0","","","","images/map13_RdYlBu_scaleRev_orientMir_270.png","happy","1","13","13","RdYlBu","orientMir","scaleRev","270","",""
"","","","","","html-slider-response","151","412749","0.0-147.0","v8mtw2p5lp","68","NaN","<div style=""width:500px;"">
                            <p style=""font-size:50px; font-weight:bold;""
                            >happy</p>
                            <div style=""width:240px; margin: auto;"">
                                <img src=""images/map02_Oranges_scaleRev_orientMir_270.png"" style= ""width:200px""alt=""img"">
                            </div>
                        </div>","-154","","0","","","","images/map02_Oranges_scaleRev_orientMir_270.png","happy","1","02","02","Oranges","orientMir","scaleRev","270","",""
"","","","","","html-slider-response","152","413650","0.0-148.0","v8mtw2p5lp","68","NaN","<div style=""width:500px;"">
                            <p style=""font-size:50px; font-weight:bold;""
                            >happy</p>
                            <div style=""width:240px; margin: auto;"">
                                <img src=""images/map05_Reds_scaleDef_orientDef_000.png"" style= ""width:200px""alt=""img"">
                            </div>
                        </div>","-154","","0","","","","images/map05_Reds_scaleDef_orientDef_000.png","happy","1","05","05","Reds","orientDef","scaleDef","000","",""
"","","","","","html-slider-response","153","415352","0.0-149.0","v8mtw2p5lp","68","NaN","<div style=""width:500px;"">
                            <p style=""font-size:50px; font-weight:bold;""
                            >happy</p>
                            <div style=""width:240px; margin: auto;"">
                                <img src=""images/map07_GnBu_scaleDef_orientMir_180.png"" style= ""width:200px""alt=""img"">
                            </div>
                        </div>","170","","0","","","","images/map07_GnBu_scaleDef_orientMir_180.png","happy","1","07","07","GnBu","orientMir","scaleDef","180","",""
"","","","","","html-slider-response","154","416476","0.0-150.0","v8mtw2p5lp","68","NaN","<div style=""width:500px;"">
                            <p style=""font-size:50px; font-weight:bold;""
                            >happy</p>
                            <div style=""width:240px; margin: auto;"">
                                <img src=""images/map10_BuGn_scaleRev_orientMir_270.png"" style= ""width:200px""alt=""img"">
                            </div>
                        </div>","170","","0","","","","images/map10_BuGn_scaleRev_orientMir_270.png","happy","1","10","10","BuGn","orientMir","scaleRev","270","",""
"","","","","","html-slider-response","155","417711","0.0-151.0","v8mtw2p5lp","68","NaN","<div style=""width:500px;"">
                            <p style=""font-size:50px; font-weight:bold;""
                            >happy</p>
                            <div style=""width:240px; margin: auto;"">
                                <img src=""images/map26_viridis_scaleDef_orientMir_000.png"" style= ""width:200px""alt=""img"">
                            </div>
                        </div>","170","","0","","","","images/map26_viridis_scaleDef_orientMir_000.png","happy","1","26","26","viridis","orientMir","scaleDef","000","",""
"","","","","","html-slider-response","156","419361","0.0-152.0","v8mtw2p5lp","68","NaN","<div style=""width:500px;"">
                            <p style=""font-size:50px; font-weight:bold;""
                            >happy</p>
                            <div style=""width:240px; margin: auto;"">
                                <img src=""images/map23_vanimo_scaleRev_orientMir_270.png"" style= ""width:200px""alt=""img"">
                            </div>
                        </div>","94","","0","","","","images/map23_vanimo_scaleRev_orientMir_270.png","happy","1","23","23","vanimo","orientMir","scaleRev","270","",""
"","","","","","html-slider-response","157","420956","0.0-153.0","v8mtw2p5lp","68","NaN","<div style=""width:500px;"">
                            <p style=""font-size:50px; font-weight:bold;""
                            >happy</p>
                            <div style=""width:240px; margin: auto;"">
