"success","timeout","failed_images","failed_audio","failed_video","trial_type","trial_index","time_elapsed","internal_node_id","subject_id","condition_num","rt","stimulus","response","question_order","slider_start","practiceTrial","practiceTrialNum","correct","image_path","concept","repetition","map_id","map_num","scale_name","orientation_code","mapping_code","rotation_code","ishihara_plate","correct_response"
"true","false","[]","[]","[]","preload","0","3431","0.0-0.0","vrd5pytpc9","58","","","","","","","","","","","","","","","","","","",""
"","","","","","html-button-response","1","5600","0.0-1.0","vrd5pytpc9","58","2166","Welcome to our experiment!<p>At the bottom of this screen, you will see a button that says ""Begin Experiment"".<br>Please only click that button when you are ready to complete the 30 minute experiment in one sitting.</p><p> Once you click that button, it will not be possible to restart the experiment.","0","","","","","","","","","","","","","","","",""
"true","","","","","fullscreen","2","7898","0.0-2.0","vrd5pytpc9","58","1283","","","","","","","","","","","","","","","","","",""
"","","","","","survey-multi-select","3","61452","0.0-3.0","vrd5pytpc9","58","53551","","{""Consent"":[""<strong>I consent</strong>""]}","[0]","","","","","","","","","","","","","","",""
"","","","","","html-button-response","4","65926","0.0-4.0","vrd5pytpc9","58","4473","Welcome! <p> This experiment involves two parts: demographic information, followed by the experimental task.<p> It will take about 30 minutes to complete both parts.","0","","","","","","","","","","","","","","","",""
"","","","","","survey-text","5","86169","0.0-5.0","vrd5pytpc9","58","20217","","{""Age"":""2113"",""Gender"":""."",""Race/ethnicity"":""."",""Languages"":""English""}","","","","","","","","","","","","","","","",""
"","","","","","html-slider-response","6","127362","0.0-6.0","vrd5pytpc9","58","41190","<div style='text-align:left; font-size:20px; line-height:25px; width: 1000px;'>
                                During this experiment you will be asked to rate how much you associate maps with                    different concepts.<br> Below, you can see some examples of the maps you will be asked to rate. Above the maps
                    is the list of concepts.<br>You will be asked                    to rate how much you associate each map with each concept on a scale from 'not at all' to 'very much' like the
                    one below. <br><br>
                    Now, please look at the list of concepts and maps. For each concept, think about the map you associate 'very
                    much' with the concept.<br>                     When you see that map during the experiment, please rate it near the 'very much' endpoint of the
                    scale.<br>Now, please think about which map you associate 'not at all'                     with each concept. When you see that map during the experiment, please rate it near the 'not at all' endpoint
                    of the scale.<br>
                    Please use the full range of the scale. That is, if a map is somewhat associated with the concept, you would
                    click partway between the middle point and right side of the scale.                    You will be asked to rate each map for a given concept before moving on to the next concept.<br>Press the
                    'Continue' button for instructions on how to use the slider.                    <br>
                </div>

                <div style=""width: 500px; margin: 0 auto;"">
                    <!-- Centered text paragraphs -->
                    <div style=""text-align: center; width: 500px;"">
                        <p style=""font-size:25px; line-height:15px;"">
                            disgust&nbsp;&nbsp;&nbsp;&nbsp;
                            angry&nbsp;&nbsp;&nbsp;&nbsp;
                            fearful&nbsp;&nbsp;&nbsp;&nbsp;
                            happy&nbsp;&nbsp;&nbsp;&nbsp;
                            sad
                        </p>
                        <!-- <p style=""font-size:20px; line-height:15px;"">angry</p>
                        <p style=""font-size:20px;line-height:15px;"">fearful</p>
                        <p style=""font-size:20px;line-height:15px;"">happy</p>
                        <p style=""font-size:20px;line-height:15px;"">sad</p> -->
                    </div>
            

                    <!-- Grid section -->
                   <div style=""display: flex; justify-content: center; padding-top: 15px;"">
                    <div style=""display: grid; grid-template-columns: repeat(10, 55px); grid-gap: 5px; width: auto;"">
                        <img src=""images/map02_Greys_scaleDef_orientMir_180.png"" alt=""map"" style=""width: 100%;""><img src=""images/map13_YlGn_scaleDef_orientDef_000.png"" alt=""map"" style=""width: 100%;""><img src=""images/map10_BuPu_scaleDef_orientMir_000.png"" alt=""map"" style=""width: 100%;""><img src=""images/map02_magma_scaleDef_orientDef_180.png"" alt=""map"" style=""width: 100%;""><img src=""images/map02_inferno_scaleRev_orientDef_090.png"" alt=""map"" style=""width: 100%;""><img src=""images/map15_RdBu_scaleDef_orientMir_000.png"" alt=""map"" style=""width: 100%;""><img src=""images/map13_PiYG_scaleDef_orientDef_180.png"" alt=""map"" style=""width: 100%;""><img src=""images/map07_YlOrRd_scaleRev_orientMir_090.png"" alt=""map"" style=""width: 100%;""><img src=""images/map02_cividis_scaleDef_orientMir_000.png"" alt=""map"" style=""width: 100%;""><img src=""images/map26_seismic_scaleRev_orientDef_090.png"" alt=""map"" style=""width: 100%;""><img src=""images/map23_coolwarm_scaleRev_orientMir_090.png"" alt=""map"" style=""width: 100%;""><img src=""images/map07_YlOrBr_scaleRev_orientDef_270.png"" alt=""map"" style=""width: 100%;""><img src=""images/map07_OrRd_scaleDef_orientMir_180.png"" alt=""map"" style=""width: 100%;""><img src=""images/map15_PuOr_scaleRev_orientDef_090.png"" alt=""map"" style=""width: 100%;""><img src=""images/map12_PuBu_scaleRev_orientDef_090.png"" alt=""map"" style=""width: 100%;""><img src=""images/map23_bwr_scaleDef_orientMir_180.png"" alt=""map"" style=""width: 100%;""><img src=""images/map10_RdPu_scaleDef_orientDef_180.png"" alt=""map"" style=""width: 100%;""><img src=""images/map10_GnBu_scaleRev_orientMir_270.png"" alt=""map"" style=""width: 100%;""><img src=""images/map13_BrBG_scaleRev_orientMir_270.png"" alt=""map"" style=""width: 100%;""><img src=""images/map05_Oranges_scaleRev_orientMir_270.png"" alt=""map"" style=""width: 100%;""><img src=""images/map27_plasma_scaleRev_orientMir_270.png"" alt=""map"" style=""width: 100%;""><img src=""images/map05_Purples_scaleDef_orientDef_000.png"" alt=""map"" style=""width: 100%;""><img src=""images/map12_YlGnBu_scaleDef_orientDef_180.png"" alt=""map"" style=""width: 100%;""><img src=""images/map27_viridis_scaleDef_orientMir_000.png"" alt=""map"" style=""width: 100%;""><img src=""images/map12_PuBuGn_scaleDef_orientMir_000.png"" alt=""map"" style=""width: 100%;""><img src=""images/map05_Blues_scaleDef_orientDef_180.png"" alt=""map"" style=""width: 100%;""><img src=""images/map12_BuGn_scaleDef_orientMir_180.png"" alt=""map"" style=""width: 100%;""><img src=""images/map27_turbo_scaleRev_orientDef_270.png"" alt=""map"" style=""width: 100%;""><img src=""images/map15_RdGy_scaleDef_orientDef_180.png"" alt=""map"" style=""width: 100%;""><img src=""images/map13_PRGn_scaleRev_orientMir_090.png"" alt=""map"" style=""width: 100%;""><img src=""images/map05_Greens_scaleDef_orientMir_000.png"" alt=""map"" style=""width: 100%;""><img src=""images/map26_managua_scaleRev_orientMir_090.png"" alt=""map"" style=""width: 100%;""><img src=""images/map23_Spectral_scaleDef_orientDef_180.png"" alt=""map"" style=""width: 100%;""><img src=""images/map27_gist_earth_scaleDef_orientDef_000.png"" alt=""map"" style=""width: 100%;""><img src=""images/map15_RdYlBu_scaleRev_orientMir_270.png"" alt=""map"" style=""width: 100%;""><img src=""images/map07_Reds_scaleRev_orientDef_090.png"" alt=""map"" style=""width: 100%;""><img src=""images/map23_RdYlGn_scaleRev_orientDef_090.png"" alt=""map"" style=""width: 100%;""><img src=""images/map26_vanimo_scaleRev_orientMir_270.png"" alt=""map"" style=""width: 100%;""><img src=""images/map10_PuRd_scaleRev_orientDef_090.png"" alt=""map"" style=""width: 100%;""><img src=""images/map26_berlin_scaleDef_orientDef_180.png"" alt=""map"" style=""width: 100%;"">
                    </div>
                </div>

                    <!-- Clear floats -->
                    <div style=""clear: both;""></div>
                </div>
                            ","0","","0","true","","","","","","","","","","","","",""
"","","","","","html-button-response","7","130630","0.0-7.0","vrd5pytpc9","58","3265","<div style=""width:800px;""><p style=""text-align:left"">To move the slider, click and drag your cursor to the location of the scale where you would like to make your rating and then let go. When you let go of the slider, your response will be recorded and the next trial will begin. <br>
                    We are interested in your initial impressions of each map for the given concept, so please go with your first intuition. <br>
                    Before you begin the experiment, there will be four training trials for you to practice using the scale. <br>
                     When you are ready to start the training trials, please click ""Continue"".</p><br></div>","0","","","","","","","","","","","","","","","",""
"","","","","","html-slider-response","8","133682","0.0-8.0-0.0","vrd5pytpc9","58","NaN","<div style=""width:500px;"">
                                    <p style=""font-size:25px;"">Please move the slider all the way to the <br> right endpoint of the scale</p>

                                    </div>
                                </div>","-200","","0","true","0","false","","","","","","","","","","",""
"","","","","","html-button-response","9","135712","0.0-8.0-1.0","vrd5pytpc9","58","1519","<p align='center'><b>Not quite!</b> The slider was not placed near the instructed located. Click on 'Continue' to try again. </p>","0","","","","","","","","","","","","","","","",""
"","","","","","html-slider-response","10","137363","0.0-8.1-0.1","vrd5pytpc9","58","NaN","<div style=""width:500px;"">
                                    <p style=""font-size:25px;"">Please move the slider all the way to the <br> right endpoint of the scale</p>

                                    </div>
                                </div>","200","","0","true","0","true","","","","","","","","","","",""
"","","","","","html-button-response","11","138602","0.0-8.1-1.1","vrd5pytpc9","58","728","<p align='center'><b>Good job!</b> Click on 'Continue' to proceed.</p>","0","","","","","","","","","","","","","","","",""
"","","","","","html-slider-response","12","139621","0.0-9.0-0.0","vrd5pytpc9","58","NaN","<div style=""width:500px;"">
                                    <p style=""font-size:25px;"">Please move the slider all the way to the <br> left endpoint of the scale</p>

                                    </div>
                                </div>","-200","","0","true","1","true","","","","","","","","","","",""
"","","","","","html-button-response","13","140839","0.0-9.0-1.0","vrd5pytpc9","58","713","<p align='center'><b>Good job!</b> Click on 'Continue' to proceed.</p>","0","","","","","","","","","","","","","","","",""
"","","","","","html-slider-response","14","145747","0.0-10.0-0.0","vrd5pytpc9","58","NaN","<div style=""width:500px;"">
                                    <p style=""font-size:25px;"">Please move the slider halfway between the center and right endpoint of the scale</p>

                                    </div>
                                </div>","106","","0","true","2","true","","","","","","","","","","",""
"","","","","","html-button-response","15","146967","0.0-10.0-1.0","vrd5pytpc9","58","718","<p align='center'><b>Good job!</b> Click on 'Continue' to proceed.</p>","0","","","","","","","","","","","","","","","",""
"","","","","","html-slider-response","16","148235","0.0-11.0-0.0","vrd5pytpc9","58","NaN","<div style=""width:500px;"">
                                    <p style=""font-size:25px;"">Please move the slider halfway between the center and left endpoint of the scale</p>

                                    </div>
                                </div>","-96","","0","true","3","true","","","","","","","","","","",""
"","","","","","html-button-response","17","149504","0.0-11.0-1.0","vrd5pytpc9","58","763","<p align='center'><b>Good job!</b> Click on 'Continue' to proceed.</p>","0","","","","","","","","","","","","","","","",""
"","","","","","html-button-response","18","150645","0.0-12.0","vrd5pytpc9","58","1140","<p>Great job! You've completed the practice trials. Now you will begin the main task.</p>","0","","","","","","","","","","","","","","","",""
"","","","","","html-button-response","19","151803","0.0-13.0","vrd5pytpc9","58","1156","<p>In this block of trials, you will be asked to rate how much you associate each map with:</p > <p style = 'font-size:150%; font-weight: bold'>disgust</p><br></br>","0","","","","","","","","","","","","","","","",""
"","","","","","html-slider-response","20","155808","0.0-14.0","vrd5pytpc9","58","NaN","<div style=""width:500px;"">
                            <p style=""font-size:50px; font-weight:bold;""
                            >disgust</p>
                            <div style=""width:240px; margin: auto;"">
                                <img src=""images/map05_Purples_scaleRev_orientDef_090.png"" style= ""width:200px""alt=""img"">
                            </div>
                        </div>","11","","0","","","","images/map05_Purples_scaleRev_orientDef_090.png","disgust","1","05","05","Purples","orientDef","scaleRev","090","",""
"","","","","","html-slider-response","21","163689","0.0-15.0","vrd5pytpc9","58","NaN","<div style=""width:500px;"">
                            <p style=""font-size:50px; font-weight:bold;""
                            >disgust</p>
                            <div style=""width:240px; margin: auto;"">
                                <img src=""images/map02_magma_scaleDef_orientDef_180.png"" style= ""width:200px""alt=""img"">
                            </div>
                        </div>","-22","","0","","","","images/map02_magma_scaleDef_orientDef_180.png","disgust","1","02","02","magma","orientDef","scaleDef","180","",""
"","","","","","html-slider-response","22","169459","0.0-16.0","vrd5pytpc9","58","NaN","<div style=""width:500px;"">
                            <p style=""font-size:50px; font-weight:bold;""
                            >disgust</p>
                            <div style=""width:240px; margin: auto;"">
                                <img src=""images/map07_YlOrBr_scaleRev_orientDef_270.png"" style= ""width:200px""alt=""img"">
                            </div>
                        </div>","-50","","0","","","","images/map07_YlOrBr_scaleRev_orientDef_270.png","disgust","1","07","07","YlOrBr","orientDef","scaleRev","270","",""
"","","","","","html-slider-response","23","174307","0.0-17.0","vrd5pytpc9","58","NaN","<div style=""width:500px;"">
                            <p style=""font-size:50px; font-weight:bold;""
                            >disgust</p>
                            <div style=""width:240px; margin: auto;"">
                                <img src=""images/map26_vanimo_scaleRev_orientMir_270.png"" style= ""width:200px""alt=""img"">
                            </div>
                        </div>","-91","","0","","","","images/map26_vanimo_scaleRev_orientMir_270.png","disgust","1","26","26","vanimo","orientMir","scaleRev","270","",""
"","","","","","html-slider-response","24","185713","0.0-18.0","vrd5pytpc9","58","NaN","<div style=""width:500px;"">
                            <p style=""font-size:50px; font-weight:bold;""
                            >disgust</p>
                            <div style=""width:240px; margin: auto;"">
                                <img src=""images/map05_Greens_scaleDef_orientMir_000.png"" style= ""width:200px""alt=""img"">
                            </div>
                        </div>","-199","","0","","","","images/map05_Greens_scaleDef_orientMir_000.png","disgust","1","05","05","Greens","orientMir","scaleDef","000","",""
"","","","","","html-slider-response","25","189212","0.0-19.0","vrd5pytpc9","58","NaN","<div style=""width:500px;"">
                            <p style=""font-size:50px; font-weight:bold;""
                            >disgust</p>
                            <div style=""width:240px; margin: auto;"">
                                <img src=""images/map07_OrRd_scaleRev_orientMir_270.png"" style= ""width:200px""alt=""img"">
                            </div>
                        </div>","-198","","0","","","","images/map07_OrRd_scaleRev_orientMir_270.png","disgust","1","07","07","OrRd","orientMir","scaleRev","270","",""
"","","","","","html-slider-response","26","193482","0.0-20.0","vrd5pytpc9","58","NaN","<div style=""width:500px;"">
                            <p style=""font-size:50px; font-weight:bold;""
                            >disgust</p>
                            <div style=""width:240px; margin: auto;"">
                                <img src=""images/map13_PiYG_scaleRev_orientDef_270.png"" style= ""width:200px""alt=""img"">
                            </div>
                        </div>","22","","0","","","","images/map13_PiYG_scaleRev_orientDef_270.png","disgust","1","13","13","PiYG","orientDef","scaleRev","270","",""
"","","","","","html-slider-response","27","195612","0.0-21.0","vrd5pytpc9","58","NaN","<div style=""width:500px;"">
                            <p style=""font-size:50px; font-weight:bold;""
                            >disgust</p>
                            <div style=""width:240px; margin: auto;"">
                                <img src=""images/map13_PiYG_scaleDef_orientDef_180.png"" style= ""width:200px""alt=""img"">
                            </div>
                        </div>","19","","0","","","","images/map13_PiYG_scaleDef_orientDef_180.png","disgust","1","13","13","PiYG","orientDef","scaleDef","180","",""
"","","","","","html-slider-response","28","197995","0.0-22.0","vrd5pytpc9","58","NaN","<div style=""width:500px;"">
                            <p style=""font-size:50px; font-weight:bold;""
                            >disgust</p>
                            <div style=""width:240px; margin: auto;"">
                                <img src=""images/map10_BuPu_scaleDef_orientMir_000.png"" style= ""width:200px""alt=""img"">
                            </div>
                        </div>","-198","","0","","","","images/map10_BuPu_scaleDef_orientMir_000.png","disgust","1","10","10","BuPu","orientMir","scaleDef","000","",""
"","","","","","html-slider-response","29","200089","0.0-23.0","vrd5pytpc9","58","NaN","<div style=""width:500px;"">
                            <p style=""font-size:50px; font-weight:bold;""
                            >disgust</p>
                            <div style=""width:240px; margin: auto;"">
                                <img src=""images/map12_BuGn_scaleRev_orientMir_270.png"" style= ""width:200px""alt=""img"">
                            </div>
                        </div>","-197","","0","","","","images/map12_BuGn_scaleRev_orientMir_270.png","disgust","1","12","12","BuGn","orientMir","scaleRev","270","",""
"","","","","","html-slider-response","30","202591","0.0-24.0","vrd5pytpc9","58","NaN","<div style=""width:500px;"">
                            <p style=""font-size:50px; font-weight:bold;""
                            >disgust</p>
                            <div style=""width:240px; margin: auto;"">
                                <img src=""images/map10_RdPu_scaleRev_orientDef_270.png"" style= ""width:200px""alt=""img"">
                            </div>
                        </div>","-199","","0","","","","images/map10_RdPu_scaleRev_orientDef_270.png","disgust","1","10","10","RdPu","orientDef","scaleRev","270","",""
"","","","","","html-slider-response","31","205406","0.0-25.0","vrd5pytpc9","58","NaN","<div style=""width:500px;"">
                            <p style=""font-size:50px; font-weight:bold;""
                            >disgust</p>
                            <div style=""width:240px; margin: auto;"">
                                <img src=""images/map23_bwr_scaleDef_orientMir_180.png"" style= ""width:200px""alt=""img"">
                            </div>
                        </div>","21","","0","","","","images/map23_bwr_scaleDef_orientMir_180.png","disgust","1","23","23","bwr","orientMir","scaleDef","180","",""
"","","","","","html-slider-response","32","207481","0.0-26.0","vrd5pytpc9","58","NaN","<div style=""width:500px;"">
                            <p style=""font-size:50px; font-weight:bold;""
                            >disgust</p>
                            <div style=""width:240px; margin: auto;"">
                                <img src=""images/map23_coolwarm_scaleRev_orientMir_090.png"" style= ""width:200px""alt=""img"">
                            </div>
                        </div>","22","","0","","","","images/map23_coolwarm_scaleRev_orientMir_090.png","disgust","1","23","23","coolwarm","orientMir","scaleRev","090","",""
"","","","","","html-slider-response","33","209623","0.0-27.0","vrd5pytpc9","58","NaN","<div style=""width:500px;"">
                            <p style=""font-size:50px; font-weight:bold;""
                            >disgust</p>
                            <div style=""width:240px; margin: auto;"">
                                <img src=""images/map26_berlin_scaleRev_orientDef_270.png"" style= ""width:200px""alt=""img"">
                            </div>
                        </div>","50","","0","","","","images/map26_berlin_scaleRev_orientDef_270.png","disgust","1","26","26","berlin","orientDef","scaleRev","270","",""
"","","","","","html-slider-response","34","214495","0.0-28.0","vrd5pytpc9","58","NaN","<div style=""width:500px;"">
                            <p style=""font-size:50px; font-weight:bold;""
                            >disgust</p>
                            <div style=""width:240px; margin: auto;"">
                                <img src=""images/map07_YlOrRd_scaleDef_orientMir_000.png"" style= ""width:200px""alt=""img"">
                            </div>
                        </div>","25","","0","","","","images/map07_YlOrRd_scaleDef_orientMir_000.png","disgust","1","07","07","YlOrRd","orientMir","scaleDef","000","",""
"","","","","","html-slider-response","35","216891","0.0-29.0","vrd5pytpc9","58","NaN","<div style=""width:500px;"">
                            <p style=""font-size:50px; font-weight:bold;""
                            >disgust</p>
                            <div style=""width:240px; margin: auto;"">
                                <img src=""images/map13_YlGn_scaleDef_orientDef_000.png"" style= ""width:200px""alt=""img"">
                            </div>
                        </div>","-195","","0","","","","images/map13_YlGn_scaleDef_orientDef_000.png","disgust","1","13","13","YlGn","orientDef","scaleDef","000","",""
"","","","","","html-slider-response","36","218671","0.0-30.0","vrd5pytpc9","58","NaN","<div style=""width:500px;"">
                            <p style=""font-size:50px; font-weight:bold;""
                            >disgust</p>
                            <div style=""width:240px; margin: auto;"">
                                <img src=""images/map23_RdYlGn_scaleRev_orientDef_090.png"" style= ""width:200px""alt=""img"">
                            </div>
                        </div>","22","","0","","","","images/map23_RdYlGn_scaleRev_orientDef_090.png","disgust","1","23","23","RdYlGn","orientDef","scaleRev","090","",""
"","","","","","html-slider-response","37","220331","0.0-31.0","vrd5pytpc9","58","NaN","<div style=""width:500px;"">
                            <p style=""font-size:50px; font-weight:bold;""
                            >disgust</p>
                            <div style=""width:240px; margin: auto;"">
                                <img src=""images/map15_RdYlBu_scaleDef_orientMir_180.png"" style= ""width:200px""alt=""img"">
                            </div>
                        </div>","46","","0","","","","images/map15_RdYlBu_scaleDef_orientMir_180.png","disgust","1","15","15","RdYlBu","orientMir","scaleDef","180","",""
"","","","","","html-slider-response","38","223118","0.0-32.0","vrd5pytpc9","58","NaN","<div style=""width:500px;"">
                            <p style=""font-size:50px; font-weight:bold;""
                            >disgust</p>
                            <div style=""width:240px; margin: auto;"">
                                <img src=""images/map02_cividis_scaleDef_orientMir_000.png"" style= ""width:200px""alt=""img"">
                            </div>
                        </div>","14","","0","","","","images/map02_cividis_scaleDef_orientMir_000.png","disgust","1","02","02","cividis","orientMir","scaleDef","000","",""
"","","","","","html-slider-response","39","227800","0.0-33.0","vrd5pytpc9","58","NaN","<div style=""width:500px;"">
                            <p style=""font-size:50px; font-weight:bold;""
                            >disgust</p>
                            <div style=""width:240px; margin: auto;"">
                                <img src=""images/map27_turbo_scaleDef_orientDef_180.png"" style= ""width:200px""alt=""img"">
                            </div>
                        </div>","200","","0","","","","images/map27_turbo_scaleDef_orientDef_180.png","disgust","1","27","27","turbo","orientDef","scaleDef","180","",""
"","","","","","html-slider-response","40","230061","0.0-34.0","vrd5pytpc9","58","NaN","<div style=""width:500px;"">
                            <p style=""font-size:50px; font-weight:bold;""
                            >disgust</p>
                            <div style=""width:240px; margin: auto;"">
                                <img src=""images/map12_YlGnBu_scaleDef_orientDef_180.png"" style= ""width:200px""alt=""img"">
                            </div>
                        </div>","-192","","0","","","","images/map12_YlGnBu_scaleDef_orientDef_180.png","disgust","1","12","12","YlGnBu","orientDef","scaleDef","180","",""
"","","","","","html-slider-response","41","231959","0.0-35.0","vrd5pytpc9","58","NaN","<div style=""width:500px;"">
                            <p style=""font-size:50px; font-weight:bold;""
                            >disgust</p>
                            <div style=""width:240px; margin: auto;"">
                                <img src=""images/map26_berlin_scaleDef_orientDef_180.png"" style= ""width:200px""alt=""img"">
                            </div>
                        </div>","27","","0","","","","images/map26_berlin_scaleDef_orientDef_180.png","disgust","1","26","26","berlin","orientDef","scaleDef","180","",""
"","","","","","html-slider-response","42","234203","0.0-36.0","vrd5pytpc9","58","NaN","<div style=""width:500px;"">
                            <p style=""font-size:50px; font-weight:bold;""
                            >disgust</p>
                            <div style=""width:240px; margin: auto;"">
                                <img src=""images/map10_BuPu_scaleRev_orientMir_090.png"" style= ""width:200px""alt=""img"">
                            </div>
                        </div>","-197","","0","","","","images/map10_BuPu_scaleRev_orientMir_090.png","disgust","1","10","10","BuPu","orientMir","scaleRev","090","",""
"","","","","","html-slider-response","43","237910","0.0-37.0","vrd5pytpc9","58","NaN","<div style=""width:500px;"">
                            <p style=""font-size:50px; font-weight:bold;""
                            >disgust</p>
                            <div style=""width:240px; margin: auto;"">
                                <img src=""images/map07_Reds_scaleDef_orientDef_000.png"" style= ""width:200px""alt=""img"">
                            </div>
                        </div>","-50","","0","","","","images/map07_Reds_scaleDef_orientDef_000.png","disgust","1","07","07","Reds","orientDef","scaleDef","000","",""
"","","","","","html-slider-response","44","240057","0.0-38.0","vrd5pytpc9","58","NaN","<div style=""width:500px;"">
                            <p style=""font-size:50px; font-weight:bold;""
                            >disgust</p>
                            <div style=""width:240px; margin: auto;"">
                                <img src=""images/map02_inferno_scaleRev_orientDef_090.png"" style= ""width:200px""alt=""img"">
                            </div>
                        </div>","24","","0","","","","images/map02_inferno_scaleRev_orientDef_090.png","disgust","1","02","02","inferno","orientDef","scaleRev","090","",""
"","","","","","html-slider-response","45","242146","0.0-39.0","vrd5pytpc9","58","NaN","<div style=""width:500px;"">
                            <p style=""font-size:50px; font-weight:bold;""
                            >disgust</p>
                            <div style=""width:240px; margin: auto;"">
                                <img src=""images/map10_GnBu_scaleDef_orientMir_180.png"" style= ""width:200px""alt=""img"">
                            </div>
                        </div>","-197","","0","","","","images/map10_GnBu_scaleDef_orientMir_180.png","disgust","1","10","10","GnBu","orientMir","scaleDef","180","",""
"","","","","","html-slider-response","46","244891","0.0-40.0","vrd5pytpc9","58","NaN","<div style=""width:500px;"">
                            <p style=""font-size:50px; font-weight:bold;""
                            >disgust</p>
                            <div style=""width:240px; margin: auto;"">
                                <img src=""images/map07_YlOrRd_scaleRev_orientMir_090.png"" style= ""width:200px""alt=""img"">
                            </div>
                        </div>","34","","0","","","","images/map07_YlOrRd_scaleRev_orientMir_090.png","disgust","1","07","07","YlOrRd","orientMir","scaleRev","090","",""
"","","","","","html-slider-response","47","246804","0.0-41.0","vrd5pytpc9","58","NaN","<div style=""width:500px;"">
                            <p style=""font-size:50px; font-weight:bold;""
                            >disgust</p>
                            <div style=""width:240px; margin: auto;"">
                                <img src=""images/map15_RdGy_scaleRev_orientDef_270.png"" style= ""width:200px""alt=""img"">
                            </div>
                        </div>","62","","0","","","","images/map15_RdGy_scaleRev_orientDef_270.png","disgust","1","15","15","RdGy","orientDef","scaleRev","270","",""
"","","","","","html-slider-response","48","248525","0.0-42.0","vrd5pytpc9","58","NaN","<div style=""width:500px;"">
                            <p style=""font-size:50px; font-weight:bold;""
                            >disgust</p>
                            <div style=""width:240px; margin: auto;"">
                                <img src=""images/map23_RdYlGn_scaleDef_orientDef_000.png"" style= ""width:200px""alt=""img"">
                            </div>
                        </div>","86","","0","","","","images/map23_RdYlGn_scaleDef_orientDef_000.png","disgust","1","23","23","RdYlGn","orientDef","scaleDef","000","",""
"","","","","","html-slider-response","49","250086","0.0-43.0","vrd5pytpc9","58","NaN","<div style=""width:500px;"">
                            <p style=""font-size:50px; font-weight:bold;""
                            >disgust</p>
                            <div style=""width:240px; margin: auto;"">
                                <img src=""images/map26_seismic_scaleDef_orientDef_000.png"" style= ""width:200px""alt=""img"">
                            </div>
                        </div>","75","","0","","","","images/map26_seismic_scaleDef_orientDef_000.png","disgust","1","26","26","seismic","orientDef","scaleDef","000","",""
"","","","","","html-slider-response","50","252954","0.0-44.0","vrd5pytpc9","58","NaN","<div style=""width:500px;"">
                            <p style=""font-size:50px; font-weight:bold;""
                            >disgust</p>
                            <div style=""width:240px; margin: auto;"">
                                <img src=""images/map12_PuBuGn_scaleDef_orientMir_000.png"" style= ""width:200px""alt=""img"">
                            </div>
                        </div>","-194","","0","","","","images/map12_PuBuGn_scaleDef_orientMir_000.png","disgust","1","12","12","PuBuGn","orientMir","scaleDef","000","",""
"","","","","","html-slider-response","51","255088","0.0-45.0","vrd5pytpc9","58","NaN","<div style=""width:500px;"">
                            <p style=""font-size:50px; font-weight:bold;""
                            >disgust</p>
                            <div style=""width:240px; margin: auto;"">
                                <img src=""images/map13_BrBG_scaleDef_orientMir_180.png"" style= ""width:200px""alt=""img"">
                            </div>
                        </div>","37","","0","","","","images/map13_BrBG_scaleDef_orientMir_180.png","disgust","1","13","13","BrBG","orientMir","scaleDef","180","",""
"","","","","","html-slider-response","52","256859","0.0-46.0","vrd5pytpc9","58","NaN","<div style=""width:500px;"">
                            <p style=""font-size:50px; font-weight:bold;""
                            >disgust</p>
                            <div style=""width:240px; margin: auto;"">
                                <img src=""images/map02_Greys_scaleRev_orientMir_270.png"" style= ""width:200px""alt=""img"">
                            </div>
                        </div>","-195","","0","","","","images/map02_Greys_scaleRev_orientMir_270.png","disgust","1","02","02","Greys","orientMir","scaleRev","270","",""
"","","","","","html-slider-response","53","260765","0.0-47.0","vrd5pytpc9","58","NaN","<div style=""width:500px;"">
                            <p style=""font-size:50px; font-weight:bold;""
                            >disgust</p>
                            <div style=""width:240px; margin: auto;"">
                                <img src=""images/map26_managua_scaleDef_orientMir_000.png"" style= ""width:200px""alt=""img"">
                            </div>
                        </div>","-32","","0","","","","images/map26_managua_scaleDef_orientMir_000.png","disgust","1","26","26","managua","orientMir","scaleDef","000","",""
"","","","","","html-slider-response","54","263818","0.0-48.0","vrd5pytpc9","58","NaN","<div style=""width:500px;"">
                            <p style=""font-size:50px; font-weight:bold;""
                            >disgust</p>
                            <div style=""width:240px; margin: auto;"">
                                <img src=""images/map13_PRGn_scaleRev_orientMir_090.png"" style= ""width:200px""alt=""img"">
                            </div>
                        </div>","-6","","0","","","","images/map13_PRGn_scaleRev_orientMir_090.png","disgust","1","13","13","PRGn","orientMir","scaleRev","090","",""
"","","","","","html-slider-response","55","266129","0.0-49.0","vrd5pytpc9","58","NaN","<div style=""width:500px;"">
                            <p style=""font-size:50px; font-weight:bold;""
                            >disgust</p>
                            <div style=""width:240px; margin: auto;"">
                                <img src=""images/map12_PuBu_scaleRev_orientDef_090.png"" style= ""width:200px""alt=""img"">
                            </div>
                        </div>","-199","","0","","","","images/map12_PuBu_scaleRev_orientDef_090.png","disgust","1","12","12","PuBu","orientDef","scaleRev","090","",""
"","","","","","html-slider-response","56","268605","0.0-50.0","vrd5pytpc9","58","NaN","<div style=""width:500px;"">
                            <p style=""font-size:50px; font-weight:bold;""
                            >disgust</p>
                            <div style=""width:240px; margin: auto;"">
                                <img src=""images/map02_Greys_scaleDef_orientMir_180.png"" style= ""width:200px""alt=""img"">
                            </div>
                        </div>","-199","","0","","","","images/map02_Greys_scaleDef_orientMir_180.png","disgust","1","02","02","Greys","orientMir","scaleDef","180","",""
"","","","","","html-slider-response","57","273362","0.0-51.0","vrd5pytpc9","58","NaN","<div style=""width:500px;"">
                            <p style=""font-size:50px; font-weight:bold;""
                            >disgust</p>
                            <div style=""width:240px; margin: auto;"">
                                <img src=""images/map02_cividis_scaleRev_orientMir_090.png"" style= ""width:200px""alt=""img"">
                            </div>
                        </div>","1","","0","","","","images/map02_cividis_scaleRev_orientMir_090.png","disgust","1","02","02","cividis","orientMir","scaleRev","090","",""
"","","","","","html-slider-response","58","276558","0.0-52.0","vrd5pytpc9","58","NaN","<div style=""width:500px;"">
                            <p style=""font-size:50px; font-weight:bold;""
                            >disgust</p>
                            <div style=""width:240px; margin: auto;"">
                                <img src=""images/map07_Reds_scaleRev_orientDef_090.png"" style= ""width:200px""alt=""img"">
                            </div>
                        </div>","-28","","0","","","","images/map07_Reds_scaleRev_orientDef_090.png","disgust","1","07","07","Reds","orientDef","scaleRev","090","",""
"","","","","","html-slider-response","59","279439","0.0-53.0","vrd5pytpc9","58","NaN","<div style=""width:500px;"">
                            <p style=""font-size:50px; font-weight:bold;""
                            >disgust</p>
                            <div style=""width:240px; margin: auto;"">
                                <img src=""images/map27_plasma_scaleDef_orientMir_180.png"" style= ""width:200px""alt=""img"">
                            </div>
                        </div>","-29","","0","","","","images/map27_plasma_scaleDef_orientMir_180.png","disgust","1","27","27","plasma","orientMir","scaleDef","180","",""
"","","","","","html-button-response","60","281217","0.0-54.0","vrd5pytpc9","58","1262","<p>You are doing great!<br></br> You are halway done with the current block. When you are ready to continue, click the 'Continue' button.</p>","0","","","","","","","","","","","","","","","",""
"","","","","","html-slider-response","61","283673","0.0-55.0","vrd5pytpc9","58","NaN","<div style=""width:500px;"">
                            <p style=""font-size:50px; font-weight:bold;""
                            >disgust</p>
                            <div style=""width:240px; margin: auto;"">
                                <img src=""images/map26_vanimo_scaleDef_orientMir_180.png"" style= ""width:200px""alt=""img"">
                            </div>
                        </div>","50","","0","","","","images/map26_vanimo_scaleDef_orientMir_180.png","disgust","1","26","26","vanimo","orientMir","scaleDef","180","",""
"","","","","","html-slider-response","62","287034","0.0-56.0","vrd5pytpc9","58","NaN","<div style=""width:500px;"">
                            <p style=""font-size:50px; font-weight:bold;""
                            >disgust</p>
                            <div style=""width:240px; margin: auto;"">
                                <img src=""images/map26_managua_scaleRev_orientMir_090.png"" style= ""width:200px""alt=""img"">
                            </div>
                        </div>","-198","","0","","","","images/map26_managua_scaleRev_orientMir_090.png","disgust","1","26","26","managua","orientMir","scaleRev","090","",""
"","","","","","html-slider-response","63","290349","0.0-57.0","vrd5pytpc9","58","NaN","<div style=""width:500px;"">
                            <p style=""font-size:50px; font-weight:bold;""
                            >disgust</p>
                            <div style=""width:240px; margin: auto;"">
                                <img src=""images/map27_gist_earth_scaleRev_orientDef_090.png"" style= ""width:200px""alt=""img"">
                            </div>
                        </div>","-197","","0","","","","images/map27_gist_earth_scaleRev_orientDef_090.png","disgust","1","27","27","gist","scaleRev","earth","orientDef","",""
"","","","","","html-slider-response","64","293410","0.0-58.0","vrd5pytpc9","58","NaN","<div style=""width:500px;"">
                            <p style=""font-size:50px; font-weight:bold;""
                            >disgust</p>
                            <div style=""width:240px; margin: auto;"">
                                <img src=""images/map05_Oranges_scaleDef_orientMir_180.png"" style= ""width:200px""alt=""img"">
                            </div>
                        </div>","-197","","0","","","","images/map05_Oranges_scaleDef_orientMir_180.png","disgust","1","05","05","Oranges","orientMir","scaleDef","180","",""
"","","","","","html-slider-response","65","295609","0.0-59.0","vrd5pytpc9","58","NaN","<div style=""width:500px;"">
                            <p style=""font-size:50px; font-weight:bold;""
                            >disgust</p>
                            <div style=""width:240px; margin: auto;"">
                                <img src=""images/map27_viridis_scaleDef_orientMir_000.png"" style= ""width:200px""alt=""img"">
                            </div>
                        </div>","-198","","0","","","","images/map27_viridis_scaleDef_orientMir_000.png","disgust","1","27","27","viridis","orientMir","scaleDef","000","",""
"","","","","","html-slider-response","66","296779","0.0-60.0","vrd5pytpc9","58","NaN","<div style=""width:500px;"">
                            <p style=""font-size:50px; font-weight:bold;""
                            >disgust</p>
                            <div style=""width:240px; margin: auto;"">
                                <img src=""images/map13_YlGn_scaleRev_orientDef_090.png"" style= ""width:200px""alt=""img"">
                            </div>
                        </div>","-198","","0","","","","images/map13_YlGn_scaleRev_orientDef_090.png","disgust","1","13","13","YlGn","orientDef","scaleRev","090","",""
"","","","","","html-slider-response","67","297873","0.0-61.0","vrd5pytpc9","58","NaN","<div style=""width:500px;"">
                            <p style=""font-size:50px; font-weight:bold;""
                            >disgust</p>
                            <div style=""width:240px; margin: auto;"">
                                <img src=""images/map05_Blues_scaleDef_orientDef_180.png"" style= ""width:200px""alt=""img"">
                            </div>
                        </div>","-198","","0","","","","images/map05_Blues_scaleDef_orientDef_180.png","disgust","1","05","05","Blues","orientDef","scaleDef","180","",""
"","","","","","html-slider-response","68","301272","0.0-62.0","vrd5pytpc9","58","NaN","<div style=""width:500px;"">
                            <p style=""font-size:50px; font-weight:bold;""
                            >disgust</p>
                            <div style=""width:240px; margin: auto;"">
                                <img src=""images/map23_coolwarm_scaleDef_orientMir_000.png"" style= ""width:200px""alt=""img"">
                            </div>
                        </div>","14","","0","","","","images/map23_coolwarm_scaleDef_orientMir_000.png","disgust","1","23","23","coolwarm","orientMir","scaleDef","000","",""
"","","","","","html-slider-response","69","303724","0.0-63.0","vrd5pytpc9","58","NaN","<div style=""width:500px;"">
                            <p style=""font-size:50px; font-weight:bold;""
                            >disgust</p>
                            <div style=""width:240px; margin: auto;"">
                                <img src=""images/map27_gist_earth_scaleDef_orientDef_000.png"" style= ""width:200px""alt=""img"">
                            </div>
                        </div>","13","","0","","","","images/map27_gist_earth_scaleDef_orientDef_000.png","disgust","1","27","27","gist","scaleDef","earth","orientDef","",""
"","","","","","html-slider-response","70","305664","0.0-64.0","vrd5pytpc9","58","NaN","<div style=""width:500px;"">
                            <p style=""font-size:50px; font-weight:bold;""
                            >disgust</p>
                            <div style=""width:240px; margin: auto;"">
                                <img src=""images/map13_BrBG_scaleRev_orientMir_270.png"" style= ""width:200px""alt=""img"">
                            </div>
                        </div>","14","","0","","","","images/map13_BrBG_scaleRev_orientMir_270.png","disgust","1","13","13","BrBG","orientMir","scaleRev","270","",""
"","","","","","html-slider-response","71","308469","0.0-65.0","vrd5pytpc9","58","NaN","<div style=""width:500px;"">
                            <p style=""font-size:50px; font-weight:bold;""
                            >disgust</p>
                            <div style=""width:240px; margin: auto;"">
                                <img src=""images/map05_Oranges_scaleRev_orientMir_270.png"" style= ""width:200px""alt=""img"">
                            </div>
                        </div>","-18","","0","","","","images/map05_Oranges_scaleRev_orientMir_270.png","disgust","1","05","05","Oranges","orientMir","scaleRev","270","",""
"","","","","","html-slider-response","72","310670","0.0-66.0","vrd5pytpc9","58","NaN","<div style=""width:500px;"">
                            <p style=""font-size:50px; font-weight:bold;""
                            >disgust</p>
                            <div style=""width:240px; margin: auto;"">
                                <img src=""images/map07_OrRd_scaleDef_orientMir_180.png"" style= ""width:200px""alt=""img"">
                            </div>
                        </div>","58","","0","","","","images/map07_OrRd_scaleDef_orientMir_180.png","disgust","1","07","07","OrRd","orientMir","scaleDef","180","",""
"","","","","","html-slider-response","73","313394","0.0-67.0","vrd5pytpc9","58","NaN","<div style=""width:500px;"">
                            <p style=""font-size:50px; font-weight:bold;""
                            >disgust</p>
                            <div style=""width:240px; margin: auto;"">
                                <img src=""images/map05_Purples_scaleDef_orientDef_000.png"" style= ""width:200px""alt=""img"">
                            </div>
                        </div>","-200","","0","","","","images/map05_Purples_scaleDef_orientDef_000.png","disgust","1","05","05","Purples","orientDef","scaleDef","000","",""
"","","","","","html-slider-response","74","315624","0.0-68.0","vrd5pytpc9","58","NaN","<div style=""width:500px;"">
                            <p style=""font-size:50px; font-weight:bold;""
                            >disgust</p>
                            <div style=""width:240px; margin: auto;"">
                                <img src=""images/map13_PRGn_scaleDef_orientMir_000.png"" style= ""width:200px""alt=""img"">
                            </div>
                        </div>","21","","0","","","","images/map13_PRGn_scaleDef_orientMir_000.png","disgust","1","13","13","PRGn","orientMir","scaleDef","000","",""
"","","","","","html-slider-response","75","317427","0.0-69.0","vrd5pytpc9","58","NaN","<div style=""width:500px;"">
                            <p style=""font-size:50px; font-weight:bold;""
                            >disgust</p>
                            <div style=""width:240px; margin: auto;"">
                                <img src=""images/map02_magma_scaleRev_orientDef_270.png"" style= ""width:200px""alt=""img"">
                            </div>
                        </div>","44","","0","","","","images/map02_magma_scaleRev_orientDef_270.png","disgust","1","02","02","magma","orientDef","scaleRev","270","",""
"","","","","","html-slider-response","76","319329","0.0-70.0","vrd5pytpc9","58","NaN","<div style=""width:500px;"">
                            <p style=""font-size:50px; font-weight:bold;""
                            >disgust</p>
                            <div style=""width:240px; margin: auto;"">
                                <img src=""images/map05_Blues_scaleRev_orientDef_270.png"" style= ""width:200px""alt=""img"">
                            </div>
                        </div>","-196","","0","","","","images/map05_Blues_scaleRev_orientDef_270.png","disgust","1","05","05","Blues","orientDef","scaleRev","270","",""
"","","","","","html-slider-response","77","320856","0.0-71.0","vrd5pytpc9","58","NaN","<div style=""width:500px;"">
                            <p style=""font-size:50px; font-weight:bold;""
                            >disgust</p>
                            <div style=""width:240px; margin: auto;"">
                                <img src=""images/map02_inferno_scaleDef_orientDef_000.png"" style= ""width:200px""alt=""img"">
                            </div>
                        </div>","17","","0","","","","images/map02_inferno_scaleDef_orientDef_000.png","disgust","1","02","02","inferno","orientDef","scaleDef","000","",""
"","","","","","html-slider-response","78","322718","0.0-72.0","vrd5pytpc9","58","NaN","<div style=""width:500px;"">
                            <p style=""font-size:50px; font-weight:bold;""
                            >disgust</p>
                            <div style=""width:240px; margin: auto;"">
                                <img src=""images/map26_seismic_scaleRev_orientDef_090.png"" style= ""width:200px""alt=""img"">
                            </div>
                        </div>","42","","0","","","","images/map26_seismic_scaleRev_orientDef_090.png","disgust","1","26","26","seismic","orientDef","scaleRev","090","",""
"","","","","","html-slider-response","79","324654","0.0-73.0","vrd5pytpc9","58","NaN","<div style=""width:500px;"">
                            <p style=""font-size:50px; font-weight:bold;""
                            >disgust</p>
                            <div style=""width:240px; margin: auto;"">
                                <img src=""images/map12_YlGnBu_scaleRev_orientDef_270.png"" style= ""width:200px""alt=""img"">
                            </div>
                        </div>","-195","","0","","","","images/map12_YlGnBu_scaleRev_orientDef_270.png","disgust","1","12","12","YlGnBu","orientDef","scaleRev","270","",""
"","","","","","html-slider-response","80","325773","0.0-74.0","vrd5pytpc9","58","NaN","<div style=""width:500px;"">
                            <p style=""font-size:50px; font-weight:bold;""
                            >disgust</p>
                            <div style=""width:240px; margin: auto;"">
                                <img src=""images/map12_BuGn_scaleDef_orientMir_180.png"" style= ""width:200px""alt=""img"">
                            </div>
                        </div>","-195","","0","","","","images/map12_BuGn_scaleDef_orientMir_180.png","disgust","1","12","12","BuGn","orientMir","scaleDef","180","",""
"","","","","","html-slider-response","81","328701","0.0-75.0","vrd5pytpc9","58","NaN","<div style=""width:500px;"">
                            <p style=""font-size:50px; font-weight:bold;""
                            >disgust</p>
                            <div style=""width:240px; margin: auto;"">
                                <img src=""images/map27_plasma_scaleRev_orientMir_270.png"" style= ""width:200px""alt=""img"">
                            </div>
                        </div>","12","","0","","","","images/map27_plasma_scaleRev_orientMir_270.png","disgust","1","27","27","plasma","orientMir","scaleRev","270","",""
"","","","","","html-slider-response","82","330603","0.0-76.0","vrd5pytpc9","58","NaN","<div style=""width:500px;"">
                            <p style=""font-size:50px; font-weight:bold;""
                            >disgust</p>
                            <div style=""width:240px; margin: auto;"">
                                <img src=""images/map23_Spectral_scaleDef_orientDef_180.png"" style= ""width:200px""alt=""img"">
                            </div>
                        </div>","50","","0","","","","images/map23_Spectral_scaleDef_orientDef_180.png","disgust","1","23","23","Spectral","orientDef","scaleDef","180","",""
"","","","","","html-slider-response","83","332484","0.0-77.0","vrd5pytpc9","58","NaN","<div style=""width:500px;"">
                            <p style=""font-size:50px; font-weight:bold;""
                            >disgust</p>
                            <div style=""width:240px; margin: auto;"">
                                <img src=""images/map12_PuBuGn_scaleRev_orientMir_090.png"" style= ""width:200px""alt=""img"">
                            </div>
                        </div>","-195","","0","","","","images/map12_PuBuGn_scaleRev_orientMir_090.png","disgust","1","12","12","PuBuGn","orientMir","scaleRev","090","",""
"","","","","","html-slider-response","84","335160","0.0-78.0","vrd5pytpc9","58","NaN","<div style=""width:500px;"">
                            <p style=""font-size:50px; font-weight:bold;""
                            >disgust</p>
                            <div style=""width:240px; margin: auto;"">
                                <img src=""images/map27_viridis_scaleRev_orientMir_090.png"" style= ""width:200px""alt=""img"">
                            </div>
                        </div>","-196","","0","","","","images/map27_viridis_scaleRev_orientMir_090.png","disgust","1","27","27","viridis","orientMir","scaleRev","090","",""
"","","","","","html-slider-response","85","338977","0.0-79.0","vrd5pytpc9","58","NaN","<div style=""width:500px;"">
                            <p style=""font-size:50px; font-weight:bold;""
                            >disgust</p>
                            <div style=""width:240px; margin: auto;"">
                                <img src=""images/map23_bwr_scaleRev_orientMir_270.png"" style= ""width:200px""alt=""img"">
                            </div>
                        </div>","-10","","0","","","","images/map23_bwr_scaleRev_orientMir_270.png","disgust","1","23","23","bwr","orientMir","scaleRev","270","",""
"","","","","","html-slider-response","86","341489","0.0-80.0","vrd5pytpc9","58","NaN","<div style=""width:500px;"">
                            <p style=""font-size:50px; font-weight:bold;""
                            >disgust</p>
                            <div style=""width:240px; margin: auto;"">
                                <img src=""images/map15_RdBu_scaleDef_orientMir_000.png"" style= ""width:200px""alt=""img"">
                            </div>
                        </div>","-20","","0","","","","images/map15_RdBu_scaleDef_orientMir_000.png","disgust","1","15","15","RdBu","orientMir","scaleDef","000","",""
"","","","","","html-slider-response","87","343246","0.0-81.0","vrd5pytpc9","58","NaN","<div style=""width:500px;"">
                            <p style=""font-size:50px; font-weight:bold;""
                            >disgust</p>
                            <div style=""width:240px; margin: auto;"">
                                <img src=""images/map15_RdBu_scaleRev_orientMir_090.png"" style= ""width:200px""alt=""img"">
                            </div>
                        </div>","16","","0","","","","images/map15_RdBu_scaleRev_orientMir_090.png","disgust","1","15","15","RdBu","orientMir","scaleRev","090","",""
"","","","","","html-slider-response","88","345195","0.0-82.0","vrd5pytpc9","58","NaN","<div style=""width:500px;"">
                            <p style=""font-size:50px; font-weight:bold;""
                            >disgust</p>
                            <div style=""width:240px; margin: auto;"">
                                <img src=""images/map05_Greens_scaleRev_orientMir_090.png"" style= ""width:200px""alt=""img"">
                            </div>
                        </div>","-197","","0","","","","images/map05_Greens_scaleRev_orientMir_090.png","disgust","1","05","05","Greens","orientMir","scaleRev","090","",""
"","","","","","html-slider-response","89","346696","0.0-83.0","vrd5pytpc9","58","NaN","<div style=""width:500px;"">
                            <p style=""font-size:50px; font-weight:bold;""
                            >disgust</p>
                            <div style=""width:240px; margin: auto;"">
                                <img src=""images/map10_PuRd_scaleRev_orientDef_090.png"" style= ""width:200px""alt=""img"">
                            </div>
                        </div>","-194","","0","","","","images/map10_PuRd_scaleRev_orientDef_090.png","disgust","1","10","10","PuRd","orientDef","scaleRev","090","",""
"","","","","","html-slider-response","90","348700","0.0-84.0","vrd5pytpc9","58","NaN","<div style=""width:500px;"">
                            <p style=""font-size:50px; font-weight:bold;""
                            >disgust</p>
                            <div style=""width:240px; margin: auto;"">
                                <img src=""images/map23_Spectral_scaleRev_orientDef_270.png"" style= ""width:200px""alt=""img"">
                            </div>
                        </div>","46","","0","","","","images/map23_Spectral_scaleRev_orientDef_270.png","disgust","1","23","23","Spectral","orientDef","scaleRev","270","",""
"","","","","","html-slider-response","91","351002","0.0-85.0","vrd5pytpc9","58","NaN","<div style=""width:500px;"">
                            <p style=""font-size:50px; font-weight:bold;""
                            >disgust</p>
                            <div style=""width:240px; margin: auto;"">
                                <img src=""images/map07_YlOrBr_scaleDef_orientDef_180.png"" style= ""width:200px""alt=""img"">
                            </div>
                        </div>","61","","0","","","","images/map07_YlOrBr_scaleDef_orientDef_180.png","disgust","1","07","07","YlOrBr","orientDef","scaleDef","180","",""
"","","","","","html-slider-response","92","353180","0.0-86.0","vrd5pytpc9","58","NaN","<div style=""width:500px;"">
                            <p style=""font-size:50px; font-weight:bold;""
                            >disgust</p>
                            <div style=""width:240px; margin: auto;"">
                                <img src=""images/map10_GnBu_scaleRev_orientMir_270.png"" style= ""width:200px""alt=""img"">
                            </div>
                        </div>","-197","","0","","","","images/map10_GnBu_scaleRev_orientMir_270.png","disgust","1","10","10","GnBu","orientMir","scaleRev","270","",""
"","","","","","html-slider-response","93","355521","0.0-87.0","vrd5pytpc9","58","NaN","<div style=""width:500px;"">
                            <p style=""font-size:50px; font-weight:bold;""
                            >disgust</p>
                            <div style=""width:240px; margin: auto;"">
                                <img src=""images/map15_RdYlBu_scaleRev_orientMir_270.png"" style= ""width:200px""alt=""img"">
                            </div>
                        </div>","12","","0","","","","images/map15_RdYlBu_scaleRev_orientMir_270.png","disgust","1","15","15","RdYlBu","orientMir","scaleRev","270","",""
"","","","","","html-slider-response","94","357381","0.0-88.0","vrd5pytpc9","58","NaN","<div style=""width:500px;"">
                            <p style=""font-size:50px; font-weight:bold;""
                            >disgust</p>
                            <div style=""width:240px; margin: auto;"">
                                <img src=""images/map12_PuBu_scaleDef_orientDef_000.png"" style= ""width:200px""alt=""img"">
                            </div>
                        </div>","-195","","0","","","","images/map12_PuBu_scaleDef_orientDef_000.png","disgust","1","12","12","PuBu","orientDef","scaleDef","000","",""
"","","","","","html-slider-response","95","361123","0.0-89.0","vrd5pytpc9","58","NaN","<div style=""width:500px;"">
                            <p style=""font-size:50px; font-weight:bold;""
                            >disgust</p>
                            <div style=""width:240px; margin: auto;"">
                                <img src=""images/map10_PuRd_scaleDef_orientDef_000.png"" style= ""width:200px""alt=""img"">
                            </div>
                        </div>","-197","","0","","","","images/map10_PuRd_scaleDef_orientDef_000.png","disgust","1","10","10","PuRd","orientDef","scaleDef","000","",""
"","","","","","html-slider-response","96","363148","0.0-90.0","vrd5pytpc9","58","NaN","<div style=""width:500px;"">
                            <p style=""font-size:50px; font-weight:bold;""
                            >disgust</p>
                            <div style=""width:240px; margin: auto;"">
                                <img src=""images/map15_RdGy_scaleDef_orientDef_180.png"" style= ""width:200px""alt=""img"">
                            </div>
                        </div>","44","","0","","","","images/map15_RdGy_scaleDef_orientDef_180.png","disgust","1","15","15","RdGy","orientDef","scaleDef","180","",""
"","","","","","html-slider-response","97","365664","0.0-91.0","vrd5pytpc9","58","NaN","<div style=""width:500px;"">
                            <p style=""font-size:50px; font-weight:bold;""
                            >disgust</p>
                            <div style=""width:240px; margin: auto;"">
                                <img src=""images/map27_turbo_scaleRev_orientDef_270.png"" style= ""width:200px""alt=""img"">
                            </div>
                        </div>","200","","0","","","","images/map27_turbo_scaleRev_orientDef_270.png","disgust","1","27","27","turbo","orientDef","scaleRev","270","",""
"","","","","","html-slider-response","98","368110","0.0-92.0","vrd5pytpc9","58","NaN","<div style=""width:500px;"">
                            <p style=""font-size:50px; font-weight:bold;""
                            >disgust</p>
                            <div style=""width:240px; margin: auto;"">
                                <img src=""images/map10_RdPu_scaleDef_orientDef_180.png"" style= ""width:200px""alt=""img"">
                            </div>
                        </div>","-198","","0","","","","images/map10_RdPu_scaleDef_orientDef_180.png","disgust","1","10","10","RdPu","orientDef","scaleDef","180","",""
"","","","","","html-slider-response","99","370033","0.0-93.0","vrd5pytpc9","58","NaN","<div style=""width:500px;"">
                            <p style=""font-size:50px; font-weight:bold;""
                            >disgust</p>
                            <div style=""width:240px; margin: auto;"">
                                <img src=""images/map15_PuOr_scaleDef_orientDef_000.png"" style= ""width:200px""alt=""img"">
                            </div>
                        </div>","19","","0","","","","images/map15_PuOr_scaleDef_orientDef_000.png","disgust","1","15","15","PuOr","orientDef","scaleDef","000","",""
"","","","","","html-slider-response","100","372186","0.0-94.0","vrd5pytpc9","58","NaN","<div style=""width:500px;"">
                            <p style=""font-size:50px; font-weight:bold;""
                            >disgust</p>
                            <div style=""width:240px; margin: auto;"">
                                <img src=""images/map15_PuOr_scaleRev_orientDef_090.png"" style= ""width:200px""alt=""img"">
                            </div>
                        </div>","7","","0","","","","images/map15_PuOr_scaleRev_orientDef_090.png","disgust","1","15","15","PuOr","orientDef","scaleRev","090","",""
"","","","","","html-button-response","101","374386","0.0-95.0","vrd5pytpc9","58","1697","<p>Great Job! You've finished block 1.<br></br> You have 4 block(s) left to go.<br></br></p>","0","","","","","","","","","","","","","","","",""
"","","","","","html-button-response","102","375417","0.0-96.0","vrd5pytpc9","58","1031","<p>In this block of trials, you will be asked to rate how much you associate each map with:</p > <p style = 'font-size:150%; font-weight: bold'>angry</p><br></br>","0","","","","","","","","","","","","","","","",""
"","","","","","html-slider-response","103","410465","0.0-97.0","vrd5pytpc9","58","NaN","<div style=""width:500px;"">
                            <p style=""font-size:50px; font-weight:bold;""
                            >angry</p>
                            <div style=""width:240px; margin: auto;"">
                                <img src=""images/map05_Greens_scaleDef_orientMir_000.png"" style= ""width:200px""alt=""img"">
                            </div>
                        </div>","-196","","0","","","","images/map05_Greens_scaleDef_orientMir_000.png","angry","1","05","05","Greens","orientMir","scaleDef","000","",""
"","","","","","html-slider-response","104","413420","0.0-98.0","vrd5pytpc9","58","NaN","<div style=""width:500px;"">
                            <p style=""font-size:50px; font-weight:bold;""
                            >angry</p>
                            <div style=""width:240px; margin: auto;"">
                                <img src=""images/map23_bwr_scaleRev_orientMir_270.png"" style= ""width:200px""alt=""img"">
                            </div>
                        </div>","17","","0","","","","images/map23_bwr_scaleRev_orientMir_270.png","angry","1","23","23","bwr","orientMir","scaleRev","270","",""
"","","","","","html-slider-response","105","416736","0.0-99.0","vrd5pytpc9","58","NaN","<div style=""width:500px;"">
                            <p style=""font-size:50px; font-weight:bold;""
                            >angry</p>
                            <div style=""width:240px; margin: auto;"">
                                <img src=""images/map27_plasma_scaleRev_orientMir_270.png"" style= ""width:200px""alt=""img"">
                            </div>
                        </div>","-44","","0","","","","images/map27_plasma_scaleRev_orientMir_270.png","angry","1","27","27","plasma","orientMir","scaleRev","270","",""
"","","","","","html-slider-response","106","421434","0.0-100.0","vrd5pytpc9","58","NaN","<div style=""width:500px;"">
                            <p style=""font-size:50px; font-weight:bold;""
                            >angry</p>
                            <div style=""width:240px; margin: auto;"">
                                <img src=""images/map27_viridis_scaleDef_orientMir_000.png"" style= ""width:200px""alt=""img"">
                            </div>
                        </div>","-196","","0","","","","images/map27_viridis_scaleDef_orientMir_000.png","angry","1","27","27","viridis","orientMir","scaleDef","000","",""
"","","","","","html-slider-response","107","423047","0.0-101.0","vrd5pytpc9","58","NaN","<div style=""width:500px;"">
                            <p style=""font-size:50px; font-weight:bold;""
                            >angry</p>
                            <div style=""width:240px; margin: auto;"">
                                <img src=""images/map27_gist_earth_scaleDef_orientDef_000.png"" style= ""width:200px""alt=""img"">
                            </div>
                        </div>","-196","","0","","","","images/map27_gist_earth_scaleDef_orientDef_000.png","angry","1","27","27","gist","scaleDef","earth","orientDef","",""
"","","","","","html-slider-response","108","425753","0.0-102.0","vrd5pytpc9","58","NaN","<div style=""width:500px;"">
                            <p style=""font-size:50px; font-weight:bold;""
                            >angry</p>
                            <div style=""width:240px; margin: auto;"">
                                <img src=""images/map15_RdBu_scaleDef_orientMir_000.png"" style= ""width:200px""alt=""img"">
                            </div>
                        </div>","-196","","0","","","","images/map15_RdBu_scaleDef_orientMir_000.png","angry","1","15","15","RdBu","orientMir","scaleDef","000","",""
"","","","","","html-slider-response","109","426926","0.0-103.0","vrd5pytpc9","58","NaN","<div style=""width:500px;"">
                            <p style=""font-size:50px; font-weight:bold;""
                            >angry</p>
                            <div style=""width:240px; margin: auto;"">
                                <img src=""images/map10_GnBu_scaleDef_orientMir_180.png"" style= ""width:200px""alt=""img"">
                            </div>
                        </div>","-196","","0","","","","images/map10_GnBu_scaleDef_orientMir_180.png","angry","1","10","10","GnBu","orientMir","scaleDef","180","",""
"","","","","","html-slider-response","110","428037","0.0-104.0","vrd5pytpc9","58","NaN","<div style=""width:500px;"">
                            <p style=""font-size:50px; font-weight:bold;""
                            >angry</p>
                            <div style=""width:240px; margin: auto;"">
                                <img src=""images/map10_BuPu_scaleRev_orientMir_090.png"" style= ""width:200px""alt=""img"">
                            </div>
                        </div>","-196","","0","","","","images/map10_BuPu_scaleRev_orientMir_090.png","angry","1","10","10","BuPu","orientMir","scaleRev","090","",""
"","","","","","html-slider-response","111","432205","0.0-105.0","vrd5pytpc9","58","NaN","<div style=""width:500px;"">
                            <p style=""font-size:50px; font-weight:bold;""
                            >angry</p>
                            <div style=""width:240px; margin: auto;"">
                                <img src=""images/map13_BrBG_scaleDef_orientMir_180.png"" style= ""width:200px""alt=""img"">
                            </div>
                        </div>","45","","0","","","","images/map13_BrBG_scaleDef_orientMir_180.png","angry","1","13","13","BrBG","orientMir","scaleDef","180","",""
"","","","","","html-slider-response","112","435061","0.0-106.0","vrd5pytpc9","58","NaN","<div style=""width:500px;"">
                            <p style=""font-size:50px; font-weight:bold;""
                            >angry</p>
                            <div style=""width:240px; margin: auto;"">
                                <img src=""images/map27_plasma_scaleDef_orientMir_180.png"" style= ""width:200px""alt=""img"">
                            </div>
                        </div>","19","","0","","","","images/map27_plasma_scaleDef_orientMir_180.png","angry","1","27","27","plasma","orientMir","scaleDef","180","",""
"","","","","","html-slider-response","113","438061","0.0-107.0","vrd5pytpc9","58","NaN","<div style=""width:500px;"">
                            <p style=""font-size:50px; font-weight:bold;""
                            >angry</p>
                            <div style=""width:240px; margin: auto;"">
                                <img src=""images/map07_OrRd_scaleRev_orientMir_270.png"" style= ""width:200px""alt=""img"">
                            </div>
                        </div>","74","","0","","","","images/map07_OrRd_scaleRev_orientMir_270.png","angry","1","07","07","OrRd","orientMir","scaleRev","270","",""
"","","","","","html-slider-response","114","440994","0.0-108.0","vrd5pytpc9","58","NaN","<div style=""width:500px;"">
                            <p style=""font-size:50px; font-weight:bold;""
                            >angry</p>
                            <div style=""width:240px; margin: auto;"">
                                <img src=""images/map23_bwr_scaleDef_orientMir_180.png"" style= ""width:200px""alt=""img"">
                            </div>
                        </div>","-95","","0","","","","images/map23_bwr_scaleDef_orientMir_180.png","angry","1","23","23","bwr","orientMir","scaleDef","180","",""
"","","","","","html-slider-response","115","442726","0.0-109.0","vrd5pytpc9","58","NaN","<div style=""width:500px;"">
                            <p style=""font-size:50px; font-weight:bold;""
                            >angry</p>
                            <div style=""width:240px; margin: auto;"">
                                <img src=""images/map13_BrBG_scaleRev_orientMir_270.png"" style= ""width:200px""alt=""img"">
                            </div>
                        </div>","50","","0","","","","images/map13_BrBG_scaleRev_orientMir_270.png","angry","1","13","13","BrBG","orientMir","scaleRev","270","",""
"","","","","","html-slider-response","116","444536","0.0-110.0","vrd5pytpc9","58","NaN","<div style=""width:500px;"">
                            <p style=""font-size:50px; font-weight:bold;""
                            >angry</p>
                            <div style=""width:240px; margin: auto;"">
                                <img src=""images/map07_YlOrRd_scaleRev_orientMir_090.png"" style= ""width:200px""alt=""img"">
                            </div>
                        </div>","77","","0","","","","images/map07_YlOrRd_scaleRev_orientMir_090.png","angry","1","07","07","YlOrRd","orientMir","scaleRev","090","",""
"","","","","","html-slider-response","117","446469","0.0-111.0","vrd5pytpc9","58","NaN","<div style=""width:500px;"">
                            <p style=""font-size:50px; font-weight:bold;""
                            >angry</p>
                            <div style=""width:240px; margin: auto;"">
                                <img src=""images/map12_PuBuGn_scaleDef_orientMir_000.png"" style= ""width:200px""alt=""img"">
                            </div>
                        </div>","-198","","0","","","","images/map12_PuBuGn_scaleDef_orientMir_000.png","angry","1","12","12","PuBuGn","orientMir","scaleDef","000","",""
"","","","","","html-slider-response","118","448931","0.0-112.0","vrd5pytpc9","58","NaN","<div style=""width:500px;"">
                            <p style=""font-size:50px; font-weight:bold;""
                            >angry</p>
                            <div style=""width:240px; margin: auto;"">
                                <img src=""images/map23_Spectral_scaleRev_orientDef_270.png"" style= ""width:200px""alt=""img"">
                            </div>
                        </div>","198","","0","","","","images/map23_Spectral_scaleRev_orientDef_270.png","angry","1","23","23","Spectral","orientDef","scaleRev","270","",""
"","","","","","html-slider-response","119","452523","0.0-113.0","vrd5pytpc9","58","NaN","<div style=""width:500px;"">
                            <p style=""font-size:50px; font-weight:bold;""
                            >angry</p>
                            <div style=""width:240px; margin: auto;"">
                                <img src=""images/map07_Reds_scaleRev_orientDef_090.png"" style= ""width:200px""alt=""img"">
                            </div>
                        </div>","16","","0","","","","images/map07_Reds_scaleRev_orientDef_090.png","angry","1","07","07","Reds","orientDef","scaleRev","090","",""
"","","","","","html-slider-response","120","454136","0.0-114.0","vrd5pytpc9","58","NaN","<div style=""width:500px;"">
                            <p style=""font-size:50px; font-weight:bold;""
                            >angry</p>
                            <div style=""width:240px; margin: auto;"">
                                <img src=""images/map15_PuOr_scaleRev_orientDef_090.png"" style= ""width:200px""alt=""img"">
                            </div>
                        </div>","35","","0","","","","images/map15_PuOr_scaleRev_orientDef_090.png","angry","1","15","15","PuOr","orientDef","scaleRev","090","",""
"","","","","","html-slider-response","121","456167","0.0-115.0","vrd5pytpc9","58","NaN","<div style=""width:500px;"">
                            <p style=""font-size:50px; font-weight:bold;""
                            >angry</p>
                            <div style=""width:240px; margin: auto;"">
                                <img src=""images/map10_RdPu_scaleDef_orientDef_180.png"" style= ""width:200px""alt=""img"">
                            </div>
                        </div>","-198","","0","","","","images/map10_RdPu_scaleDef_orientDef_180.png","angry","1","10","10","RdPu","orientDef","scaleDef","180","",""
"","","","","","html-slider-response","122","458178","0.0-116.0","vrd5pytpc9","58","NaN","<div style=""width:500px;"">
                            <p style=""font-size:50px; font-weight:bold;""
                            >angry</p>
                            <div style=""width:240px; margin: auto;"">
                                <img src=""images/map10_RdPu_scaleRev_orientDef_270.png"" style= ""width:200px""alt=""img"">
                            </div>
                        </div>","-198","","0","","","","images/map10_RdPu_scaleRev_orientDef_270.png","angry","1","10","10","RdPu","orientDef","scaleRev","270","",""
"","","","","","html-slider-response","123","459925","0.0-117.0","vrd5pytpc9","58","NaN","<div style=""width:500px;"">
                            <p style=""font-size:50px; font-weight:bold;""
                            >angry</p>
                            <div style=""width:240px; margin: auto;"">
                                <img src=""images/map02_inferno_scaleDef_orientDef_000.png"" style= ""width:200px""alt=""img"">
                            </div>
                        </div>","62","","0","","","","images/map02_inferno_scaleDef_orientDef_000.png","angry","1","02","02","inferno","orientDef","scaleDef","000","",""
"","","","","","html-slider-response","124","461677","0.0-118.0","vrd5pytpc9","58","NaN","<div style=""width:500px;"">
                            <p style=""font-size:50px; font-weight:bold;""
                            >angry</p>
                            <div style=""width:240px; margin: auto;"">
                                <img src=""images/map12_YlGnBu_scaleDef_orientDef_180.png"" style= ""width:200px""alt=""img"">
                            </div>
                        </div>","-195","","0","","","","images/map12_YlGnBu_scaleDef_orientDef_180.png","angry","1","12","12","YlGnBu","orientDef","scaleDef","180","",""
"","","","","","html-slider-response","125","463473","0.0-119.0","vrd5pytpc9","58","NaN","<div style=""width:500px;"">
                            <p style=""font-size:50px; font-weight:bold;""
                            >angry</p>
                            <div style=""width:240px; margin: auto;"">
                                <img src=""images/map05_Purples_scaleRev_orientDef_090.png"" style= ""width:200px""alt=""img"">
                            </div>
                        </div>","-195","","0","","","","images/map05_Purples_scaleRev_orientDef_090.png","angry","1","05","05","Purples","orientDef","scaleRev","090","",""
"","","","","","html-slider-response","126","465873","0.0-120.0","vrd5pytpc9","58","NaN","<div style=""width:500px;"">
                            <p style=""font-size:50px; font-weight:bold;""
                            >angry</p>
                            <div style=""width:240px; margin: auto;"">
                                <img src=""images/map02_cividis_scaleDef_orientMir_000.png"" style= ""width:200px""alt=""img"">
                            </div>
                        </div>","10","","0","","","","images/map02_cividis_scaleDef_orientMir_000.png","angry","1","02","02","cividis","orientMir","scaleDef","000","",""
"","","","","","html-slider-response","127","467930","0.0-121.0","vrd5pytpc9","58","NaN","<div style=""width:500px;"">
                            <p style=""font-size:50px; font-weight:bold;""
                            >angry</p>
                            <div style=""width:240px; margin: auto;"">
                                <img src=""images/map02_Greys_scaleDef_orientMir_180.png"" style= ""width:200px""alt=""img"">
                            </div>
                        </div>","-198","","0","","","","images/map02_Greys_scaleDef_orientMir_180.png","angry","1","02","02","Greys","orientMir","scaleDef","180","",""
"","","","","","html-slider-response","128","471664","0.0-122.0","vrd5pytpc9","58","NaN","<div style=""width:500px;"">
                            <p style=""font-size:50px; font-weight:bold;""
                            >angry</p>
                            <div style=""width:240px; margin: auto;"">
                                <img src=""images/map27_turbo_scaleDef_orientDef_180.png"" style= ""width:200px""alt=""img"">
                            </div>
                        </div>","198","","0","","","","images/map27_turbo_scaleDef_orientDef_180.png","angry","1","27","27","turbo","orientDef","scaleDef","180","",""
"","","","","","html-slider-response","129","474883","0.0-123.0","vrd5pytpc9","58","NaN","<div style=""width:500px;"">
                            <p style=""font-size:50px; font-weight:bold;""
                            >angry</p>
                            <div style=""width:240px; margin: auto;"">
                                <img src=""images/map05_Oranges_scaleRev_orientMir_270.png"" style= ""width:200px""alt=""img"">
                            </div>
                        </div>","-97","","0","","","","images/map05_Oranges_scaleRev_orientMir_270.png","angry","1","05","05","Oranges","orientMir","scaleRev","270","",""
"","","","","","html-slider-response","130","476730","0.0-124.0","vrd5pytpc9","58","NaN","<div style=""width:500px;"">
                            <p style=""font-size:50px; font-weight:bold;""
                            >angry</p>
                            <div style=""width:240px; margin: auto;"">
                                <img src=""images/map27_viridis_scaleRev_orientMir_090.png"" style= ""width:200px""alt=""img"">
                            </div>
                        </div>","-176","","0","","","","images/map27_viridis_scaleRev_orientMir_090.png","angry","1","27","27","viridis","orientMir","scaleRev","090","",""
"","","","","","html-slider-response","131","479942","0.0-125.0","vrd5pytpc9","58","NaN","<div style=""width:500px;"">
                            <p style=""font-size:50px; font-weight:bold;""
                            >angry</p>
                            <div style=""width:240px; margin: auto;"">
                                <img src=""images/map13_PiYG_scaleDef_orientDef_180.png"" style= ""width:200px""alt=""img"">
                            </div>
                        </div>","-13","","0","","","","images/map13_PiYG_scaleDef_orientDef_180.png","angry","1","13","13","PiYG","orientDef","scaleDef","180","",""
"","","","","","html-slider-response","132","481611","0.0-126.0","vrd5pytpc9","58","NaN","<div style=""width:500px;"">
                            <p style=""font-size:50px; font-weight:bold;""
                            >angry</p>
                            <div style=""width:240px; margin: auto;"">
                                <img src=""images/map05_Purples_scaleDef_orientDef_000.png"" style= ""width:200px""alt=""img"">
                            </div>
                        </div>","-194","","0","","","","images/map05_Purples_scaleDef_orientDef_000.png","angry","1","05","05","Purples","orientDef","scaleDef","000","",""
"","","","","","html-slider-response","133","483631","0.0-127.0","vrd5pytpc9","58","NaN","<div style=""width:500px;"">
                            <p style=""font-size:50px; font-weight:bold;""
                            >angry</p>
                            <div style=""width:240px; margin: auto;"">
                                <img src=""images/map13_PiYG_scaleRev_orientDef_270.png"" style= ""width:200px""alt=""img"">
                            </div>
                        </div>","-12","","0","","","","images/map13_PiYG_scaleRev_orientDef_270.png","angry","1","13","13","PiYG","orientDef","scaleRev","270","",""
"","","","","","html-slider-response","134","485584","0.0-128.0","vrd5pytpc9","58","NaN","<div style=""width:500px;"">
                            <p style=""font-size:50px; font-weight:bold;""
                            >angry</p>
                            <div style=""width:240px; margin: auto;"">
                                <img src=""images/map10_GnBu_scaleRev_orientMir_270.png"" style= ""width:200px""alt=""img"">
                            </div>
                        </div>","-198","","0","","","","images/map10_GnBu_scaleRev_orientMir_270.png","angry","1","10","10","GnBu","orientMir","scaleRev","270","",""
"","","","","","html-slider-response","135","489438","0.0-129.0","vrd5pytpc9","58","NaN","<div style=""width:500px;"">
                            <p style=""font-size:50px; font-weight:bold;""
                            >angry</p>
                            <div style=""width:240px; margin: auto;"">
                                <img src=""images/map26_seismic_scaleDef_orientDef_000.png"" style= ""width:200px""alt=""img"">
                            </div>
                        </div>","10","","0","","","","images/map26_seismic_scaleDef_orientDef_000.png","angry","1","26","26","seismic","orientDef","scaleDef","000","",""
"","","","","","html-slider-response","136","491194","0.0-130.0","vrd5pytpc9","58","NaN","<div style=""width:500px;"">
                            <p style=""font-size:50px; font-weight:bold;""
                            >angry</p>
                            <div style=""width:240px; margin: auto;"">
                                <img src=""images/map12_BuGn_scaleDef_orientMir_180.png"" style= ""width:200px""alt=""img"">
                            </div>
                        </div>","-194","","0","","","","images/map12_BuGn_scaleDef_orientMir_180.png","angry","1","12","12","BuGn","orientMir","scaleDef","180","",""
"","","","","","html-slider-response","137","495223","0.0-131.0","vrd5pytpc9","58","NaN","<div style=""width:500px;"">
                            <p style=""font-size:50px; font-weight:bold;""
                            >angry</p>
                            <div style=""width:240px; margin: auto;"">
                                <img src=""images/map26_vanimo_scaleDef_orientMir_180.png"" style= ""width:200px""alt=""img"">
                            </div>
                        </div>","106","","0","","","","images/map26_vanimo_scaleDef_orientMir_180.png","angry","1","26","26","vanimo","orientMir","scaleDef","180","",""
"","","","","","html-slider-response","138","497331","0.0-132.0","vrd5pytpc9","58","NaN","<div style=""width:500px;"">
                            <p style=""font-size:50px; font-weight:bold;""
                            >angry</p>
                            <div style=""width:240px; margin: auto;"">
                                <img src=""images/map10_PuRd_scaleRev_orientDef_090.png"" style= ""width:200px""alt=""img"">
                            </div>
                        </div>","-195","","0","","","","images/map10_PuRd_scaleRev_orientDef_090.png","angry","1","10","10","PuRd","orientDef","scaleRev","090","",""
"","","","","","html-slider-response","139","499717","0.0-133.0","vrd5pytpc9","58","NaN","<div style=""width:500px;"">
                            <p style=""font-size:50px; font-weight:bold;""
                            >angry</p>
                            <div style=""width:240px; margin: auto;"">
                                <img src=""images/map07_YlOrRd_scaleDef_orientMir_000.png"" style= ""width:200px""alt=""img"">
                            </div>
                        </div>","77","","0","","","","images/map07_YlOrRd_scaleDef_orientMir_000.png","angry","1","07","07","YlOrRd","orientMir","scaleDef","000","",""
"","","","","","html-slider-response","140","501862","0.0-134.0","vrd5pytpc9","58","NaN","<div style=""width:500px;"">
                            <p style=""font-size:50px; font-weight:bold;""
                            >angry</p>
                            <div style=""width:240px; margin: auto;"">
                                <img src=""images/map13_YlGn_scaleDef_orientDef_000.png"" style= ""width:200px""alt=""img"">
                            </div>
                        </div>","-194","","0","","","","images/map13_YlGn_scaleDef_orientDef_000.png","angry","1","13","13","YlGn","orientDef","scaleDef","000","",""
"","","","","","html-slider-response","141","504210","0.0-135.0","vrd5pytpc9","58","NaN","<div style=""width:500px;"">
                            <p style=""font-size:50px; font-weight:bold;""
                            >angry</p>
                            <div style=""width:240px; margin: auto;"">
                                <img src=""images/map02_magma_scaleRev_orientDef_270.png"" style= ""width:200px""alt=""img"">
                            </div>
                        </div>","66","","0","","","","images/map02_magma_scaleRev_orientDef_270.png","angry","1","02","02","magma","orientDef","scaleRev","270","",""
"","","","","","html-slider-response","142","506284","0.0-136.0","vrd5pytpc9","58","NaN","<div style=""width:500px;"">
                            <p style=""font-size:50px; font-weight:bold;""
                            >angry</p>
                            <div style=""width:240px; margin: auto;"">
                                <img src=""images/map10_PuRd_scaleDef_orientDef_000.png"" style= ""width:200px""alt=""img"">
                            </div>
                        </div>","-198","","0","","","","images/map10_PuRd_scaleDef_orientDef_000.png","angry","1","10","10","PuRd","orientDef","scaleDef","000","",""
"","","","","","html-button-response","143","508138","0.0-137.0","vrd5pytpc9","58","1352","<p>You are doing great!<br></br> You are halway done with the current block. When you are ready to continue, click the 'Continue' button.</p>","0","","","","","","","","","","","","","","","",""
"","","","","","html-slider-response","144","509868","0.0-138.0","vrd5pytpc9","58","NaN","<div style=""width:500px;"">
                            <p style=""font-size:50px; font-weight:bold;""
                            >angry</p>
                            <div style=""width:240px; margin: auto;"">
                                <img src=""images/map10_BuPu_scaleDef_orientMir_000.png"" style= ""width:200px""alt=""img"">
                            </div>
                        </div>","-196","","0","","","","images/map10_BuPu_scaleDef_orientMir_000.png","angry","1","10","10","BuPu","orientMir","scaleDef","000","",""
"","","","","","html-slider-response","145","513677","0.0-139.0","vrd5pytpc9","58","NaN","<div style=""width:500px;"">
                            <p style=""font-size:50px; font-weight:bold;""
                            >angry</p>
                            <div style=""width:240px; margin: auto;"">
                                <img src=""images/map02_Greys_scaleRev_orientMir_270.png"" style= ""width:200px""alt=""img"">
                            </div>
                        </div>","-197","","0","","","","images/map02_Greys_scaleRev_orientMir_270.png","angry","1","02","02","Greys","orientMir","scaleRev","270","",""
"","","","","","html-slider-response","146","515509","0.0-140.0","vrd5pytpc9","58","NaN","<div style=""width:500px;"">
                            <p style=""font-size:50px; font-weight:bold;""
                            >angry</p>
                            <div style=""width:240px; margin: auto;"">
                                <img src=""images/map07_YlOrBr_scaleDef_orientDef_180.png"" style= ""width:200px""alt=""img"">
                            </div>
                        </div>","83","","0","","","","images/map07_YlOrBr_scaleDef_orientDef_180.png","angry","1","07","07","YlOrBr","orientDef","scaleDef","180","",""
"","","","","","html-slider-response","147","517553","0.0-141.0","vrd5pytpc9","58","NaN","<div style=""width:500px;"">
                            <p style=""font-size:50px; font-weight:bold;""
                            >angry</p>
                            <div style=""width:240px; margin: auto;"">
                                <img src=""images/map02_cividis_scaleRev_orientMir_090.png"" style= ""width:200px""alt=""img"">
                            </div>
                        </div>","19","","0","","","","images/map02_cividis_scaleRev_orientMir_090.png","angry","1","02","02","cividis","orientMir","scaleRev","090","",""
"","","","","","html-slider-response","148","519272","0.0-142.0","vrd5pytpc9","58","NaN","<div style=""width:500px;"">
                            <p style=""font-size:50px; font-weight:bold;""
                            >angry</p>
                            <div style=""width:240px; margin: auto;"">
                                <img src=""images/map15_RdYlBu_scaleDef_orientMir_180.png"" style= ""width:200px""alt=""img"">
                            </div>
                        </div>","13","","0","","","","images/map15_RdYlBu_scaleDef_orientMir_180.png","angry","1","15","15","RdYlBu","orientMir","scaleDef","180","",""
"","","","","","html-slider-response","149","520901","0.0-143.0","vrd5pytpc9","58","NaN","<div style=""width:500px;"">
                            <p style=""font-size:50px; font-weight:bold;""
                            >angry</p>
                            <div style=""width:240px; margin: auto;"">
                                <img src=""images/map23_Spectral_scaleDef_orientDef_180.png"" style= ""width:200px""alt=""img"">
                            </div>
                        </div>","10","","0","","","","images/map23_Spectral_scaleDef_orientDef_180.png","angry","1","23","23","Spectral","orientDef","scaleDef","180","",""
"","","","","","html-slider-response","150","522858","0.0-144.0","vrd5pytpc9","58","NaN","<div style=""width:500px;"">
                            <p style=""font-size:50px; font-weight:bold;""
                            >angry</p>
                            <div style=""width:240px; margin: auto;"">
                                <img src=""images/map26_berlin_scaleDef_orientDef_180.png"" style= ""width:200px""alt=""img"">
                            </div>
                        </div>","-47","","0","","","","images/map26_berlin_scaleDef_orientDef_180.png","angry","1","26","26","berlin","orientDef","scaleDef","180","",""
"","","","","","html-slider-response","151","524021","0.0-145.0","vrd5pytpc9","58","NaN","<div style=""width:500px;"">
                            <p style=""font-size:50px; font-weight:bold;""
                            >angry</p>
                            <div style=""width:240px; margin: auto;"">
                                <img src=""images/map15_RdGy_scaleRev_orientDef_270.png"" style= ""width:200px""alt=""img"">
                            </div>
                        </div>","12","","0","","","","images/map15_RdGy_scaleRev_orientDef_270.png","angry","1","15","15","RdGy","orientDef","scaleRev","270","",""
"","","","","","html-slider-response","152","525561","0.0-146.0","vrd5pytpc9","58","NaN","<div style=""width:500px;"">
                            <p style=""font-size:50px; font-weight:bold;""
                            >angry</p>
                            <div style=""width:240px; margin: auto;"">
                                <img src=""images/map15_RdBu_scaleRev_orientMir_090.png"" style= ""width:200px""alt=""img"">
                            </div>
                        </div>","10","","0","","","","images/map15_RdBu_scaleRev_orientMir_090.png","angry","1","15","15","RdBu","orientMir","scaleRev","090","",""
"","","","","","html-slider-response","153","527503","0.0-147.0","vrd5pytpc9","58","NaN","<div style=""width:500px;"">
                            <p style=""font-size:50px; font-weight:bold;""
                            >angry</p>
                            <div style=""width:240px; margin: auto;"">
                                <img src=""images/map12_PuBuGn_scaleRev_orientMir_090.png"" style= ""width:200px""alt=""img"">
                            </div>
                        </div>","-192","","0","","","","images/map12_PuBuGn_scaleRev_orientMir_090.png","angry","1","12","12","PuBuGn","orientMir","scaleRev","090","",""
"","","","","","html-slider-response","154","530361","0.0-148.0","vrd5pytpc9","58","NaN","<div style=""width:500px;"">
                            <p style=""font-size:50px; font-weight:bold;""
                            >angry</p>
                            <div style=""width:240px; margin: auto;"">
                                <img src=""images/map23_RdYlGn_scaleRev_orientDef_090.png"" style= ""width:200px""alt=""img"">
                            </div>
                        </div>","194","","0","","","","images/map23_RdYlGn_scaleRev_orientDef_090.png","angry","1","23","23","RdYlGn","orientDef","scaleRev","090","",""
"","","","","","html-slider-response","155","532001","0.0-149.0","vrd5pytpc9","58","NaN","<div style=""width:500px;"">
                            <p style=""font-size:50px; font-weight:bold;""
                            >angry</p>
                            <div style=""width:240px; margin: auto;"">
                                <img src=""images/map07_Reds_scaleDef_orientDef_000.png"" style= ""width:200px""alt=""img"">
                            </div>
                        </div>","24","","0","","","","images/map07_Reds_scaleDef_orientDef_000.png","angry","1","07","07","Reds","orientDef","scaleDef","000","",""
"","","","","","html-slider-response","156","533534","0.0-150.0","vrd5pytpc9","58","NaN","<div style=""width:500px;"">
                            <p style=""font-size:50px; font-weight:bold;""
                            >angry</p>
                            <div style=""width:240px; margin: auto;"">
                                <img src=""images/map26_berlin_scaleRev_orientDef_270.png"" style= ""width:200px""alt=""img"">
                            </div>
                        </div>","32","","0","","","","images/map26_berlin_scaleRev_orientDef_270.png","angry","1","26","26","berlin","orientDef","scaleRev","270","",""
"","","","","","html-slider-response","157","534984","0.0-151.0","vrd5pytpc9","58","NaN","<div style=""width:500px;"">
                            <p style=""font-size:50px; font-weight:bold;""
                            >angry</p>
                            <div style=""width:240px; margin: auto;"">
                                <img src=""images/map07_OrRd_scaleDef_orientMir_180.png"" style= ""width:200px""alt=""img"">
                            </div>
                        </div>","52","","0","","","","images/map07_OrRd_scaleDef_orientMir_180.png","angry","1","07","07","OrRd","orientMir","scaleDef","180","",""
"","","","","","html-slider-response","158","537114","0.0-152.0","vrd5pytpc9","58","NaN","<div style=""width:500px;"">
                            <p style=""font-size:50px; font-weight:bold;""
                            >angry</p>
                            <div style=""width:240px; margin: auto;"">
