"success","timeout","failed_images","failed_audio","failed_video","trial_type","trial_index","time_elapsed","internal_node_id","subject_id","condition_num","rt","stimulus","response","question_order","slider_start","practiceTrial","practiceTrialNum","correct","image_path","concept","repetition","map_id","map_num","scale_name","orientation_code","mapping_code","rotation_code","ishihara_plate","correct_response"
"true","false","[]","[]","[]","preload","0","532","0.0-0.0","xlp9kbj07y","5","","","","","","","","","","","","","","","","","","",""
"","","","","","html-button-response","1","5890","0.0-1.0","xlp9kbj07y","5","5356","Welcome to our experiment!<p>At the bottom of this screen, you will see a button that says ""Begin Experiment"".<br>Please only click that button when you are ready to complete the 30 minute experiment in one sitting.</p><p> Once you click that button, it will not be possible to restart the experiment.","0","","","","","","","","","","","","","","","",""
"true","","","","","fullscreen","2","10513","0.0-2.0","xlp9kbj07y","5","3617","","","","","","","","","","","","","","","","","",""
"","","","","","survey-multi-select","3","15944","0.0-3.0","xlp9kbj07y","5","5428","","{""Consent"":[""<strong>I consent</strong>""]}","[0]","","","","","","","","","","","","","","",""
"","","","","","html-button-response","4","17190","0.0-4.0","xlp9kbj07y","5","1244","Welcome! <p> This experiment involves two parts: demographic information, followed by the experimental task.<p> It will take about 30 minutes to complete both parts.","0","","","","","","","","","","","","","","","",""
"","","","","","survey-text","5","29124","0.0-5.0","xlp9kbj07y","5","11920","","{""Age"":""18"",""Gender"":""female"",""Race/ethnicity"":""while"",""Languages"":""English, Spanish, greek""}","","","","","","","","","","","","","","","",""
"","","","","","html-slider-response","6","94540","0.0-6.0","xlp9kbj07y","5","65413","<div style='text-align:left; font-size:20px; line-height:25px; width: 1000px;'>
                                During this experiment you will be asked to rate how much you associate maps with                    different concepts.<br> Below, you can see some examples of the maps you will be asked to rate. Above the maps
                    is the list of concepts.<br>You will be asked                    to rate how much you associate each map with each concept on a scale from 'not at all' to 'very much' like the
                    one below. <br><br>
                    Now, please look at the list of concepts and maps. For each concept, think about the map you associate 'very
                    much' with the concept.<br>                     When you see that map during the experiment, please rate it near the 'very much' endpoint of the
                    scale.<br>Now, please think about which map you associate 'not at all'                     with each concept. When you see that map during the experiment, please rate it near the 'not at all' endpoint
                    of the scale.<br>
                    Please use the full range of the scale. That is, if a map is somewhat associated with the concept, you would
                    click partway between the middle point and right side of the scale.                    You will be asked to rate each map for a given concept before moving on to the next concept.<br>Press the
                    'Continue' button for instructions on how to use the slider.                    <br>
                </div>

                <div style=""width: 500px; margin: 0 auto;"">
                    <!-- Centered text paragraphs -->
                    <div style=""text-align: center; width: 500px;"">
                        <p style=""font-size:25px; line-height:15px;"">
                            sad&nbsp;&nbsp;&nbsp;&nbsp;
                            angry&nbsp;&nbsp;&nbsp;&nbsp;
                            fearful&nbsp;&nbsp;&nbsp;&nbsp;
                            disgust&nbsp;&nbsp;&nbsp;&nbsp;
                            happy
                        </p>
                        <!-- <p style=""font-size:20px; line-height:15px;"">angry</p>
                        <p style=""font-size:20px;line-height:15px;"">fearful</p>
                        <p style=""font-size:20px;line-height:15px;"">disgust</p>
                        <p style=""font-size:20px;line-height:15px;"">happy</p> -->
                    </div>
            

                    <!-- Grid section -->
                   <div style=""display: flex; justify-content: center; padding-top: 15px;"">
                    <div style=""display: grid; grid-template-columns: repeat(10, 55px); grid-gap: 5px; width: auto;"">
                        <img src=""images/map07_Blues_scaleDef_orientDef_270.png"" alt=""map"" style=""width: 100%;""><img src=""images/map07_Purples_scaleDef_orientDef_090.png"" alt=""map"" style=""width: 100%;""><img src=""images/map13_PuBu_scaleRev_orientDef_180.png"" alt=""map"" style=""width: 100%;""><img src=""images/map23_RdBu_scaleDef_orientMir_090.png"" alt=""map"" style=""width: 100%;""><img src=""images/map02_gist_earth_scaleRev_orientDef_180.png"" alt=""map"" style=""width: 100%;""><img src=""images/map27_seismic_scaleRev_orientDef_180.png"" alt=""map"" style=""width: 100%;""><img src=""images/map26_RdYlGn_scaleDef_orientDef_090.png"" alt=""map"" style=""width: 100%;""><img src=""images/map10_YlOrRd_scaleDef_orientMir_090.png"" alt=""map"" style=""width: 100%;""><img src=""images/map10_YlOrBr_scaleDef_orientDef_270.png"" alt=""map"" style=""width: 100%;""><img src=""images/map02_vanimo_scaleRev_orientDef_000.png"" alt=""map"" style=""width: 100%;""><img src=""images/map12_GnBu_scaleDef_orientMir_270.png"" alt=""map"" style=""width: 100%;""><img src=""images/map15_BuGn_scaleRev_orientDef_000.png"" alt=""map"" style=""width: 100%;""><img src=""images/map12_PuRd_scaleRev_orientDef_180.png"" alt=""map"" style=""width: 100%;""><img src=""images/map12_OrRd_scaleRev_orientDef_000.png"" alt=""map"" style=""width: 100%;""><img src=""images/map26_Spectral_scaleRev_orientMir_000.png"" alt=""map"" style=""width: 100%;""><img src=""images/map05_inferno_scaleRev_orientDef_180.png"" alt=""map"" style=""width: 100%;""><img src=""images/map26_RdYlBu_scaleRev_orientDef_000.png"" alt=""map"" style=""width: 100%;""><img src=""images/map13_YlGnBu_scaleDef_orientDef_270.png"" alt=""map"" style=""width: 100%;""><img src=""images/map26_bwr_scaleDef_orientMir_270.png"" alt=""map"" style=""width: 100%;""><img src=""images/map13_PuBuGn_scaleDef_orientMir_090.png"" alt=""map"" style=""width: 100%;""><img src=""images/map23_PuOr_scaleRev_orientDef_180.png"" alt=""map"" style=""width: 100%;""><img src=""images/map15_PRGn_scaleDef_orientMir_090.png"" alt=""map"" style=""width: 100%;""><img src=""images/map15_PiYG_scaleRev_orientMir_000.png"" alt=""map"" style=""width: 100%;""><img src=""images/map07_Greens_scaleDef_orientMir_090.png"" alt=""map"" style=""width: 100%;""><img src=""images/map05_plasma_scaleRev_orientDef_000.png"" alt=""map"" style=""width: 100%;""><img src=""images/map07_Greys_scaleRev_orientDef_000.png"" alt=""map"" style=""width: 100%;""><img src=""images/map02_turbo_scaleDef_orientDef_270.png"" alt=""map"" style=""width: 100%;""><img src=""images/map12_RdPu_scaleDef_orientDef_270.png"" alt=""map"" style=""width: 100%;""><img src=""images/map15_YlGn_scaleDef_orientDef_090.png"" alt=""map"" style=""width: 100%;""><img src=""images/map10_Reds_scaleRev_orientDef_180.png"" alt=""map"" style=""width: 100%;""><img src=""images/map02_viridis_scaleRev_orientMir_180.png"" alt=""map"" style=""width: 100%;""><img src=""images/map27_managua_scaleRev_orientMir_180.png"" alt=""map"" style=""width: 100%;""><img src=""images/map05_cividis_scaleRev_orientMir_180.png"" alt=""map"" style=""width: 100%;""><img src=""images/map23_RdGy_scaleDef_orientDef_270.png"" alt=""map"" style=""width: 100%;""><img src=""images/map12_BuPu_scaleRev_orientMir_180.png"" alt=""map"" style=""width: 100%;""><img src=""images/map26_coolwarm_scaleDef_orientMir_090.png"" alt=""map"" style=""width: 100%;""><img src=""images/map23_BrBG_scaleRev_orientDef_000.png"" alt=""map"" style=""width: 100%;""><img src=""images/map07_Oranges_scaleDef_orientMir_270.png"" alt=""map"" style=""width: 100%;""><img src=""images/map27_berlin_scaleDef_orientDef_270.png"" alt=""map"" style=""width: 100%;""><img src=""images/map05_magma_scaleRev_orientMir_000.png"" alt=""map"" style=""width: 100%;"">
                    </div>
                </div>

                    <!-- Clear floats -->
                    <div style=""clear: both;""></div>
                </div>
                            ","113","","0","true","","","","","","","","","","","","",""
"","","","","","html-button-response","7","95772","0.0-7.0","xlp9kbj07y","5","1231","<div style=""width:800px;""><p style=""text-align:left"">To move the slider, click and drag your cursor to the location of the scale where you would like to make your rating and then let go. When you let go of the slider, your response will be recorded and the next trial will begin. <br>
                    We are interested in your initial impressions of each map for the given concept, so please go with your first intuition. <br>
                    Before you begin the experiment, there will be four training trials for you to practice using the scale. <br>
                     When you are ready to start the training trials, please click ""Continue"".</p><br></div>","0","","","","","","","","","","","","","","","",""
"","","","","","html-slider-response","8","98282","0.0-8.0-0.0","xlp9kbj07y","5","NaN","<div style=""width:500px;"">
                                    <p style=""font-size:25px;"">Please move the slider all the way to the <br> right endpoint of the scale</p>

                                    </div>
                                </div>","200","","0","true","0","true","","","","","","","","","","",""
"","","","","","html-button-response","9","100172","0.0-8.0-1.0","xlp9kbj07y","5","1388","<p align='center'><b>Good job!</b> Click on 'Continue' to proceed.</p>","0","","","","","","","","","","","","","","","",""
"","","","","","html-slider-response","10","101967","0.0-9.0-0.0","xlp9kbj07y","5","NaN","<div style=""width:500px;"">
                                    <p style=""font-size:25px;"">Please move the slider all the way to the <br> left endpoint of the scale</p>

                                    </div>
                                </div>","-200","","0","true","1","true","","","","","","","","","","",""
"","","","","","html-button-response","11","103356","0.0-9.0-1.0","xlp9kbj07y","5","887","<p align='center'><b>Good job!</b> Click on 'Continue' to proceed.</p>","0","","","","","","","","","","","","","","","",""
"","","","","","html-slider-response","12","106382","0.0-10.0-0.0","xlp9kbj07y","5","NaN","<div style=""width:500px;"">
                                    <p style=""font-size:25px;"">Please move the slider halfway between the center and right endpoint of the scale</p>

                                    </div>
                                </div>","2","","0","true","2","false","","","","","","","","","","",""
"","","","","","html-button-response","13","108925","0.0-10.0-1.0","xlp9kbj07y","5","2041","<p align='center'><b>Not quite!</b> The slider was not placed near the instructed located. Click on 'Continue' to try again. </p>","0","","","","","","","","","","","","","","","",""
"","","","","","html-slider-response","14","112765","0.0-10.1-0.1","xlp9kbj07y","5","NaN","<div style=""width:500px;"">
                                    <p style=""font-size:25px;"">Please move the slider halfway between the center and right endpoint of the scale</p>

                                    </div>
                                </div>","0","","0","true","2","false","","","","","","","","","","",""
"","","","","","html-button-response","15","115556","0.0-10.1-1.1","xlp9kbj07y","5","2289","<p align='center'><b>Not quite!</b> The slider was not placed near the instructed located. Click on 'Continue' to try again. </p>","0","","","","","","","","","","","","","","","",""
"","","","","","html-slider-response","16","118932","0.0-10.2-0.2","xlp9kbj07y","5","NaN","<div style=""width:500px;"">
                                    <p style=""font-size:25px;"">Please move the slider halfway between the center and right endpoint of the scale</p>

                                    </div>
                                </div>","103","","0","true","2","true","","","","","","","","","","",""
"","","","","","html-button-response","17","121056","0.0-10.2-1.2","xlp9kbj07y","5","1622","<p align='center'><b>Good job!</b> Click on 'Continue' to proceed.</p>","0","","","","","","","","","","","","","","","",""
"","","","","","html-slider-response","18","122766","0.0-11.0-0.0","xlp9kbj07y","5","NaN","<div style=""width:500px;"">
                                    <p style=""font-size:25px;"">Please move the slider halfway between the center and left endpoint of the scale</p>

                                    </div>
                                </div>","-98","","0","true","3","true","","","","","","","","","","",""
"","","","","","html-button-response","19","124106","0.0-11.0-1.0","xlp9kbj07y","5","839","<p align='center'><b>Good job!</b> Click on 'Continue' to proceed.</p>","0","","","","","","","","","","","","","","","",""
"","","","","","html-button-response","20","125023","0.0-12.0","xlp9kbj07y","5","916","<p>Great job! You've completed the practice trials. Now you will begin the main task.</p>","0","","","","","","","","","","","","","","","",""
"","","","","","html-button-response","21","126622","0.0-13.0","xlp9kbj07y","5","1599","<p>In this block of trials, you will be asked to rate how much you associate each map with:</p > <p style = 'font-size:150%; font-weight: bold'>sad</p><br></br>","0","","","","","","","","","","","","","","","",""
"","","","","","html-slider-response","22","130164","0.0-14.0","xlp9kbj07y","5","NaN","<div style=""width:500px;"">
                            <p style=""font-size:50px; font-weight:bold;""
                            >sad</p>
                            <div style=""width:240px; margin: auto;"">
                                <img src=""images/map05_cividis_scaleDef_orientMir_090.png"" style= ""width:200px""alt=""img"">
                            </div>
                        </div>","92","","0","","","","images/map05_cividis_scaleDef_orientMir_090.png","sad","1","05","05","cividis","orientMir","scaleDef","090","",""
"","","","","","html-slider-response","23","134252","0.0-15.0","xlp9kbj07y","5","NaN","<div style=""width:500px;"">
                            <p style=""font-size:50px; font-weight:bold;""
                            >sad</p>
                            <div style=""width:240px; margin: auto;"">
                                <img src=""images/map13_PuBu_scaleDef_orientDef_090.png"" style= ""width:200px""alt=""img"">
                            </div>
                        </div>","42","","0","","","","images/map13_PuBu_scaleDef_orientDef_090.png","sad","1","13","13","PuBu","orientDef","scaleDef","090","",""
"","","","","","html-slider-response","24","137451","0.0-16.0","xlp9kbj07y","5","NaN","<div style=""width:500px;"">
                            <p style=""font-size:50px; font-weight:bold;""
                            >sad</p>
                            <div style=""width:240px; margin: auto;"">
                                <img src=""images/map15_PiYG_scaleDef_orientDef_270.png"" style= ""width:200px""alt=""img"">
                            </div>
                        </div>","-135","","0","","","","images/map15_PiYG_scaleDef_orientDef_270.png","sad","1","15","15","PiYG","orientDef","scaleDef","270","",""
"","","","","","html-slider-response","25","139769","0.0-17.0","xlp9kbj07y","5","NaN","<div style=""width:500px;"">
                            <p style=""font-size:50px; font-weight:bold;""
                            >sad</p>
                            <div style=""width:240px; margin: auto;"">
                                <img src=""images/map26_coolwarm_scaleRev_orientMir_180.png"" style= ""width:200px""alt=""img"">
                            </div>
                        </div>","-107","","0","","","","images/map26_coolwarm_scaleRev_orientMir_180.png","sad","1","26","26","coolwarm","orientMir","scaleRev","180","",""
"","","","","","html-slider-response","26","142236","0.0-18.0","xlp9kbj07y","5","NaN","<div style=""width:500px;"">
                            <p style=""font-size:50px; font-weight:bold;""
                            >sad</p>
                            <div style=""width:240px; margin: auto;"">
                                <img src=""images/map02_viridis_scaleDef_orientMir_090.png"" style= ""width:200px""alt=""img"">
                            </div>
                        </div>","-54","","0","","","","images/map02_viridis_scaleDef_orientMir_090.png","sad","1","02","02","viridis","orientMir","scaleDef","090","",""
"","","","","","html-slider-response","27","145349","0.0-19.0","xlp9kbj07y","5","NaN","<div style=""width:500px;"">
                            <p style=""font-size:50px; font-weight:bold;""
                            >sad</p>
                            <div style=""width:240px; margin: auto;"">
                                <img src=""images/map10_YlOrRd_scaleRev_orientMir_180.png"" style= ""width:200px""alt=""img"">
                            </div>
                        </div>","-198","","0","","","","images/map10_YlOrRd_scaleRev_orientMir_180.png","sad","1","10","10","YlOrRd","orientMir","scaleRev","180","",""
"","","","","","html-slider-response","28","147982","0.0-20.0","xlp9kbj07y","5","NaN","<div style=""width:500px;"">
                            <p style=""font-size:50px; font-weight:bold;""
                            >sad</p>
                            <div style=""width:240px; margin: auto;"">
                                <img src=""images/map10_OrRd_scaleDef_orientMir_270.png"" style= ""width:200px""alt=""img"">
                            </div>
                        </div>","-200","","0","","","","images/map10_OrRd_scaleDef_orientMir_270.png","sad","1","10","10","OrRd","orientMir","scaleDef","270","",""
"","","","","","html-slider-response","29","150454","0.0-21.0","xlp9kbj07y","5","NaN","<div style=""width:500px;"">
                            <p style=""font-size:50px; font-weight:bold;""
                            >sad</p>
                            <div style=""width:240px; margin: auto;"">
                                <img src=""images/map26_RdYlBu_scaleRev_orientDef_000.png"" style= ""width:200px""alt=""img"">
                            </div>
                        </div>","-178","","0","","","","images/map26_RdYlBu_scaleRev_orientDef_000.png","sad","1","26","26","RdYlBu","orientDef","scaleRev","000","",""
"","","","","","html-slider-response","30","153018","0.0-22.0","xlp9kbj07y","5","NaN","<div style=""width:500px;"">
                            <p style=""font-size:50px; font-weight:bold;""
                            >sad</p>
                            <div style=""width:240px; margin: auto;"">
                                <img src=""images/map13_YlGnBu_scaleRev_orientMir_000.png"" style= ""width:200px""alt=""img"">
                            </div>
                        </div>","91","","0","","","","images/map13_YlGnBu_scaleRev_orientMir_000.png","sad","1","13","13","YlGnBu","orientMir","scaleRev","000","",""
"","","","","","html-slider-response","31","157949","0.0-23.0","xlp9kbj07y","5","NaN","<div style=""width:500px;"">
                            <p style=""font-size:50px; font-weight:bold;""
                            >sad</p>
                            <div style=""width:240px; margin: auto;"">
                                <img src=""images/map12_RdPu_scaleDef_orientDef_270.png"" style= ""width:200px""alt=""img"">
                            </div>
                        </div>","-160","","0","","","","images/map12_RdPu_scaleDef_orientDef_270.png","sad","1","12","12","RdPu","orientDef","scaleDef","270","",""
"","","","","","html-slider-response","32","160549","0.0-24.0","xlp9kbj07y","5","NaN","<div style=""width:500px;"">
                            <p style=""font-size:50px; font-weight:bold;""
                            >sad</p>
                            <div style=""width:240px; margin: auto;"">
                                <img src=""images/map27_berlin_scaleRev_orientMir_000.png"" style= ""width:200px""alt=""img"">
                            </div>
                        </div>","-157","","0","","","","images/map27_berlin_scaleRev_orientMir_000.png","sad","1","27","27","berlin","orientMir","scaleRev","000","",""
"","","","","","html-slider-response","33","163332","0.0-25.0","xlp9kbj07y","5","NaN","<div style=""width:500px;"">
                            <p style=""font-size:50px; font-weight:bold;""
                            >sad</p>
                            <div style=""width:240px; margin: auto;"">
                                <img src=""images/map13_PuBu_scaleRev_orientDef_180.png"" style= ""width:200px""alt=""img"">
                            </div>
                        </div>","138","","0","","","","images/map13_PuBu_scaleRev_orientDef_180.png","sad","1","13","13","PuBu","orientDef","scaleRev","180","",""
"","","","","","html-slider-response","34","165031","0.0-26.0","xlp9kbj07y","5","NaN","<div style=""width:500px;"">
                            <p style=""font-size:50px; font-weight:bold;""
                            >sad</p>
                            <div style=""width:240px; margin: auto;"">
                                <img src=""images/map05_inferno_scaleRev_orientDef_180.png"" style= ""width:200px""alt=""img"">
                            </div>
                        </div>","-5","","0","","","","images/map05_inferno_scaleRev_orientDef_180.png","sad","1","05","05","inferno","orientDef","scaleRev","180","",""
"","","","","","html-slider-response","35","169865","0.0-27.0","xlp9kbj07y","5","NaN","<div style=""width:500px;"">
                            <p style=""font-size:50px; font-weight:bold;""
                            >sad</p>
                            <div style=""width:240px; margin: auto;"">
                                <img src=""images/map12_BuPu_scaleRev_orientMir_180.png"" style= ""width:200px""alt=""img"">
                            </div>
                        </div>","108","","0","","","","images/map12_BuPu_scaleRev_orientMir_180.png","sad","1","12","12","BuPu","orientMir","scaleRev","180","",""
"","","","","","html-slider-response","36","172216","0.0-28.0","xlp9kbj07y","5","NaN","<div style=""width:500px;"">
                            <p style=""font-size:50px; font-weight:bold;""
                            >sad</p>
                            <div style=""width:240px; margin: auto;"">
                                <img src=""images/map02_gist_earth_scaleRev_orientDef_180.png"" style= ""width:200px""alt=""img"">
                            </div>
                        </div>","-200","","0","","","","images/map02_gist_earth_scaleRev_orientDef_180.png","sad","1","02","02","gist","scaleRev","earth","orientDef","",""
"","","","","","html-slider-response","37","175300","0.0-29.0","xlp9kbj07y","5","NaN","<div style=""width:500px;"">
                            <p style=""font-size:50px; font-weight:bold;""
                            >sad</p>
                            <div style=""width:240px; margin: auto;"">
                                <img src=""images/map07_Blues_scaleRev_orientMir_000.png"" style= ""width:200px""alt=""img"">
                            </div>
                        </div>","114","","0","","","","images/map07_Blues_scaleRev_orientMir_000.png","sad","1","07","07","Blues","orientMir","scaleRev","000","",""
"","","","","","html-slider-response","38","179550","0.0-30.0","xlp9kbj07y","5","NaN","<div style=""width:500px;"">
                            <p style=""font-size:50px; font-weight:bold;""
                            >sad</p>
                            <div style=""width:240px; margin: auto;"">
                                <img src=""images/map13_PuBuGn_scaleRev_orientMir_180.png"" style= ""width:200px""alt=""img"">
                            </div>
                        </div>","-2","","0","","","","images/map13_PuBuGn_scaleRev_orientMir_180.png","sad","1","13","13","PuBuGn","orientMir","scaleRev","180","",""
"","","","","","html-slider-response","39","181636","0.0-31.0","xlp9kbj07y","5","NaN","<div style=""width:500px;"">
                            <p style=""font-size:50px; font-weight:bold;""
                            >sad</p>
                            <div style=""width:240px; margin: auto;"">
                                <img src=""images/map10_YlOrBr_scaleDef_orientDef_270.png"" style= ""width:200px""alt=""img"">
                            </div>
                        </div>","-200","","0","","","","images/map10_YlOrBr_scaleDef_orientDef_270.png","sad","1","10","10","YlOrBr","orientDef","scaleDef","270","",""
"","","","","","html-slider-response","40","183449","0.0-32.0","xlp9kbj07y","5","NaN","<div style=""width:500px;"">
                            <p style=""font-size:50px; font-weight:bold;""
                            >sad</p>
                            <div style=""width:240px; margin: auto;"">
                                <img src=""images/map02_plasma_scaleDef_orientMir_270.png"" style= ""width:200px""alt=""img"">
                            </div>
                        </div>","-200","","0","","","","images/map02_plasma_scaleDef_orientMir_270.png","sad","1","02","02","plasma","orientMir","scaleDef","270","",""
"","","","","","html-slider-response","41","185468","0.0-33.0","xlp9kbj07y","5","NaN","<div style=""width:500px;"">
                            <p style=""font-size:50px; font-weight:bold;""
                            >sad</p>
                            <div style=""width:240px; margin: auto;"">
                                <img src=""images/map10_Reds_scaleRev_orientDef_180.png"" style= ""width:200px""alt=""img"">
                            </div>
                        </div>","-200","","0","","","","images/map10_Reds_scaleRev_orientDef_180.png","sad","1","10","10","Reds","orientDef","scaleRev","180","",""
"","","","","","html-slider-response","42","191883","0.0-34.0","xlp9kbj07y","5","NaN","<div style=""width:500px;"">
                            <p style=""font-size:50px; font-weight:bold;""
                            >sad</p>
                            <div style=""width:240px; margin: auto;"">
                                <img src=""images/map07_Purples_scaleRev_orientDef_180.png"" style= ""width:200px""alt=""img"">
                            </div>
                        </div>","6","","0","","","","images/map07_Purples_scaleRev_orientDef_180.png","sad","1","07","07","Purples","orientDef","scaleRev","180","",""
"","","","","","html-slider-response","43","194535","0.0-35.0","xlp9kbj07y","5","NaN","<div style=""width:500px;"">
                            <p style=""font-size:50px; font-weight:bold;""
                            >sad</p>
                            <div style=""width:240px; margin: auto;"">
                                <img src=""images/map02_viridis_scaleRev_orientMir_180.png"" style= ""width:200px""alt=""img"">
                            </div>
                        </div>","-142","","0","","","","images/map02_viridis_scaleRev_orientMir_180.png","sad","1","02","02","viridis","orientMir","scaleRev","180","",""
"","","","","","html-slider-response","44","196717","0.0-36.0","xlp9kbj07y","5","NaN","<div style=""width:500px;"">
                            <p style=""font-size:50px; font-weight:bold;""
                            >sad</p>
                            <div style=""width:240px; margin: auto;"">
                                <img src=""images/map02_vanimo_scaleRev_orientDef_000.png"" style= ""width:200px""alt=""img"">
                            </div>
                        </div>","5","","0","","","","images/map02_vanimo_scaleRev_orientDef_000.png","sad","1","02","02","vanimo","orientDef","scaleRev","000","",""
"","","","","","html-slider-response","45","198483","0.0-37.0","xlp9kbj07y","5","NaN","<div style=""width:500px;"">
                            <p style=""font-size:50px; font-weight:bold;""
                            >sad</p>
                            <div style=""width:240px; margin: auto;"">
                                <img src=""images/map12_PuRd_scaleDef_orientDef_090.png"" style= ""width:200px""alt=""img"">
                            </div>
                        </div>","-200","","0","","","","images/map12_PuRd_scaleDef_orientDef_090.png","sad","1","12","12","PuRd","orientDef","scaleDef","090","",""
"","","","","","html-slider-response","46","201501","0.0-38.0","xlp9kbj07y","5","NaN","<div style=""width:500px;"">
                            <p style=""font-size:50px; font-weight:bold;""
                            >sad</p>
                            <div style=""width:240px; margin: auto;"">
                                <img src=""images/map15_YlGn_scaleRev_orientDef_180.png"" style= ""width:200px""alt=""img"">
                            </div>
                        </div>","-123","","0","","","","images/map15_YlGn_scaleRev_orientDef_180.png","sad","1","15","15","YlGn","orientDef","scaleRev","180","",""
"","","","","","html-slider-response","47","203799","0.0-39.0","xlp9kbj07y","5","NaN","<div style=""width:500px;"">
                            <p style=""font-size:50px; font-weight:bold;""
                            >sad</p>
                            <div style=""width:240px; margin: auto;"">
                                <img src=""images/map26_Spectral_scaleRev_orientMir_000.png"" style= ""width:200px""alt=""img"">
                            </div>
                        </div>","-200","","0","","","","images/map26_Spectral_scaleRev_orientMir_000.png","sad","1","26","26","Spectral","orientMir","scaleRev","000","",""
"","","","","","html-slider-response","48","208534","0.0-40.0","xlp9kbj07y","5","NaN","<div style=""width:500px;"">
                            <p style=""font-size:50px; font-weight:bold;""
                            >sad</p>
                            <div style=""width:240px; margin: auto;"">
                                <img src=""images/map05_plasma_scaleRev_orientDef_000.png"" style= ""width:200px""alt=""img"">
                            </div>
                        </div>","-200","","0","","","","images/map05_plasma_scaleRev_orientDef_000.png","sad","1","05","05","plasma","orientDef","scaleRev","000","",""
"","","","","","html-slider-response","49","212318","0.0-41.0","xlp9kbj07y","5","NaN","<div style=""width:500px;"">
                            <p style=""font-size:50px; font-weight:bold;""
                            >sad</p>
                            <div style=""width:240px; margin: auto;"">
                                <img src=""images/map15_BuGn_scaleRev_orientDef_000.png"" style= ""width:200px""alt=""img"">
                            </div>
                        </div>","53","","0","","","","images/map15_BuGn_scaleRev_orientDef_000.png","sad","1","15","15","BuGn","orientDef","scaleRev","000","",""
"","","","","","html-slider-response","50","214666","0.0-42.0","xlp9kbj07y","5","NaN","<div style=""width:500px;"">
                            <p style=""font-size:50px; font-weight:bold;""
                            >sad</p>
                            <div style=""width:240px; margin: auto;"">
                                <img src=""images/map26_Spectral_scaleDef_orientDef_270.png"" style= ""width:200px""alt=""img"">
                            </div>
                        </div>","-200","","0","","","","images/map26_Spectral_scaleDef_orientDef_270.png","sad","1","26","26","Spectral","orientDef","scaleDef","270","",""
"","","","","","html-slider-response","51","217635","0.0-43.0","xlp9kbj07y","5","NaN","<div style=""width:500px;"">
                            <p style=""font-size:50px; font-weight:bold;""
                            >sad</p>
                            <div style=""width:240px; margin: auto;"">
                                <img src=""images/map05_cividis_scaleRev_orientMir_180.png"" style= ""width:200px""alt=""img"">
                            </div>
                        </div>","99","","0","","","","images/map05_cividis_scaleRev_orientMir_180.png","sad","1","05","05","cividis","orientMir","scaleRev","180","",""
"","","","","","html-slider-response","52","221267","0.0-44.0","xlp9kbj07y","5","NaN","<div style=""width:500px;"">
                            <p style=""font-size:50px; font-weight:bold;""
                            >sad</p>
                            <div style=""width:240px; margin: auto;"">
                                <img src=""images/map23_BrBG_scaleRev_orientDef_000.png"" style= ""width:200px""alt=""img"">
                            </div>
                        </div>","4","","0","","","","images/map23_BrBG_scaleRev_orientDef_000.png","sad","1","23","23","BrBG","orientDef","scaleRev","000","",""
"","","","","","html-slider-response","53","223398","0.0-45.0","xlp9kbj07y","5","NaN","<div style=""width:500px;"">
                            <p style=""font-size:50px; font-weight:bold;""
                            >sad</p>
                            <div style=""width:240px; margin: auto;"">
                                <img src=""images/map12_PuRd_scaleRev_orientDef_180.png"" style= ""width:200px""alt=""img"">
                            </div>
                        </div>","-200","","0","","","","images/map12_PuRd_scaleRev_orientDef_180.png","sad","1","12","12","PuRd","orientDef","scaleRev","180","",""
"","","","","","html-slider-response","54","229199","0.0-46.0","xlp9kbj07y","5","NaN","<div style=""width:500px;"">
                            <p style=""font-size:50px; font-weight:bold;""
                            >sad</p>
                            <div style=""width:240px; margin: auto;"">
                                <img src=""images/map05_magma_scaleRev_orientMir_000.png"" style= ""width:200px""alt=""img"">
                            </div>
                        </div>","-106","","0","","","","images/map05_magma_scaleRev_orientMir_000.png","sad","1","05","05","magma","orientMir","scaleRev","000","",""
"","","","","","html-slider-response","55","231782","0.0-47.0","xlp9kbj07y","5","NaN","<div style=""width:500px;"">
                            <p style=""font-size:50px; font-weight:bold;""
                            >sad</p>
                            <div style=""width:240px; margin: auto;"">
                                <img src=""images/map07_Purples_scaleDef_orientDef_090.png"" style= ""width:200px""alt=""img"">
                            </div>
                        </div>","116","","0","","","","images/map07_Purples_scaleDef_orientDef_090.png","sad","1","07","07","Purples","orientDef","scaleDef","090","",""
"","","","","","html-slider-response","56","253032","0.0-48.0","xlp9kbj07y","5","NaN","<div style=""width:500px;"">
                            <p style=""font-size:50px; font-weight:bold;""
                            >sad</p>
                            <div style=""width:240px; margin: auto;"">
                                <img src=""images/map13_BuGn_scaleDef_orientMir_270.png"" style= ""width:200px""alt=""img"">
                            </div>
                        </div>","80","","0","","","","images/map13_BuGn_scaleDef_orientMir_270.png","sad","1","13","13","BuGn","orientMir","scaleDef","270","",""
"","","","","","html-slider-response","57","254821","0.0-49.0","xlp9kbj07y","5","NaN","<div style=""width:500px;"">
                            <p style=""font-size:50px; font-weight:bold;""
                            >sad</p>
                            <div style=""width:240px; margin: auto;"">
                                <img src=""images/map27_bwr_scaleRev_orientDef_000.png"" style= ""width:200px""alt=""img"">
                            </div>
                        </div>","-1","","0","","","","images/map27_bwr_scaleRev_orientDef_000.png","sad","1","27","27","bwr","orientDef","scaleRev","000","",""
"","","","","","html-slider-response","58","259366","0.0-50.0","xlp9kbj07y","5","NaN","<div style=""width:500px;"">
                            <p style=""font-size:50px; font-weight:bold;""
                            >sad</p>
                            <div style=""width:240px; margin: auto;"">
                                <img src=""images/map10_Oranges_scaleRev_orientDef_000.png"" style= ""width:200px""alt=""img"">
                            </div>
                        </div>","-186","","0","","","","images/map10_Oranges_scaleRev_orientDef_000.png","sad","1","10","10","Oranges","orientDef","scaleRev","000","",""
"","","","","","html-slider-response","59","262732","0.0-51.0","xlp9kbj07y","5","NaN","<div style=""width:500px;"">
                            <p style=""font-size:50px; font-weight:bold;""
                            >sad</p>
                            <div style=""width:240px; margin: auto;"">
                                <img src=""images/map13_YlGnBu_scaleDef_orientDef_270.png"" style= ""width:200px""alt=""img"">
                            </div>
                        </div>","197","","0","","","","images/map13_YlGnBu_scaleDef_orientDef_270.png","sad","1","13","13","YlGnBu","orientDef","scaleDef","270","",""
"","","","","","html-slider-response","60","264815","0.0-52.0","xlp9kbj07y","5","NaN","<div style=""width:500px;"">
                            <p style=""font-size:50px; font-weight:bold;""
                            >sad</p>
                            <div style=""width:240px; margin: auto;"">
                                <img src=""images/map10_YlOrBr_scaleRev_orientMir_000.png"" style= ""width:200px""alt=""img"">
                            </div>
                        </div>","-197","","0","","","","images/map10_YlOrBr_scaleRev_orientMir_000.png","sad","1","10","10","YlOrBr","orientMir","scaleRev","000","",""
"","","","","","html-slider-response","61","267465","0.0-53.0","xlp9kbj07y","5","NaN","<div style=""width:500px;"">
                            <p style=""font-size:50px; font-weight:bold;""
                            >sad</p>
                            <div style=""width:240px; margin: auto;"">
                                <img src=""images/map07_Greens_scaleRev_orientMir_180.png"" style= ""width:200px""alt=""img"">
                            </div>
                        </div>","10","","0","","","","images/map07_Greens_scaleRev_orientMir_180.png","sad","1","07","07","Greens","orientMir","scaleRev","180","",""
"","","","","","html-button-response","62","269555","0.0-54.0","xlp9kbj07y","5","1587","<p>You are doing great!<br></br> You are halway done with the current block. When you are ready to continue, click the 'Continue' button.</p>","0","","","","","","","","","","","","","","","",""
"","","","","","html-slider-response","63","271832","0.0-55.0","xlp9kbj07y","5","NaN","<div style=""width:500px;"">
                            <p style=""font-size:50px; font-weight:bold;""
                            >sad</p>
                            <div style=""width:240px; margin: auto;"">
                                <img src=""images/map05_Greys_scaleDef_orientMir_270.png"" style= ""width:200px""alt=""img"">
                            </div>
                        </div>","198","","0","","","","images/map05_Greys_scaleDef_orientMir_270.png","sad","1","05","05","Greys","orientMir","scaleDef","270","",""
"","","","","","html-slider-response","64","273815","0.0-56.0","xlp9kbj07y","5","NaN","<div style=""width:500px;"">
                            <p style=""font-size:50px; font-weight:bold;""
                            >sad</p>
                            <div style=""width:240px; margin: auto;"">
                                <img src=""images/map15_PiYG_scaleRev_orientMir_000.png"" style= ""width:200px""alt=""img"">
                            </div>
                        </div>","-198","","0","","","","images/map15_PiYG_scaleRev_orientMir_000.png","sad","1","15","15","PiYG","orientMir","scaleRev","000","",""
"","","","","","html-slider-response","65","276482","0.0-57.0","xlp9kbj07y","5","NaN","<div style=""width:500px;"">
                            <p style=""font-size:50px; font-weight:bold;""
                            >sad</p>
                            <div style=""width:240px; margin: auto;"">
                                <img src=""images/map27_seismic_scaleRev_orientDef_180.png"" style= ""width:200px""alt=""img"">
                            </div>
                        </div>","-191","","0","","","","images/map27_seismic_scaleRev_orientDef_180.png","sad","1","27","27","seismic","orientDef","scaleRev","180","",""
"","","","","","html-slider-response","66","277865","0.0-58.0","xlp9kbj07y","5","NaN","<div style=""width:500px;"">
                            <p style=""font-size:50px; font-weight:bold;""
                            >sad</p>
                            <div style=""width:240px; margin: auto;"">
                                <img src=""images/map10_Reds_scaleDef_orientDef_090.png"" style= ""width:200px""alt=""img"">
                            </div>
                        </div>","-192","","0","","","","images/map10_Reds_scaleDef_orientDef_090.png","sad","1","10","10","Reds","orientDef","scaleDef","090","",""
"","","","","","html-slider-response","67","279781","0.0-59.0","xlp9kbj07y","5","NaN","<div style=""width:500px;"">
                            <p style=""font-size:50px; font-weight:bold;""
                            >sad</p>
                            <div style=""width:240px; margin: auto;"">
                                <img src=""images/map15_YlGn_scaleDef_orientDef_090.png"" style= ""width:200px""alt=""img"">
                            </div>
                        </div>","-1","","0","","","","images/map15_YlGn_scaleDef_orientDef_090.png","sad","1","15","15","YlGn","orientDef","scaleDef","090","",""
"","","","","","html-slider-response","68","281449","0.0-60.0","xlp9kbj07y","5","NaN","<div style=""width:500px;"">
                            <p style=""font-size:50px; font-weight:bold;""
                            >sad</p>
                            <div style=""width:240px; margin: auto;"">
                                <img src=""images/map12_GnBu_scaleDef_orientMir_270.png"" style= ""width:200px""alt=""img"">
                            </div>
                        </div>","92","","0","","","","images/map12_GnBu_scaleDef_orientMir_270.png","sad","1","12","12","GnBu","orientMir","scaleDef","270","",""
"","","","","","html-slider-response","69","285566","0.0-61.0","xlp9kbj07y","5","NaN","<div style=""width:500px;"">
                            <p style=""font-size:50px; font-weight:bold;""
                            >sad</p>
                            <div style=""width:240px; margin: auto;"">
                                <img src=""images/map23_PuOr_scaleDef_orientDef_090.png"" style= ""width:200px""alt=""img"">
                            </div>
                        </div>","-4","","0","","","","images/map23_PuOr_scaleDef_orientDef_090.png","sad","1","23","23","PuOr","orientDef","scaleDef","090","",""
"","","","","","html-slider-response","70","287632","0.0-62.0","xlp9kbj07y","5","NaN","<div style=""width:500px;"">
                            <p style=""font-size:50px; font-weight:bold;""
                            >sad</p>
                            <div style=""width:240px; margin: auto;"">
                                <img src=""images/map13_GnBu_scaleRev_orientDef_000.png"" style= ""width:200px""alt=""img"">
                            </div>
                        </div>","145","","0","","","","images/map13_GnBu_scaleRev_orientDef_000.png","sad","1","13","13","GnBu","orientDef","scaleRev","000","",""
"","","","","","html-slider-response","71","289531","0.0-63.0","xlp9kbj07y","5","NaN","<div style=""width:500px;"">
                            <p style=""font-size:50px; font-weight:bold;""
                            >sad</p>
                            <div style=""width:240px; margin: auto;"">
                                <img src=""images/map26_bwr_scaleDef_orientMir_270.png"" style= ""width:200px""alt=""img"">
                            </div>
                        </div>","-191","","0","","","","images/map26_bwr_scaleDef_orientMir_270.png","sad","1","26","26","bwr","orientMir","scaleDef","270","",""
"","","","","","html-slider-response","72","291127","0.0-64.0","xlp9kbj07y","5","NaN","<div style=""width:500px;"">
                            <p style=""font-size:50px; font-weight:bold;""
                            >sad</p>
                            <div style=""width:240px; margin: auto;"">
                                <img src=""images/map23_PuOr_scaleRev_orientDef_180.png"" style= ""width:200px""alt=""img"">
                            </div>
                        </div>","0","","0","","","","images/map23_PuOr_scaleRev_orientDef_180.png","sad","1","23","23","PuOr","orientDef","scaleRev","180","",""
"","","","","","html-slider-response","73","294106","0.0-65.0","xlp9kbj07y","5","NaN","<div style=""width:500px;"">
                            <p style=""font-size:50px; font-weight:bold;""
                            >sad</p>
                            <div style=""width:240px; margin: auto;"">
                                <img src=""images/map02_turbo_scaleRev_orientMir_000.png"" style= ""width:200px""alt=""img"">
                            </div>
                        </div>","-195","","0","","","","images/map02_turbo_scaleRev_orientMir_000.png","sad","1","02","02","turbo","orientMir","scaleRev","000","",""
"","","","","","html-slider-response","74","296119","0.0-66.0","xlp9kbj07y","5","NaN","<div style=""width:500px;"">
                            <p style=""font-size:50px; font-weight:bold;""
                            >sad</p>
                            <div style=""width:240px; margin: auto;"">
                                <img src=""images/map12_BuPu_scaleDef_orientMir_090.png"" style= ""width:200px""alt=""img"">
                            </div>
                        </div>","192","","0","","","","images/map12_BuPu_scaleDef_orientMir_090.png","sad","1","12","12","BuPu","orientMir","scaleDef","090","",""
"","","","","","html-slider-response","75","297999","0.0-67.0","xlp9kbj07y","5","NaN","<div style=""width:500px;"">
                            <p style=""font-size:50px; font-weight:bold;""
                            >sad</p>
                            <div style=""width:240px; margin: auto;"">
                                <img src=""images/map23_RdBu_scaleDef_orientMir_090.png"" style= ""width:200px""alt=""img"">
                            </div>
                        </div>","6","","0","","","","images/map23_RdBu_scaleDef_orientMir_090.png","sad","1","23","23","RdBu","orientMir","scaleDef","090","",""
"","","","","","html-slider-response","76","300512","0.0-68.0","xlp9kbj07y","5","NaN","<div style=""width:500px;"">
                            <p style=""font-size:50px; font-weight:bold;""
                            >sad</p>
                            <div style=""width:240px; margin: auto;"">
                                <img src=""images/map15_PRGn_scaleRev_orientMir_180.png"" style= ""width:200px""alt=""img"">
                            </div>
                        </div>","-85","","0","","","","images/map15_PRGn_scaleRev_orientMir_180.png","sad","1","15","15","PRGn","orientMir","scaleRev","180","",""
"","","","","","html-slider-response","77","302894","0.0-69.0","xlp9kbj07y","5","NaN","<div style=""width:500px;"">
                            <p style=""font-size:50px; font-weight:bold;""
                            >sad</p>
                            <div style=""width:240px; margin: auto;"">
                                <img src=""images/map07_Greens_scaleDef_orientMir_090.png"" style= ""width:200px""alt=""img"">
                            </div>
                        </div>","-11","","0","","","","images/map07_Greens_scaleDef_orientMir_090.png","sad","1","07","07","Greens","orientMir","scaleDef","090","",""
"","","","","","html-slider-response","78","304795","0.0-70.0","xlp9kbj07y","5","NaN","<div style=""width:500px;"">
                            <p style=""font-size:50px; font-weight:bold;""
                            >sad</p>
                            <div style=""width:240px; margin: auto;"">
                                <img src=""images/map13_PuBuGn_scaleDef_orientMir_090.png"" style= ""width:200px""alt=""img"">
                            </div>
                        </div>","107","","0","","","","images/map13_PuBuGn_scaleDef_orientMir_090.png","sad","1","13","13","PuBuGn","orientMir","scaleDef","090","",""
"","","","","","html-slider-response","79","320900","0.0-71.0","xlp9kbj07y","5","NaN","<div style=""width:500px;"">
                            <p style=""font-size:50px; font-weight:bold;""
                            >sad</p>
                            <div style=""width:240px; margin: auto;"">
                                <img src=""images/map02_turbo_scaleDef_orientDef_270.png"" style= ""width:200px""alt=""img"">
                            </div>
                        </div>","-195","","0","","","","images/map02_turbo_scaleDef_orientDef_270.png","sad","1","02","02","turbo","orientDef","scaleDef","270","",""
"","","","","","html-slider-response","80","323716","0.0-72.0","xlp9kbj07y","5","NaN","<div style=""width:500px;"">
                            <p style=""font-size:50px; font-weight:bold;""
                            >sad</p>
                            <div style=""width:240px; margin: auto;"">
                                <img src=""images/map23_RdGy_scaleRev_orientMir_000.png"" style= ""width:200px""alt=""img"">
                            </div>
                        </div>","81","","0","","","","images/map23_RdGy_scaleRev_orientMir_000.png","sad","1","23","23","RdGy","orientMir","scaleRev","000","",""
"","","","","","html-slider-response","81","325316","0.0-73.0","xlp9kbj07y","5","NaN","<div style=""width:500px;"">
                            <p style=""font-size:50px; font-weight:bold;""
                            >sad</p>
                            <div style=""width:240px; margin: auto;"">
                                <img src=""images/map23_RdGy_scaleDef_orientDef_270.png"" style= ""width:200px""alt=""img"">
                            </div>
                        </div>","81","","0","","","","images/map23_RdGy_scaleDef_orientDef_270.png","sad","1","23","23","RdGy","orientDef","scaleDef","270","",""
"","","","","","html-slider-response","82","327248","0.0-74.0","xlp9kbj07y","5","NaN","<div style=""width:500px;"">
                            <p style=""font-size:50px; font-weight:bold;""
                            >sad</p>
                            <div style=""width:240px; margin: auto;"">
                                <img src=""images/map15_BrBG_scaleDef_orientMir_270.png"" style= ""width:200px""alt=""img"">
                            </div>
                        </div>","86","","0","","","","images/map15_BrBG_scaleDef_orientMir_270.png","sad","1","15","15","BrBG","orientMir","scaleDef","270","",""
"","","","","","html-slider-response","83","329598","0.0-75.0","xlp9kbj07y","5","NaN","<div style=""width:500px;"">
                            <p style=""font-size:50px; font-weight:bold;""
                            >sad</p>
                            <div style=""width:240px; margin: auto;"">
                                <img src=""images/map07_Oranges_scaleDef_orientMir_270.png"" style= ""width:200px""alt=""img"">
                            </div>
                        </div>","-196","","0","","","","images/map07_Oranges_scaleDef_orientMir_270.png","sad","1","07","07","Oranges","orientMir","scaleDef","270","",""
"","","","","","html-slider-response","84","331715","0.0-76.0","xlp9kbj07y","5","NaN","<div style=""width:500px;"">
                            <p style=""font-size:50px; font-weight:bold;""
                            >sad</p>
                            <div style=""width:240px; margin: auto;"">
                                <img src=""images/map12_RdPu_scaleRev_orientMir_000.png"" style= ""width:200px""alt=""img"">
                            </div>
                        </div>","-198","","0","","","","images/map12_RdPu_scaleRev_orientMir_000.png","sad","1","12","12","RdPu","orientMir","scaleRev","000","",""
"","","","","","html-slider-response","85","332998","0.0-77.0","xlp9kbj07y","5","NaN","<div style=""width:500px;"">
                            <p style=""font-size:50px; font-weight:bold;""
                            >sad</p>
                            <div style=""width:240px; margin: auto;"">
                                <img src=""images/map26_RdYlGn_scaleDef_orientDef_090.png"" style= ""width:200px""alt=""img"">
                            </div>
                        </div>","-194","","0","","","","images/map26_RdYlGn_scaleDef_orientDef_090.png","sad","1","26","26","RdYlGn","orientDef","scaleDef","090","",""
"","","","","","html-slider-response","86","334348","0.0-78.0","xlp9kbj07y","5","NaN","<div style=""width:500px;"">
                            <p style=""font-size:50px; font-weight:bold;""
                            >sad</p>
                            <div style=""width:240px; margin: auto;"">
                                <img src=""images/map27_managua_scaleRev_orientMir_180.png"" style= ""width:200px""alt=""img"">
                            </div>
                        </div>","-193","","0","","","","images/map27_managua_scaleRev_orientMir_180.png","sad","1","27","27","managua","orientMir","scaleRev","180","",""
"","","","","","html-slider-response","87","335698","0.0-79.0","xlp9kbj07y","5","NaN","<div style=""width:500px;"">
                            <p style=""font-size:50px; font-weight:bold;""
                            >sad</p>
                            <div style=""width:240px; margin: auto;"">
                                <img src=""images/map23_RdYlBu_scaleDef_orientMir_270.png"" style= ""width:200px""alt=""img"">
                            </div>
                        </div>","-193","","0","","","","images/map23_RdYlBu_scaleDef_orientMir_270.png","sad","1","23","23","RdYlBu","orientMir","scaleDef","270","",""
"","","","","","html-slider-response","88","337047","0.0-80.0","xlp9kbj07y","5","NaN","<div style=""width:500px;"">
                            <p style=""font-size:50px; font-weight:bold;""
                            >sad</p>
                            <div style=""width:240px; margin: auto;"">
                                <img src=""images/map27_seismic_scaleDef_orientDef_090.png"" style= ""width:200px""alt=""img"">
                            </div>
                        </div>","-193","","0","","","","images/map27_seismic_scaleDef_orientDef_090.png","sad","1","27","27","seismic","orientDef","scaleDef","090","",""
"","","","","","html-slider-response","89","339980","0.0-81.0","xlp9kbj07y","5","NaN","<div style=""width:500px;"">
                            <p style=""font-size:50px; font-weight:bold;""
                            >sad</p>
                            <div style=""width:240px; margin: auto;"">
                                <img src=""images/map05_magma_scaleDef_orientDef_270.png"" style= ""width:200px""alt=""img"">
                            </div>
                        </div>","41","","0","","","","images/map05_magma_scaleDef_orientDef_270.png","sad","1","05","05","magma","orientDef","scaleDef","270","",""
"","","","","","html-slider-response","90","342164","0.0-82.0","xlp9kbj07y","5","NaN","<div style=""width:500px;"">
                            <p style=""font-size:50px; font-weight:bold;""
                            >sad</p>
                            <div style=""width:240px; margin: auto;"">
                                <img src=""images/map15_PRGn_scaleDef_orientMir_090.png"" style= ""width:200px""alt=""img"">
                            </div>
                        </div>","5","","0","","","","images/map15_PRGn_scaleDef_orientMir_090.png","sad","1","15","15","PRGn","orientMir","scaleDef","090","",""
"","","","","","html-slider-response","91","345262","0.0-83.0","xlp9kbj07y","5","NaN","<div style=""width:500px;"">
                            <p style=""font-size:50px; font-weight:bold;""
                            >sad</p>
                            <div style=""width:240px; margin: auto;"">
                                <img src=""images/map26_coolwarm_scaleDef_orientMir_090.png"" style= ""width:200px""alt=""img"">
                            </div>
                        </div>","-1","","0","","","","images/map26_coolwarm_scaleDef_orientMir_090.png","sad","1","26","26","coolwarm","orientMir","scaleDef","090","",""
"","","","","","html-slider-response","92","347680","0.0-84.0","xlp9kbj07y","5","NaN","<div style=""width:500px;"">
                            <p style=""font-size:50px; font-weight:bold;""
                            >sad</p>
                            <div style=""width:240px; margin: auto;"">
                                <img src=""images/map26_RdYlGn_scaleRev_orientDef_180.png"" style= ""width:200px""alt=""img"">
                            </div>
                        </div>","-148","","0","","","","images/map26_RdYlGn_scaleRev_orientDef_180.png","sad","1","26","26","RdYlGn","orientDef","scaleRev","180","",""
"","","","","","html-slider-response","93","351080","0.0-85.0","xlp9kbj07y","5","NaN","<div style=""width:500px;"">
                            <p style=""font-size:50px; font-weight:bold;""
                            >sad</p>
                            <div style=""width:240px; margin: auto;"">
                                <img src=""images/map27_berlin_scaleDef_orientDef_270.png"" style= ""width:200px""alt=""img"">
                            </div>
                        </div>","58","","0","","","","images/map27_berlin_scaleDef_orientDef_270.png","sad","1","27","27","berlin","orientDef","scaleDef","270","",""
"","","","","","html-slider-response","94","353979","0.0-86.0","xlp9kbj07y","5","NaN","<div style=""width:500px;"">
                            <p style=""font-size:50px; font-weight:bold;""
                            >sad</p>
                            <div style=""width:240px; margin: auto;"">
                                <img src=""images/map12_OrRd_scaleRev_orientDef_000.png"" style= ""width:200px""alt=""img"">
                            </div>
                        </div>","-198","","0","","","","images/map12_OrRd_scaleRev_orientDef_000.png","sad","1","12","12","OrRd","orientDef","scaleRev","000","",""
"","","","","","html-slider-response","95","357646","0.0-87.0","xlp9kbj07y","5","NaN","<div style=""width:500px;"">
                            <p style=""font-size:50px; font-weight:bold;""
                            >sad</p>
                            <div style=""width:240px; margin: auto;"">
                                <img src=""images/map10_YlOrRd_scaleDef_orientMir_090.png"" style= ""width:200px""alt=""img"">
                            </div>
                        </div>","-198","","0","","","","images/map10_YlOrRd_scaleDef_orientMir_090.png","sad","1","10","10","YlOrRd","orientMir","scaleDef","090","",""
"","","","","","html-slider-response","96","359896","0.0-88.0","xlp9kbj07y","5","NaN","<div style=""width:500px;"">
                            <p style=""font-size:50px; font-weight:bold;""
                            >sad</p>
                            <div style=""width:240px; margin: auto;"">
                                <img src=""images/map07_Greys_scaleRev_orientDef_000.png"" style= ""width:200px""alt=""img"">
                            </div>
                        </div>","200","","0","","","","images/map07_Greys_scaleRev_orientDef_000.png","sad","1","07","07","Greys","orientDef","scaleRev","000","",""
"","","","","","html-slider-response","97","362546","0.0-89.0","xlp9kbj07y","5","NaN","<div style=""width:500px;"">
                            <p style=""font-size:50px; font-weight:bold;""
                            >sad</p>
                            <div style=""width:240px; margin: auto;"">
                                <img src=""images/map23_RdBu_scaleRev_orientMir_180.png"" style= ""width:200px""alt=""img"">
                            </div>
                        </div>","2","","0","","","","images/map23_RdBu_scaleRev_orientMir_180.png","sad","1","23","23","RdBu","orientMir","scaleRev","180","",""
"","","","","","html-slider-response","98","364796","0.0-90.0","xlp9kbj07y","5","NaN","<div style=""width:500px;"">
                            <p style=""font-size:50px; font-weight:bold;""
                            >sad</p>
                            <div style=""width:240px; margin: auto;"">
                                <img src=""images/map02_gist_earth_scaleDef_orientDef_090.png"" style= ""width:200px""alt=""img"">
                            </div>
                        </div>","-194","","0","","","","images/map02_gist_earth_scaleDef_orientDef_090.png","sad","1","02","02","gist","scaleDef","earth","orientDef","",""
"","","","","","html-slider-response","99","366762","0.0-91.0","xlp9kbj07y","5","NaN","<div style=""width:500px;"">
                            <p style=""font-size:50px; font-weight:bold;""
                            >sad</p>
                            <div style=""width:240px; margin: auto;"">
                                <img src=""images/map05_inferno_scaleDef_orientDef_090.png"" style= ""width:200px""alt=""img"">
                            </div>
                        </div>","-195","","0","","","","images/map05_inferno_scaleDef_orientDef_090.png","sad","1","05","05","inferno","orientDef","scaleDef","090","",""
"","","","","","html-slider-response","100","375945","0.0-92.0","xlp9kbj07y","5","NaN","<div style=""width:500px;"">
                            <p style=""font-size:50px; font-weight:bold;""
                            >sad</p>
                            <div style=""width:240px; margin: auto;"">
                                <img src=""images/map27_vanimo_scaleDef_orientMir_270.png"" style= ""width:200px""alt=""img"">
                            </div>
                        </div>","117","","0","","","","images/map27_vanimo_scaleDef_orientMir_270.png","sad","1","27","27","vanimo","orientMir","scaleDef","270","",""
"","","","","","html-slider-response","101","377645","0.0-93.0","xlp9kbj07y","5","NaN","<div style=""width:500px;"">
                            <p style=""font-size:50px; font-weight:bold;""
                            >sad</p>
                            <div style=""width:240px; margin: auto;"">
                                <img src=""images/map07_Blues_scaleDef_orientDef_270.png"" style= ""width:200px""alt=""img"">
                            </div>
                        </div>","112","","0","","","","images/map07_Blues_scaleDef_orientDef_270.png","sad","1","07","07","Blues","orientDef","scaleDef","270","",""
"","","","","","html-slider-response","102","379279","0.0-94.0","xlp9kbj07y","5","NaN","<div style=""width:500px;"">
                            <p style=""font-size:50px; font-weight:bold;""
                            >sad</p>
                            <div style=""width:240px; margin: auto;"">
                                <img src=""images/map27_managua_scaleDef_orientMir_090.png"" style= ""width:200px""alt=""img"">
                            </div>
                        </div>","10","","0","","","","images/map27_managua_scaleDef_orientMir_090.png","sad","1","27","27","managua","orientMir","scaleDef","090","",""
"","","","","","html-button-response","103","381122","0.0-95.0","xlp9kbj07y","5","1341","<p>Great Job! You've finished block 1.<br></br> You have 4 block(s) left to go.<br></br></p>","0","","","","","","","","","","","","","","","",""
"","","","","","html-button-response","104","383502","0.0-96.0","xlp9kbj07y","5","2379","<p>In this block of trials, you will be asked to rate how much you associate each map with:</p > <p style = 'font-size:150%; font-weight: bold'>angry</p><br></br>","0","","","","","","","","","","","","","","","",""
"","","","","","html-slider-response","105","386479","0.0-97.0","xlp9kbj07y","5","NaN","<div style=""width:500px;"">
                            <p style=""font-size:50px; font-weight:bold;""
                            >angry</p>
                            <div style=""width:240px; margin: auto;"">
                                <img src=""images/map23_RdYlBu_scaleDef_orientMir_270.png"" style= ""width:200px""alt=""img"">
                            </div>
                        </div>","159","","0","","","","images/map23_RdYlBu_scaleDef_orientMir_270.png","angry","1","23","23","RdYlBu","orientMir","scaleDef","270","",""
"","","","","","html-slider-response","106","388278","0.0-98.0","xlp9kbj07y","5","NaN","<div style=""width:500px;"">
                            <p style=""font-size:50px; font-weight:bold;""
                            >angry</p>
                            <div style=""width:240px; margin: auto;"">
                                <img src=""images/map27_berlin_scaleDef_orientDef_270.png"" style= ""width:200px""alt=""img"">
                            </div>
                        </div>","125","","0","","","","images/map27_berlin_scaleDef_orientDef_270.png","angry","1","27","27","berlin","orientDef","scaleDef","270","",""
"","","","","","html-slider-response","107","390495","0.0-99.0","xlp9kbj07y","5","NaN","<div style=""width:500px;"">
                            <p style=""font-size:50px; font-weight:bold;""
                            >angry</p>
                            <div style=""width:240px; margin: auto;"">
                                <img src=""images/map26_coolwarm_scaleDef_orientMir_090.png"" style= ""width:200px""alt=""img"">
                            </div>
                        </div>","64","","0","","","","images/map26_coolwarm_scaleDef_orientMir_090.png","angry","1","26","26","coolwarm","orientMir","scaleDef","090","",""
"","","","","","html-slider-response","108","392295","0.0-100.0","xlp9kbj07y","5","NaN","<div style=""width:500px;"">
                            <p style=""font-size:50px; font-weight:bold;""
                            >angry</p>
                            <div style=""width:240px; margin: auto;"">
                                <img src=""images/map13_YlGnBu_scaleRev_orientMir_000.png"" style= ""width:200px""alt=""img"">
                            </div>
                        </div>","-196","","0","","","","images/map13_YlGnBu_scaleRev_orientMir_000.png","angry","1","13","13","YlGnBu","orientMir","scaleRev","000","",""
"","","","","","html-slider-response","109","394311","0.0-101.0","xlp9kbj07y","5","NaN","<div style=""width:500px;"">
                            <p style=""font-size:50px; font-weight:bold;""
                            >angry</p>
                            <div style=""width:240px; margin: auto;"">
                                <img src=""images/map05_plasma_scaleRev_orientDef_000.png"" style= ""width:200px""alt=""img"">
                            </div>
                        </div>","194","","0","","","","images/map05_plasma_scaleRev_orientDef_000.png","angry","1","05","05","plasma","orientDef","scaleRev","000","",""
"","","","","","html-slider-response","110","396211","0.0-102.0","xlp9kbj07y","5","NaN","<div style=""width:500px;"">
                            <p style=""font-size:50px; font-weight:bold;""
                            >angry</p>
                            <div style=""width:240px; margin: auto;"">
                                <img src=""images/map23_PuOr_scaleDef_orientDef_090.png"" style= ""width:200px""alt=""img"">
                            </div>
                        </div>","-2","","0","","","","images/map23_PuOr_scaleDef_orientDef_090.png","angry","1","23","23","PuOr","orientDef","scaleDef","090","",""
"","","","","","html-slider-response","111","398112","0.0-103.0","xlp9kbj07y","5","NaN","<div style=""width:500px;"">
                            <p style=""font-size:50px; font-weight:bold;""
                            >angry</p>
                            <div style=""width:240px; margin: auto;"">
                                <img src=""images/map05_cividis_scaleDef_orientMir_090.png"" style= ""width:200px""alt=""img"">
                            </div>
                        </div>","-198","","0","","","","images/map05_cividis_scaleDef_orientMir_090.png","angry","1","05","05","cividis","orientMir","scaleDef","090","",""
"","","","","","html-slider-response","112","400062","0.0-104.0","xlp9kbj07y","5","NaN","<div style=""width:500px;"">
                            <p style=""font-size:50px; font-weight:bold;""
                            >angry</p>
                            <div style=""width:240px; margin: auto;"">
                                <img src=""images/map10_Oranges_scaleRev_orientDef_000.png"" style= ""width:200px""alt=""img"">
                            </div>
                        </div>","101","","0","","","","images/map10_Oranges_scaleRev_orientDef_000.png","angry","1","10","10","Oranges","orientDef","scaleRev","000","",""
"","","","","","html-slider-response","113","402128","0.0-105.0","xlp9kbj07y","5","NaN","<div style=""width:500px;"">
                            <p style=""font-size:50px; font-weight:bold;""
                            >angry</p>
                            <div style=""width:240px; margin: auto;"">
                                <img src=""images/map23_RdGy_scaleRev_orientMir_000.png"" style= ""width:200px""alt=""img"">
                            </div>
                        </div>","-191","","0","","","","images/map23_RdGy_scaleRev_orientMir_000.png","angry","1","23","23","RdGy","orientMir","scaleRev","000","",""
"","","","","","html-slider-response","114","403711","0.0-106.0","xlp9kbj07y","5","NaN","<div style=""width:500px;"">
                            <p style=""font-size:50px; font-weight:bold;""
                            >angry</p>
                            <div style=""width:240px; margin: auto;"">
                                <img src=""images/map27_managua_scaleRev_orientMir_180.png"" style= ""width:200px""alt=""img"">
                            </div>
                        </div>","94","","0","","","","images/map27_managua_scaleRev_orientMir_180.png","angry","1","27","27","managua","orientMir","scaleRev","180","",""
"","","","","","html-slider-response","115","406628","0.0-107.0","xlp9kbj07y","5","NaN","<div style=""width:500px;"">
                            <p style=""font-size:50px; font-weight:bold;""
                            >angry</p>
                            <div style=""width:240px; margin: auto;"">
                                <img src=""images/map26_bwr_scaleDef_orientMir_270.png"" style= ""width:200px""alt=""img"">
                            </div>
                        </div>","40","","0","","","","images/map26_bwr_scaleDef_orientMir_270.png","angry","1","26","26","bwr","orientMir","scaleDef","270","",""
"","","","","","html-slider-response","116","408678","0.0-108.0","xlp9kbj07y","5","NaN","<div style=""width:500px;"">
                            <p style=""font-size:50px; font-weight:bold;""
                            >angry</p>
                            <div style=""width:240px; margin: auto;"">
                                <img src=""images/map10_YlOrBr_scaleRev_orientMir_000.png"" style= ""width:200px""alt=""img"">
                            </div>
                        </div>","132","","0","","","","images/map10_YlOrBr_scaleRev_orientMir_000.png","angry","1","10","10","YlOrBr","orientMir","scaleRev","000","",""
"","","","","","html-slider-response","117","410562","0.0-109.0","xlp9kbj07y","5","NaN","<div style=""width:500px;"">
                            <p style=""font-size:50px; font-weight:bold;""
                            >angry</p>
                            <div style=""width:240px; margin: auto;"">
                                <img src=""images/map02_turbo_scaleRev_orientMir_000.png"" style= ""width:200px""alt=""img"">
                            </div>
                        </div>","200","","0","","","","images/map02_turbo_scaleRev_orientMir_000.png","angry","1","02","02","turbo","orientMir","scaleRev","000","",""
"","","","","","html-slider-response","118","412595","0.0-110.0","xlp9kbj07y","5","NaN","<div style=""width:500px;"">
                            <p style=""font-size:50px; font-weight:bold;""
                            >angry</p>
                            <div style=""width:240px; margin: auto;"">
                                <img src=""images/map10_YlOrBr_scaleDef_orientDef_270.png"" style= ""width:200px""alt=""img"">
                            </div>
                        </div>","114","","0","","","","images/map10_YlOrBr_scaleDef_orientDef_270.png","angry","1","10","10","YlOrBr","orientDef","scaleDef","270","",""
"","","","","","html-slider-response","119","414261","0.0-111.0","xlp9kbj07y","5","NaN","<div style=""width:500px;"">
                            <p style=""font-size:50px; font-weight:bold;""
                            >angry</p>
                            <div style=""width:240px; margin: auto;"">
                                <img src=""images/map02_plasma_scaleDef_orientMir_270.png"" style= ""width:200px""alt=""img"">
                            </div>
                        </div>","200","","0","","","","images/map02_plasma_scaleDef_orientMir_270.png","angry","1","02","02","plasma","orientMir","scaleDef","270","",""
"","","","","","html-slider-response","120","416311","0.0-112.0","xlp9kbj07y","5","NaN","<div style=""width:500px;"">
                            <p style=""font-size:50px; font-weight:bold;""
                            >angry</p>
                            <div style=""width:240px; margin: auto;"">
                                <img src=""images/map23_RdGy_scaleDef_orientDef_270.png"" style= ""width:200px""alt=""img"">
                            </div>
                        </div>","-38","","0","","","","images/map23_RdGy_scaleDef_orientDef_270.png","angry","1","23","23","RdGy","orientDef","scaleDef","270","",""
"","","","","","html-slider-response","121","418978","0.0-113.0","xlp9kbj07y","5","NaN","<div style=""width:500px;"">
                            <p style=""font-size:50px; font-weight:bold;""
                            >angry</p>
                            <div style=""width:240px; margin: auto;"">
                                <img src=""images/map07_Greys_scaleRev_orientDef_000.png"" style= ""width:200px""alt=""img"">
                            </div>
                        </div>","-110","","0","","","","images/map07_Greys_scaleRev_orientDef_000.png","angry","1","07","07","Greys","orientDef","scaleRev","000","",""
"","","","","","html-slider-response","122","420911","0.0-114.0","xlp9kbj07y","5","NaN","<div style=""width:500px;"">
                            <p style=""font-size:50px; font-weight:bold;""
                            >angry</p>
                            <div style=""width:240px; margin: auto;"">
                                <img src=""images/map13_PuBu_scaleDef_orientDef_090.png"" style= ""width:200px""alt=""img"">
                            </div>
                        </div>","-200","","0","","","","images/map13_PuBu_scaleDef_orientDef_090.png","angry","1","13","13","PuBu","orientDef","scaleDef","090","",""
"","","","","","html-slider-response","123","422844","0.0-115.0","xlp9kbj07y","5","NaN","<div style=""width:500px;"">
                            <p style=""font-size:50px; font-weight:bold;""
                            >angry</p>
                            <div style=""width:240px; margin: auto;"">
                                <img src=""images/map05_magma_scaleDef_orientDef_270.png"" style= ""width:200px""alt=""img"">
                            </div>
                        </div>","200","","0","","","","images/map05_magma_scaleDef_orientDef_270.png","angry","1","05","05","magma","orientDef","scaleDef","270","",""
"","","","","","html-slider-response","124","425745","0.0-116.0","xlp9kbj07y","5","NaN","<div style=""width:500px;"">
                            <p style=""font-size:50px; font-weight:bold;""
                            >angry</p>
                            <div style=""width:240px; margin: auto;"">
                                <img src=""images/map07_Purples_scaleDef_orientDef_090.png"" style= ""width:200px""alt=""img"">
                            </div>
                        </div>","-195","","0","","","","images/map07_Purples_scaleDef_orientDef_090.png","angry","1","07","07","Purples","orientDef","scaleDef","090","",""
"","","","","","html-slider-response","125","430295","0.0-117.0","xlp9kbj07y","5","NaN","<div style=""width:500px;"">
                            <p style=""font-size:50px; font-weight:bold;""
                            >angry</p>
                            <div style=""width:240px; margin: auto;"">
                                <img src=""images/map15_BuGn_scaleRev_orientDef_000.png"" style= ""width:200px""alt=""img"">
                            </div>
                        </div>","-100","","0","","","","images/map15_BuGn_scaleRev_orientDef_000.png","angry","1","15","15","BuGn","orientDef","scaleRev","000","",""
"","","","","","html-slider-response","126","432278","0.0-118.0","xlp9kbj07y","5","NaN","<div style=""width:500px;"">
                            <p style=""font-size:50px; font-weight:bold;""
                            >angry</p>
                            <div style=""width:240px; margin: auto;"">
                                <img src=""images/map07_Blues_scaleDef_orientDef_270.png"" style= ""width:200px""alt=""img"">
                            </div>
                        </div>","-198","","0","","","","images/map07_Blues_scaleDef_orientDef_270.png","angry","1","07","07","Blues","orientDef","scaleDef","270","",""
"","","","","","html-slider-response","127","435076","0.0-119.0","xlp9kbj07y","5","NaN","<div style=""width:500px;"">
                            <p style=""font-size:50px; font-weight:bold;""
                            >angry</p>
                            <div style=""width:240px; margin: auto;"">
                                <img src=""images/map15_PiYG_scaleRev_orientMir_000.png"" style= ""width:200px""alt=""img"">
                            </div>
                        </div>","0","","0","","","","images/map15_PiYG_scaleRev_orientMir_000.png","angry","1","15","15","PiYG","orientMir","scaleRev","000","",""
"","","","","","html-slider-response","128","437578","0.0-120.0","xlp9kbj07y","5","NaN","<div style=""width:500px;"">
                            <p style=""font-size:50px; font-weight:bold;""
                            >angry</p>
                            <div style=""width:240px; margin: auto;"">
                                <img src=""images/map26_Spectral_scaleDef_orientDef_270.png"" style= ""width:200px""alt=""img"">
                            </div>
                        </div>","195","","0","","","","images/map26_Spectral_scaleDef_orientDef_270.png","angry","1","26","26","Spectral","orientDef","scaleDef","270","",""
"","","","","","html-slider-response","129","470394","0.0-121.0","xlp9kbj07y","5","NaN","<div style=""width:500px;"">
                            <p style=""font-size:50px; font-weight:bold;""
                            >angry</p>
                            <div style=""width:240px; margin: auto;"">
                                <img src=""images/map13_PuBuGn_scaleRev_orientMir_180.png"" style= ""width:200px""alt=""img"">
                            </div>
                        </div>","-134","","0","","","","images/map13_PuBuGn_scaleRev_orientMir_180.png","angry","1","13","13","PuBuGn","orientMir","scaleRev","180","",""
"","","","","","html-slider-response","130","472544","0.0-122.0","xlp9kbj07y","5","NaN","<div style=""width:500px;"">
                            <p style=""font-size:50px; font-weight:bold;""
                            >angry</p>
                            <div style=""width:240px; margin: auto;"">
                                <img src=""images/map27_vanimo_scaleDef_orientMir_270.png"" style= ""width:200px""alt=""img"">
                            </div>
                        </div>","200","","0","","","","images/map27_vanimo_scaleDef_orientMir_270.png","angry","1","27","27","vanimo","orientMir","scaleDef","270","",""
"","","","","","html-slider-response","131","474428","0.0-123.0","xlp9kbj07y","5","NaN","<div style=""width:500px;"">
                            <p style=""font-size:50px; font-weight:bold;""
                            >angry</p>
                            <div style=""width:240px; margin: auto;"">
                                <img src=""images/map02_viridis_scaleRev_orientMir_180.png"" style= ""width:200px""alt=""img"">
                            </div>
                        </div>","0","","0","","","","images/map02_viridis_scaleRev_orientMir_180.png","angry","1","02","02","viridis","orientMir","scaleRev","180","",""
"","","","","","html-slider-response","132","476510","0.0-124.0","xlp9kbj07y","5","NaN","<div style=""width:500px;"">
                            <p style=""font-size:50px; font-weight:bold;""
                            >angry</p>
                            <div style=""width:240px; margin: auto;"">
                                <img src=""images/map26_RdYlBu_scaleRev_orientDef_000.png"" style= ""width:200px""alt=""img"">
                            </div>
                        </div>","96","","0","","","","images/map26_RdYlBu_scaleRev_orientDef_000.png","angry","1","26","26","RdYlBu","orientDef","scaleRev","000","",""
"","","","","","html-slider-response","133","478127","0.0-125.0","xlp9kbj07y","5","NaN","<div style=""width:500px;"">
                            <p style=""font-size:50px; font-weight:bold;""
                            >angry</p>
                            <div style=""width:240px; margin: auto;"">
                                <img src=""images/map27_seismic_scaleDef_orientDef_090.png"" style= ""width:200px""alt=""img"">
                            </div>
                        </div>","196","","0","","","","images/map27_seismic_scaleDef_orientDef_090.png","angry","1","27","27","seismic","orientDef","scaleDef","090","",""
"","","","","","html-slider-response","134","479327","0.0-126.0","xlp9kbj07y","5","NaN","<div style=""width:500px;"">
                            <p style=""font-size:50px; font-weight:bold;""
                            >angry</p>
                            <div style=""width:240px; margin: auto;"">
                                <img src=""images/map10_Reds_scaleDef_orientDef_090.png"" style= ""width:200px""alt=""img"">
                            </div>
                        </div>","196","","0","","","","images/map10_Reds_scaleDef_orientDef_090.png","angry","1","10","10","Reds","orientDef","scaleDef","090","",""
"","","","","","html-slider-response","135","480644","0.0-127.0","xlp9kbj07y","5","NaN","<div style=""width:500px;"">
                            <p style=""font-size:50px; font-weight:bold;""
                            >angry</p>
                            <div style=""width:240px; margin: auto;"">
                                <img src=""images/map07_Oranges_scaleDef_orientMir_270.png"" style= ""width:200px""alt=""img"">
                            </div>
                        </div>","196","","0","","","","images/map07_Oranges_scaleDef_orientMir_270.png","angry","1","07","07","Oranges","orientMir","scaleDef","270","",""
"","","","","","html-slider-response","136","483310","0.0-128.0","xlp9kbj07y","5","NaN","<div style=""width:500px;"">
                            <p style=""font-size:50px; font-weight:bold;""
                            >angry</p>
                            <div style=""width:240px; margin: auto;"">
                                <img src=""images/map13_BuGn_scaleDef_orientMir_270.png"" style= ""width:200px""alt=""img"">
                            </div>
                        </div>","1","","0","","","","images/map13_BuGn_scaleDef_orientMir_270.png","angry","1","13","13","BuGn","orientMir","scaleDef","270","",""
"","","","","","html-slider-response","137","485544","0.0-129.0","xlp9kbj07y","5","NaN","<div style=""width:500px;"">
                            <p style=""font-size:50px; font-weight:bold;""
                            >angry</p>
                            <div style=""width:240px; margin: auto;"">
                                <img src=""images/map12_PuRd_scaleRev_orientDef_180.png"" style= ""width:200px""alt=""img"">
                            </div>
                        </div>","132","","0","","","","images/map12_PuRd_scaleRev_orientDef_180.png","angry","1","12","12","PuRd","orientDef","scaleRev","180","",""
"","","","","","html-slider-response","138","489495","0.0-130.0","xlp9kbj07y","5","NaN","<div style=""width:500px;"">
                            <p style=""font-size:50px; font-weight:bold;""
                            >angry</p>
                            <div style=""width:240px; margin: auto;"">
                                <img src=""images/map23_PuOr_scaleRev_orientDef_180.png"" style= ""width:200px""alt=""img"">
                            </div>
                        </div>","-18","","0","","","","images/map23_PuOr_scaleRev_orientDef_180.png","angry","1","23","23","PuOr","orientDef","scaleRev","180","",""
"","","","","","html-slider-response","139","491444","0.0-131.0","xlp9kbj07y","5","NaN","<div style=""width:500px;"">
                            <p style=""font-size:50px; font-weight:bold;""
                            >angry</p>
                            <div style=""width:240px; margin: auto;"">
                                <img src=""images/map13_PuBu_scaleRev_orientDef_180.png"" style= ""width:200px""alt=""img"">
                            </div>
                        </div>","-199","","0","","","","images/map13_PuBu_scaleRev_orientDef_180.png","angry","1","13","13","PuBu","orientDef","scaleRev","180","",""
"","","","","","html-slider-response","140","493528","0.0-132.0","xlp9kbj07y","5","NaN","<div style=""width:500px;"">
                            <p style=""font-size:50px; font-weight:bold;""
                            >angry</p>
                            <div style=""width:240px; margin: auto;"">
                                <img src=""images/map10_OrRd_scaleDef_orientMir_270.png"" style= ""width:200px""alt=""img"">
                            </div>
                        </div>","196","","0","","","","images/map10_OrRd_scaleDef_orientMir_270.png","angry","1","10","10","OrRd","orientMir","scaleDef","270","",""
"","","","","","html-slider-response","141","496277","0.0-133.0","xlp9kbj07y","5","NaN","<div style=""width:500px;"">
                            <p style=""font-size:50px; font-weight:bold;""
                            >angry</p>
                            <div style=""width:240px; margin: auto;"">
                                <img src=""images/map05_inferno_scaleRev_orientDef_180.png"" style= ""width:200px""alt=""img"">
                            </div>
                        </div>","200","","0","","","","images/map05_inferno_scaleRev_orientDef_180.png","angry","1","05","05","inferno","orientDef","scaleRev","180","",""
"","","","","","html-slider-response","142","498093","0.0-134.0","xlp9kbj07y","5","NaN","<div style=""width:500px;"">
                            <p style=""font-size:50px; font-weight:bold;""
                            >angry</p>
                            <div style=""width:240px; margin: auto;"">
                                <img src=""images/map15_PRGn_scaleRev_orientMir_180.png"" style= ""width:200px""alt=""img"">
                            </div>
                        </div>","2","","0","","","","images/map15_PRGn_scaleRev_orientMir_180.png","angry","1","15","15","PRGn","orientMir","scaleRev","180","",""
"","","","","","html-slider-response","143","501077","0.0-135.0","xlp9kbj07y","5","NaN","<div style=""width:500px;"">
                            <p style=""font-size:50px; font-weight:bold;""
                            >angry</p>
                            <div style=""width:240px; margin: auto;"">
                                <img src=""images/map10_YlOrRd_scaleDef_orientMir_090.png"" style= ""width:200px""alt=""img"">
                            </div>
                        </div>","200","","0","","","","images/map10_YlOrRd_scaleDef_orientMir_090.png","angry","1","10","10","YlOrRd","orientMir","scaleDef","090","",""
"","","","","","html-slider-response","144","502577","0.0-136.0","xlp9kbj07y","5","NaN","<div style=""width:500px;"">
                            <p style=""font-size:50px; font-weight:bold;""
                            >angry</p>
                            <div style=""width:240px; margin: auto;"">
                                <img src=""images/map10_Reds_scaleRev_orientDef_180.png"" style= ""width:200px""alt=""img"">
                            </div>
                        </div>","200","","0","","","","images/map10_Reds_scaleRev_orientDef_180.png","angry","1","10","10","Reds","orientDef","scaleRev","180","",""
"","","","","","html-button-response","145","504566","0.0-137.0","xlp9kbj07y","5","1487","<p>You are doing great!<br></br> You are halway done with the current block. When you are ready to continue, click the 'Continue' button.</p>","0","","","","","","","","","","","","","","","",""
"","","","","","html-slider-response","146","506593","0.0-138.0","xlp9kbj07y","5","NaN","<div style=""width:500px;"">
                            <p style=""font-size:50px; font-weight:bold;""
                            >angry</p>
                            <div style=""width:240px; margin: auto;"">
                                <img src=""images/map26_coolwarm_scaleRev_orientMir_180.png"" style= ""width:200px""alt=""img"">
                            </div>
                        </div>","198","","0","","","","images/map26_coolwarm_scaleRev_orientMir_180.png","angry","1","26","26","coolwarm","orientMir","scaleRev","180","",""
"","","","","","html-slider-response","147","507844","0.0-139.0","xlp9kbj07y","5","NaN","<div style=""width:500px;"">
                            <p style=""font-size:50px; font-weight:bold;""
                            >angry</p>
                            <div style=""width:240px; margin: auto;"">
                                <img src=""images/map05_magma_scaleRev_orientMir_000.png"" style= ""width:200px""alt=""img"">
                            </div>
                        </div>","196","","0","","","","images/map05_magma_scaleRev_orientMir_000.png","angry","1","05","05","magma","orientMir","scaleRev","000","",""
"","","","","","html-slider-response","148","509310","0.0-140.0","xlp9kbj07y","5","NaN","<div style=""width:500px;"">
                            <p style=""font-size:50px; font-weight:bold;""
                            >angry</p>
                            <div style=""width:240px; margin: auto;"">
                                <img src=""images/map02_vanimo_scaleRev_orientDef_000.png"" style= ""width:200px""alt=""img"">
                            </div>
                        </div>","194","","0","","","","images/map02_vanimo_scaleRev_orientDef_000.png","angry","1","02","02","vanimo","orientDef","scaleRev","000","",""
"","","","","","html-slider-response","149","510477","0.0-141.0","xlp9kbj07y","5","NaN","<div style=""width:500px;"">
                            <p style=""font-size:50px; font-weight:bold;""
                            >angry</p>
                            <div style=""width:240px; margin: auto;"">
                                <img src=""images/map26_RdYlGn_scaleDef_orientDef_090.png"" style= ""width:200px""alt=""img"">
                            </div>
                        </div>","194","","0","","","","images/map26_RdYlGn_scaleDef_orientDef_090.png","angry","1","26","26","RdYlGn","orientDef","scaleDef","090","",""
"","","","","","html-slider-response","150","511710","0.0-142.0","xlp9kbj07y","5","NaN","<div style=""width:500px;"">
                            <p style=""font-size:50px; font-weight:bold;""
                            >angry</p>
                            <div style=""width:240px; margin: auto;"">
                                <img src=""images/map26_Spectral_scaleRev_orientMir_000.png"" style= ""width:200px""alt=""img"">
                            </div>
                        </div>","193","","0","","","","images/map26_Spectral_scaleRev_orientMir_000.png","angry","1","26","26","Spectral","orientMir","scaleRev","000","",""
"","","","","","html-slider-response","151","512894","0.0-143.0","xlp9kbj07y","5","NaN","<div style=""width:500px;"">
                            <p style=""font-size:50px; font-weight:bold;""
                            >angry</p>
                            <div style=""width:240px; margin: auto;"">
                                <img src=""images/map10_YlOrRd_scaleRev_orientMir_180.png"" style= ""width:200px""alt=""img"">
                            </div>
                        </div>","191","","0","","","","images/map10_YlOrRd_scaleRev_orientMir_180.png","angry","1","10","10","YlOrRd","orientMir","scaleRev","180","",""
"","","","","","html-slider-response","152","514577","0.0-144.0","xlp9kbj07y","5","NaN","<div style=""width:500px;"">
                            <p style=""font-size:50px; font-weight:bold;""
                            >angry</p>
                            <div style=""width:240px; margin: auto;"">
                                <img src=""images/map12_PuRd_scaleDef_orientDef_090.png"" style= ""width:200px""alt=""img"">
                            </div>
                        </div>","195","","0","","","","images/map12_PuRd_scaleDef_orientDef_090.png","angry","1","12","12","PuRd","orientDef","scaleDef","090","",""
"","","","","","html-slider-response","153","516194","0.0-145.0","xlp9kbj07y","5","NaN","<div style=""width:500px;"">
                            <p style=""font-size:50px; font-weight:bold;""
                            >angry</p>
                            <div style=""width:240px; margin: auto;"">
                                <img src=""images/map26_RdYlGn_scaleRev_orientDef_180.png"" style= ""width:200px""alt=""img"">
                            </div>
                        </div>","192","","0","","","","images/map26_RdYlGn_scaleRev_orientDef_180.png","angry","1","26","26","RdYlGn","orientDef","scaleRev","180","",""
"","","","","","html-slider-response","154","518343","0.0-146.0","xlp9kbj07y","5","NaN","<div style=""width:500px;"">
                            <p style=""font-size:50px; font-weight:bold;""
                            >angry</p>
                            <div style=""width:240px; margin: auto;"">
                                <img src=""images/map05_Greys_scaleDef_orientMir_270.png"" style= ""width:200px""alt=""img"">
                            </div>
                        </div>","-200","","0","","","","images/map05_Greys_scaleDef_orientMir_270.png","angry","1","05","05","Greys","orientMir","scaleDef","270","",""
"","","","","","html-slider-response","155","520210","0.0-147.0","xlp9kbj07y","5","NaN","<div style=""width:500px;"">
                            <p style=""font-size:50px; font-weight:bold;""
                            >angry</p>
                            <div style=""width:240px; margin: auto;"">
                                <img src=""images/map02_gist_earth_scaleRev_orientDef_180.png"" style= ""width:200px""alt=""img"">
                            </div>
                        </div>","-198","","0","","","","images/map02_gist_earth_scaleRev_orientDef_180.png","angry","1","02","02","gist","scaleRev","earth","orientDef","",""
"","","","","","html-slider-response","156","522893","0.0-148.0","xlp9kbj07y","5","NaN","<div style=""width:500px;"">
                            <p style=""font-size:50px; font-weight:bold;""
                            >angry</p>
                            <div style=""width:240px; margin: auto;"">
                                <img src=""images/map12_RdPu_scaleDef_orientDef_270.png"" style= ""width:200px""alt=""img"">
                            </div>
                        </div>","178","","0","","","","images/map12_RdPu_scaleDef_orientDef_270.png","angry","1","12","12","RdPu","orientDef","scaleDef","270","",""
"","","","","","html-slider-response","157","525027","0.0-149.0","xlp9kbj07y","5","NaN","<div style=""width:500px;"">
                            <p style=""font-size:50px; font-weight:bold;""
                            >angry</p>
                            <div style=""width:240px; margin: auto;"">
                                <img src=""images/map12_BuPu_scaleDef_orientMir_090.png"" style= ""width:200px""alt=""img"">
                            </div>
                        </div>","-2","","0","","","","images/map12_BuPu_scaleDef_orientMir_090.png","angry","1","12","12","BuPu","orientMir","scaleDef","090","",""
"","","","","","html-slider-response","158","533310","0.0-150.0","xlp9kbj07y","5","NaN","<div style=""width:500px;"">
                            <p style=""font-size:50px; font-weight:bold;""
                            >angry</p>
                            <div style=""width:240px; margin: auto;"">
                                <img src=""images/map15_PRGn_scaleDef_orientMir_090.png"" style= ""width:200px""alt=""img"">
                            </div>
                        </div>","-138","","0","","","","images/map15_PRGn_scaleDef_orientMir_090.png","angry","1","15","15","PRGn","orientMir","scaleDef","090","",""
"","","","","","html-slider-response","159","535409","0.0-151.0","xlp9kbj07y","5","NaN","<div style=""width:500px;"">
                            <p style=""font-size:50px; font-weight:bold;""
                            >angry</p>
                            <div style=""width:240px; margin: auto;"">
                                <img src=""images/map02_viridis_scaleDef_orientMir_090.png"" style= ""width:200px""alt=""img"">
                            </div>
                        </div>","107","","0","","","","images/map02_viridis_scaleDef_orientMir_090.png","angry","1","02","02","viridis","orientMir","scaleDef","090","",""
"","","","","","html-slider-response","160","537843","0.0-152.0","xlp9kbj07y","5","NaN","<div style=""width:500px;"">
                            <p style=""font-size:50px; font-weight:bold;""
                            >angry</p>
                            <div style=""width:240px; margin: auto;"">
                                <img src=""images/map12_OrRd_scaleRev_orientDef_000.png"" style= ""width:200px""alt=""img"">
