"success","timeout","failed_images","failed_audio","failed_video","trial_type","trial_index","time_elapsed","internal_node_id","subject_id","condition_num","rt","stimulus","response","question_order","slider_start","practiceTrial","practiceTrialNum","correct","image_path","concept","repetition","map_id","map_num","scale_name","orientation_code","mapping_code","rotation_code","ishihara_plate","correct_response"
"true","false","[]","[]","[]","preload","0","553","0.0-0.0","xnvhwam5kx","70","","","","","","","","","","","","","","","","","","",""
"","","","","","html-button-response","1","7262","0.0-1.0","xnvhwam5kx","70","6708","Welcome to our experiment!<p>At the bottom of this screen, you will see a button that says ""Begin Experiment"".<br>Please only click that button when you are ready to complete the 30 minute experiment in one sitting.</p><p> Once you click that button, it will not be possible to restart the experiment.","0","","","","","","","","","","","","","","","",""
"true","","","","","fullscreen","2","9509","0.0-2.0","xnvhwam5kx","70","1243","","","","","","","","","","","","","","","","","",""
"","","","","","survey-multi-select","3","17509","0.0-3.0","xnvhwam5kx","70","7994","","{""Consent"":[""<strong>I consent</strong>""]}","[0]","","","","","","","","","","","","","","",""
"","","","","","html-button-response","4","19319","0.0-4.0","xnvhwam5kx","70","1808","Welcome! <p> This experiment involves two parts: demographic information, followed by the experimental task.<p> It will take about 30 minutes to complete both parts.","0","","","","","","","","","","","","","","","",""
"","","","","","survey-text","5","30301","0.0-5.0","xnvhwam5kx","70","10975","","{""Age"":""19"",""Gender"":""female"",""Race/ethnicity"":""white"",""Languages"":""english""}","","","","","","","","","","","","","","","",""
"","","","","","html-slider-response","6","63681","0.0-6.0","xnvhwam5kx","70","33378","<div style='text-align:left; font-size:20px; line-height:25px; width: 1000px;'>
                                During this experiment you will be asked to rate how much you associate maps with                    different concepts.<br> Below, you can see some examples of the maps you will be asked to rate. Above the maps
                    is the list of concepts.<br>You will be asked                    to rate how much you associate each map with each concept on a scale from 'not at all' to 'very much' like the
                    one below. <br><br>
                    Now, please look at the list of concepts and maps. For each concept, think about the map you associate 'very
                    much' with the concept.<br>                     When you see that map during the experiment, please rate it near the 'very much' endpoint of the
                    scale.<br>Now, please think about which map you associate 'not at all'                     with each concept. When you see that map during the experiment, please rate it near the 'not at all' endpoint
                    of the scale.<br>
                    Please use the full range of the scale. That is, if a map is somewhat associated with the concept, you would
                    click partway between the middle point and right side of the scale.                    You will be asked to rate each map for a given concept before moving on to the next concept.<br>Press the
                    'Continue' button for instructions on how to use the slider.                    <br>
                </div>

                <div style=""width: 500px; margin: 0 auto;"">
                    <!-- Centered text paragraphs -->
                    <div style=""text-align: center; width: 500px;"">
                        <p style=""font-size:25px; line-height:15px;"">
                            happy&nbsp;&nbsp;&nbsp;&nbsp;
                            angry&nbsp;&nbsp;&nbsp;&nbsp;
                            sad&nbsp;&nbsp;&nbsp;&nbsp;
                            fearful&nbsp;&nbsp;&nbsp;&nbsp;
                            disgust
                        </p>
                        <!-- <p style=""font-size:20px; line-height:15px;"">angry</p>
                        <p style=""font-size:20px;line-height:15px;"">sad</p>
                        <p style=""font-size:20px;line-height:15px;"">fearful</p>
                        <p style=""font-size:20px;line-height:15px;"">disgust</p> -->
                    </div>
            

                    <!-- Grid section -->
                   <div style=""display: flex; justify-content: center; padding-top: 15px;"">
                    <div style=""display: grid; grid-template-columns: repeat(10, 55px); grid-gap: 5px; width: auto;"">
                        <img src=""images/map27_YlOrBr_scaleDef_orientDef_000.png"" alt=""map"" style=""width: 100%;""><img src=""images/map07_PiYG_scaleDef_orientDef_000.png"" alt=""map"" style=""width: 100%;""><img src=""images/map05_YlGnBu_scaleDef_orientDef_000.png"" alt=""map"" style=""width: 100%;""><img src=""images/map02_GnBu_scaleDef_orientMir_000.png"" alt=""map"" style=""width: 100%;""><img src=""images/map23_Greys_scaleDef_orientMir_000.png"" alt=""map"" style=""width: 100%;""><img src=""images/map10_RdBu_scaleDef_orientDef_180.png"" alt=""map"" style=""width: 100%;""><img src=""images/map05_YlGn_scaleDef_orientMir_180.png"" alt=""map"" style=""width: 100%;""><img src=""images/map07_PRGn_scaleRev_orientDef_270.png"" alt=""map"" style=""width: 100%;""><img src=""images/map10_RdYlBu_scaleDef_orientMir_000.png"" alt=""map"" style=""width: 100%;""><img src=""images/map07_BrBG_scaleRev_orientMir_090.png"" alt=""map"" style=""width: 100%;""><img src=""images/map10_RdYlGn_scaleDef_orientMir_180.png"" alt=""map"" style=""width: 100%;""><img src=""images/map07_PuOr_scaleDef_orientMir_180.png"" alt=""map"" style=""width: 100%;""><img src=""images/map02_BuPu_scaleDef_orientDef_180.png"" alt=""map"" style=""width: 100%;""><img src=""images/map15_plasma_scaleRev_orientMir_090.png"" alt=""map"" style=""width: 100%;""><img src=""images/map13_gist_earth_scaleRev_orientMir_270.png"" alt=""map"" style=""width: 100%;""><img src=""images/map12_Spectral_scaleDef_orientDef_000.png"" alt=""map"" style=""width: 100%;""><img src=""images/map26_Blues_scaleRev_orientDef_090.png"" alt=""map"" style=""width: 100%;""><img src=""images/map15_turbo_scaleRev_orientDef_090.png"" alt=""map"" style=""width: 100%;""><img src=""images/map05_PuBuGn_scaleDef_orientDef_180.png"" alt=""map"" style=""width: 100%;""><img src=""images/map13_berlin_scaleRev_orientDef_090.png"" alt=""map"" style=""width: 100%;""><img src=""images/map23_cividis_scaleDef_orientDef_180.png"" alt=""map"" style=""width: 100%;""><img src=""images/map02_RdPu_scaleRev_orientDef_090.png"" alt=""map"" style=""width: 100%;""><img src=""images/map15_inferno_scaleRev_orientMir_270.png"" alt=""map"" style=""width: 100%;""><img src=""images/map13_vanimo_scaleDef_orientMir_000.png"" alt=""map"" style=""width: 100%;""><img src=""images/map23_Purples_scaleRev_orientMir_270.png"" alt=""map"" style=""width: 100%;""><img src=""images/map26_Greens_scaleRev_orientDef_270.png"" alt=""map"" style=""width: 100%;""><img src=""images/map12_bwr_scaleRev_orientMir_090.png"" alt=""map"" style=""width: 100%;""><img src=""images/map02_PuBu_scaleRev_orientMir_270.png"" alt=""map"" style=""width: 100%;""><img src=""images/map27_PuRd_scaleRev_orientMir_270.png"" alt=""map"" style=""width: 100%;""><img src=""images/map27_YlOrRd_scaleRev_orientDef_270.png"" alt=""map"" style=""width: 100%;""><img src=""images/map12_seismic_scaleDef_orientMir_180.png"" alt=""map"" style=""width: 100%;""><img src=""images/map26_Oranges_scaleRev_orientMir_090.png"" alt=""map"" style=""width: 100%;""><img src=""images/map10_RdGy_scaleRev_orientDef_090.png"" alt=""map"" style=""width: 100%;""><img src=""images/map26_Reds_scaleDef_orientMir_180.png"" alt=""map"" style=""width: 100%;""><img src=""images/map12_coolwarm_scaleRev_orientDef_270.png"" alt=""map"" style=""width: 100%;""><img src=""images/map13_managua_scaleDef_orientDef_180.png"" alt=""map"" style=""width: 100%;""><img src=""images/map15_viridis_scaleRev_orientDef_270.png"" alt=""map"" style=""width: 100%;""><img src=""images/map05_BuGn_scaleDef_orientMir_000.png"" alt=""map"" style=""width: 100%;""><img src=""images/map27_OrRd_scaleDef_orientMir_000.png"" alt=""map"" style=""width: 100%;""><img src=""images/map23_magma_scaleDef_orientDef_000.png"" alt=""map"" style=""width: 100%;"">
                    </div>
                </div>

                    <!-- Clear floats -->
                    <div style=""clear: both;""></div>
                </div>
                            ","null","","0","true","","","","","","","","","","","","",""
"","","","","","html-button-response","7","65001","0.0-7.0","xnvhwam5kx","70","1318","<div style=""width:800px;""><p style=""text-align:left"">To move the slider, click and drag your cursor to the location of the scale where you would like to make your rating and then let go. When you let go of the slider, your response will be recorded and the next trial will begin. <br>
                    We are interested in your initial impressions of each map for the given concept, so please go with your first intuition. <br>
                    Before you begin the experiment, there will be four training trials for you to practice using the scale. <br>
                     When you are ready to start the training trials, please click ""Continue"".</p><br></div>","0","","","","","","","","","","","","","","","",""
"","","","","","html-slider-response","8","69658","0.0-8.0-0.0","xnvhwam5kx","70","NaN","<div style=""width:500px;"">
                                    <p style=""font-size:25px;"">Please move the slider all the way to the <br> right endpoint of the scale</p>

                                    </div>
                                </div>","200","","0","true","0","true","","","","","","","","","","",""
"","","","","","html-button-response","9","71123","0.0-8.0-1.0","xnvhwam5kx","70","962","<p align='center'><b>Good job!</b> Click on 'Continue' to proceed.</p>","0","","","","","","","","","","","","","","","",""
"","","","","","html-slider-response","10","73548","0.0-9.0-0.0","xnvhwam5kx","70","NaN","<div style=""width:500px;"">
                                    <p style=""font-size:25px;"">Please move the slider all the way to the <br> left endpoint of the scale</p>

                                    </div>
                                </div>","-200","","0","true","1","true","","","","","","","","","","",""
"","","","","","html-button-response","11","75289","0.0-9.0-1.0","xnvhwam5kx","70","1237","<p align='center'><b>Good job!</b> Click on 'Continue' to proceed.</p>","0","","","","","","","","","","","","","","","",""
"","","","","","html-slider-response","12","80901","0.0-10.0-0.0","xnvhwam5kx","70","NaN","<div style=""width:500px;"">
                                    <p style=""font-size:25px;"">Please move the slider halfway between the center and right endpoint of the scale</p>

                                    </div>
                                </div>","98","","0","true","2","true","","","","","","","","","","",""
"","","","","","html-button-response","13","82101","0.0-10.0-1.0","xnvhwam5kx","70","696","<p align='center'><b>Good job!</b> Click on 'Continue' to proceed.</p>","0","","","","","","","","","","","","","","","",""
"","","","","","html-slider-response","14","84409","0.0-11.0-0.0","xnvhwam5kx","70","NaN","<div style=""width:500px;"">
                                    <p style=""font-size:25px;"">Please move the slider halfway between the center and left endpoint of the scale</p>

                                    </div>
                                </div>","-109","","0","true","3","true","","","","","","","","","","",""
"","","","","","html-button-response","15","86113","0.0-11.0-1.0","xnvhwam5kx","70","1201","<p align='center'><b>Good job!</b> Click on 'Continue' to proceed.</p>","0","","","","","","","","","","","","","","","",""
"","","","","","html-button-response","16","87039","0.0-12.0","xnvhwam5kx","70","925","<p>Great job! You've completed the practice trials. Now you will begin the main task.</p>","0","","","","","","","","","","","","","","","",""
"","","","","","html-button-response","17","88800","0.0-13.0","xnvhwam5kx","70","1759","<p>In this block of trials, you will be asked to rate how much you associate each map with:</p > <p style = 'font-size:150%; font-weight: bold'>happy</p><br></br>","0","","","","","","","","","","","","","","","",""
"","","","","","html-slider-response","18","92186","0.0-14.0","xnvhwam5kx","70","NaN","<div style=""width:500px;"">
                            <p style=""font-size:50px; font-weight:bold;""
                            >happy</p>
                            <div style=""width:240px; margin: auto;"">
                                <img src=""images/map10_RdBu_scaleDef_orientDef_180.png"" style= ""width:200px""alt=""img"">
                            </div>
                        </div>","-103","","0","","","","images/map10_RdBu_scaleDef_orientDef_180.png","happy","1","10","10","RdBu","orientDef","scaleDef","180","",""
"","","","","","html-slider-response","19","95715","0.0-15.0","xnvhwam5kx","70","NaN","<div style=""width:500px;"">
                            <p style=""font-size:50px; font-weight:bold;""
                            >happy</p>
                            <div style=""width:240px; margin: auto;"">
                                <img src=""images/map02_PuBu_scaleRev_orientMir_270.png"" style= ""width:200px""alt=""img"">
                            </div>
                        </div>","-190","","0","","","","images/map02_PuBu_scaleRev_orientMir_270.png","happy","1","02","02","PuBu","orientMir","scaleRev","270","",""
"","","","","","html-slider-response","20","98528","0.0-16.0","xnvhwam5kx","70","NaN","<div style=""width:500px;"">
                            <p style=""font-size:50px; font-weight:bold;""
                            >happy</p>
                            <div style=""width:240px; margin: auto;"">
                                <img src=""images/map15_inferno_scaleDef_orientMir_180.png"" style= ""width:200px""alt=""img"">
                            </div>
                        </div>","-55","","0","","","","images/map15_inferno_scaleDef_orientMir_180.png","happy","1","15","15","inferno","orientMir","scaleDef","180","",""
"","","","","","html-slider-response","21","100656","0.0-17.0","xnvhwam5kx","70","NaN","<div style=""width:500px;"">
                            <p style=""font-size:50px; font-weight:bold;""
                            >happy</p>
                            <div style=""width:240px; margin: auto;"">
                                <img src=""images/map10_RdYlBu_scaleRev_orientMir_090.png"" style= ""width:200px""alt=""img"">
                            </div>
                        </div>","20","","0","","","","images/map10_RdYlBu_scaleRev_orientMir_090.png","happy","1","10","10","RdYlBu","orientMir","scaleRev","090","",""
"","","","","","html-slider-response","22","106895","0.0-18.0","xnvhwam5kx","70","NaN","<div style=""width:500px;"">
                            <p style=""font-size:50px; font-weight:bold;""
                            >happy</p>
                            <div style=""width:240px; margin: auto;"">
                                <img src=""images/map05_YlGnBu_scaleRev_orientDef_090.png"" style= ""width:200px""alt=""img"">
                            </div>
                        </div>","-135","","0","","","","images/map05_YlGnBu_scaleRev_orientDef_090.png","happy","1","05","05","YlGnBu","orientDef","scaleRev","090","",""
"","","","","","html-slider-response","23","109510","0.0-19.0","xnvhwam5kx","70","NaN","<div style=""width:500px;"">
                            <p style=""font-size:50px; font-weight:bold;""
                            >happy</p>
                            <div style=""width:240px; margin: auto;"">
                                <img src=""images/map26_Greens_scaleDef_orientDef_180.png"" style= ""width:200px""alt=""img"">
                            </div>
                        </div>","-144","","0","","","","images/map26_Greens_scaleDef_orientDef_180.png","happy","1","26","26","Greens","orientDef","scaleDef","180","",""
"","","","","","html-slider-response","24","111546","0.0-20.0","xnvhwam5kx","70","NaN","<div style=""width:500px;"">
                            <p style=""font-size:50px; font-weight:bold;""
                            >happy</p>
                            <div style=""width:240px; margin: auto;"">
                                <img src=""images/map10_RdYlGn_scaleDef_orientMir_180.png"" style= ""width:200px""alt=""img"">
                            </div>
                        </div>","-25","","0","","","","images/map10_RdYlGn_scaleDef_orientMir_180.png","happy","1","10","10","RdYlGn","orientMir","scaleDef","180","",""
"","","","","","html-slider-response","25","113494","0.0-21.0","xnvhwam5kx","70","NaN","<div style=""width:500px;"">
                            <p style=""font-size:50px; font-weight:bold;""
                            >happy</p>
                            <div style=""width:240px; margin: auto;"">
                                <img src=""images/map02_RdPu_scaleRev_orientDef_090.png"" style= ""width:200px""alt=""img"">
                            </div>
                        </div>","57","","0","","","","images/map02_RdPu_scaleRev_orientDef_090.png","happy","1","02","02","RdPu","orientDef","scaleRev","090","",""
"","","","","","html-slider-response","26","115546","0.0-22.0","xnvhwam5kx","70","NaN","<div style=""width:500px;"">
                            <p style=""font-size:50px; font-weight:bold;""
                            >happy</p>
                            <div style=""width:240px; margin: auto;"">
                                <img src=""images/map12_bwr_scaleDef_orientMir_000.png"" style= ""width:200px""alt=""img"">
                            </div>
                        </div>","76","","0","","","","images/map12_bwr_scaleDef_orientMir_000.png","happy","1","12","12","bwr","orientMir","scaleDef","000","",""
"","","","","","html-slider-response","27","118290","0.0-23.0","xnvhwam5kx","70","NaN","<div style=""width:500px;"">
                            <p style=""font-size:50px; font-weight:bold;""
                            >happy</p>
                            <div style=""width:240px; margin: auto;"">
                                <img src=""images/map15_turbo_scaleRev_orientDef_090.png"" style= ""width:200px""alt=""img"">
                            </div>
                        </div>","34","","0","","","","images/map15_turbo_scaleRev_orientDef_090.png","happy","1","15","15","turbo","orientDef","scaleRev","090","",""
"","","","","","html-slider-response","28","120509","0.0-24.0","xnvhwam5kx","70","NaN","<div style=""width:500px;"">
                            <p style=""font-size:50px; font-weight:bold;""
                            >happy</p>
                            <div style=""width:240px; margin: auto;"">
                                <img src=""images/map07_PuOr_scaleDef_orientMir_180.png"" style= ""width:200px""alt=""img"">
                            </div>
                        </div>","64","","0","","","","images/map07_PuOr_scaleDef_orientMir_180.png","happy","1","07","07","PuOr","orientMir","scaleDef","180","",""
"","","","","","html-slider-response","29","123809","0.0-25.0","xnvhwam5kx","70","NaN","<div style=""width:500px;"">
                            <p style=""font-size:50px; font-weight:bold;""
                            >happy</p>
                            <div style=""width:240px; margin: auto;"">
                                <img src=""images/map15_viridis_scaleRev_orientDef_270.png"" style= ""width:200px""alt=""img"">
                            </div>
                        </div>","-82","","0","","","","images/map15_viridis_scaleRev_orientDef_270.png","happy","1","15","15","viridis","orientDef","scaleRev","270","",""
"","","","","","html-slider-response","30","127013","0.0-26.0","xnvhwam5kx","70","NaN","<div style=""width:500px;"">
                            <p style=""font-size:50px; font-weight:bold;""
                            >happy</p>
                            <div style=""width:240px; margin: auto;"">
                                <img src=""images/map27_YlOrBr_scaleDef_orientDef_000.png"" style= ""width:200px""alt=""img"">
                            </div>
                        </div>","178","","0","","","","images/map27_YlOrBr_scaleDef_orientDef_000.png","happy","1","27","27","YlOrBr","orientDef","scaleDef","000","",""
"","","","","","html-slider-response","31","129280","0.0-27.0","xnvhwam5kx","70","NaN","<div style=""width:500px;"">
                            <p style=""font-size:50px; font-weight:bold;""
                            >happy</p>
                            <div style=""width:240px; margin: auto;"">
                                <img src=""images/map26_Blues_scaleDef_orientDef_000.png"" style= ""width:200px""alt=""img"">
                            </div>
                        </div>","-200","","0","","","","images/map26_Blues_scaleDef_orientDef_000.png","happy","1","26","26","Blues","orientDef","scaleDef","000","",""
"","","","","","html-slider-response","32","131563","0.0-28.0","xnvhwam5kx","70","NaN","<div style=""width:500px;"">
                            <p style=""font-size:50px; font-weight:bold;""
                            >happy</p>
                            <div style=""width:240px; margin: auto;"">
                                <img src=""images/map26_Greens_scaleRev_orientDef_270.png"" style= ""width:200px""alt=""img"">
                            </div>
                        </div>","-49","","0","","","","images/map26_Greens_scaleRev_orientDef_270.png","happy","1","26","26","Greens","orientDef","scaleRev","270","",""
"","","","","","html-slider-response","33","133932","0.0-29.0","xnvhwam5kx","70","NaN","<div style=""width:500px;"">
                            <p style=""font-size:50px; font-weight:bold;""
                            >happy</p>
                            <div style=""width:240px; margin: auto;"">
                                <img src=""images/map23_cividis_scaleDef_orientDef_180.png"" style= ""width:200px""alt=""img"">
                            </div>
                        </div>","-120","","0","","","","images/map23_cividis_scaleDef_orientDef_180.png","happy","1","23","23","cividis","orientDef","scaleDef","180","",""
"","","","","","html-slider-response","34","136680","0.0-30.0","xnvhwam5kx","70","NaN","<div style=""width:500px;"">
                            <p style=""font-size:50px; font-weight:bold;""
                            >happy</p>
                            <div style=""width:240px; margin: auto;"">
                                <img src=""images/map12_Spectral_scaleDef_orientDef_000.png"" style= ""width:200px""alt=""img"">
                            </div>
                        </div>","-147","","0","","","","images/map12_Spectral_scaleDef_orientDef_000.png","happy","1","12","12","Spectral","orientDef","scaleDef","000","",""
"","","","","","html-slider-response","35","139160","0.0-31.0","xnvhwam5kx","70","NaN","<div style=""width:500px;"">
                            <p style=""font-size:50px; font-weight:bold;""
                            >happy</p>
                            <div style=""width:240px; margin: auto;"">
                                <img src=""images/map27_YlOrBr_scaleRev_orientDef_090.png"" style= ""width:200px""alt=""img"">
                            </div>
                        </div>","167","","0","","","","images/map27_YlOrBr_scaleRev_orientDef_090.png","happy","1","27","27","YlOrBr","orientDef","scaleRev","090","",""
"","","","","","html-slider-response","36","141519","0.0-32.0","xnvhwam5kx","70","NaN","<div style=""width:500px;"">
                            <p style=""font-size:50px; font-weight:bold;""
                            >happy</p>
                            <div style=""width:240px; margin: auto;"">
                                <img src=""images/map07_BrBG_scaleRev_orientMir_090.png"" style= ""width:200px""alt=""img"">
                            </div>
                        </div>","-107","","0","","","","images/map07_BrBG_scaleRev_orientMir_090.png","happy","1","07","07","BrBG","orientMir","scaleRev","090","",""
"","","","","","html-slider-response","37","143448","0.0-33.0","xnvhwam5kx","70","NaN","<div style=""width:500px;"">
                            <p style=""font-size:50px; font-weight:bold;""
                            >happy</p>
                            <div style=""width:240px; margin: auto;"">
                                <img src=""images/map12_coolwarm_scaleDef_orientDef_180.png"" style= ""width:200px""alt=""img"">
                            </div>
                        </div>","46","","0","","","","images/map12_coolwarm_scaleDef_orientDef_180.png","happy","1","12","12","coolwarm","orientDef","scaleDef","180","",""
"","","","","","html-slider-response","38","145289","0.0-34.0","xnvhwam5kx","70","NaN","<div style=""width:500px;"">
                            <p style=""font-size:50px; font-weight:bold;""
                            >happy</p>
                            <div style=""width:240px; margin: auto;"">
                                <img src=""images/map26_Reds_scaleRev_orientMir_270.png"" style= ""width:200px""alt=""img"">
                            </div>
                        </div>","90","","0","","","","images/map26_Reds_scaleRev_orientMir_270.png","happy","1","26","26","Reds","orientMir","scaleRev","270","",""
"","","","","","html-slider-response","39","147308","0.0-35.0","xnvhwam5kx","70","NaN","<div style=""width:500px;"">
                            <p style=""font-size:50px; font-weight:bold;""
                            >happy</p>
                            <div style=""width:240px; margin: auto;"">
                                <img src=""images/map13_berlin_scaleRev_orientDef_090.png"" style= ""width:200px""alt=""img"">
                            </div>
                        </div>","81","","0","","","","images/map13_berlin_scaleRev_orientDef_090.png","happy","1","13","13","berlin","orientDef","scaleRev","090","",""
"","","","","","html-slider-response","40","159689","0.0-36.0","xnvhwam5kx","70","NaN","<div style=""width:500px;"">
                            <p style=""font-size:50px; font-weight:bold;""
                            >happy</p>
                            <div style=""width:240px; margin: auto;"">
                                <img src=""images/map02_GnBu_scaleDef_orientMir_000.png"" style= ""width:200px""alt=""img"">
                            </div>
                        </div>","-171","","0","","","","images/map02_GnBu_scaleDef_orientMir_000.png","happy","1","02","02","GnBu","orientMir","scaleDef","000","",""
"","","","","","html-slider-response","41","162524","0.0-37.0","xnvhwam5kx","70","NaN","<div style=""width:500px;"">
                            <p style=""font-size:50px; font-weight:bold;""
                            >happy</p>
                            <div style=""width:240px; margin: auto;"">
                                <img src=""images/map02_GnBu_scaleRev_orientMir_090.png"" style= ""width:200px""alt=""img"">
                            </div>
                        </div>","-200","","0","","","","images/map02_GnBu_scaleRev_orientMir_090.png","happy","1","02","02","GnBu","orientMir","scaleRev","090","",""
"","","","","","html-slider-response","42","164770","0.0-38.0","xnvhwam5kx","70","NaN","<div style=""width:500px;"">
                            <p style=""font-size:50px; font-weight:bold;""
                            >happy</p>
                            <div style=""width:240px; margin: auto;"">
                                <img src=""images/map13_gist_earth_scaleDef_orientMir_180.png"" style= ""width:200px""alt=""img"">
                            </div>
                        </div>","-59","","0","","","","images/map13_gist_earth_scaleDef_orientMir_180.png","happy","1","13","13","gist","scaleDef","earth","orientMir","",""
"","","","","","html-slider-response","43","166455","0.0-39.0","xnvhwam5kx","70","NaN","<div style=""width:500px;"">
                            <p style=""font-size:50px; font-weight:bold;""
                            >happy</p>
                            <div style=""width:240px; margin: auto;"">
                                <img src=""images/map07_PiYG_scaleDef_orientDef_000.png"" style= ""width:200px""alt=""img"">
                            </div>
                        </div>","200","","0","","","","images/map07_PiYG_scaleDef_orientDef_000.png","happy","1","07","07","PiYG","orientDef","scaleDef","000","",""
"","","","","","html-slider-response","44","170026","0.0-40.0","xnvhwam5kx","70","NaN","<div style=""width:500px;"">
                            <p style=""font-size:50px; font-weight:bold;""
                            >happy</p>
                            <div style=""width:240px; margin: auto;"">
                                <img src=""images/map05_BuGn_scaleRev_orientMir_090.png"" style= ""width:200px""alt=""img"">
                            </div>
                        </div>","-107","","0","","","","images/map05_BuGn_scaleRev_orientMir_090.png","happy","1","05","05","BuGn","orientMir","scaleRev","090","",""
"","","","","","html-slider-response","45","172271","0.0-41.0","xnvhwam5kx","70","NaN","<div style=""width:500px;"">
                            <p style=""font-size:50px; font-weight:bold;""
                            >happy</p>
                            <div style=""width:240px; margin: auto;"">
                                <img src=""images/map15_viridis_scaleDef_orientDef_180.png"" style= ""width:200px""alt=""img"">
                            </div>
                        </div>","-53","","0","","","","images/map15_viridis_scaleDef_orientDef_180.png","happy","1","15","15","viridis","orientDef","scaleDef","180","",""
"","","","","","html-slider-response","46","174682","0.0-42.0","xnvhwam5kx","70","NaN","<div style=""width:500px;"">
                            <p style=""font-size:50px; font-weight:bold;""
                            >happy</p>
                            <div style=""width:240px; margin: auto;"">
                                <img src=""images/map13_vanimo_scaleRev_orientMir_090.png"" style= ""width:200px""alt=""img"">
                            </div>
                        </div>","-62","","0","","","","images/map13_vanimo_scaleRev_orientMir_090.png","happy","1","13","13","vanimo","orientMir","scaleRev","090","",""
"","","","","","html-slider-response","47","184388","0.0-43.0","xnvhwam5kx","70","NaN","<div style=""width:500px;"">
                            <p style=""font-size:50px; font-weight:bold;""
                            >happy</p>
                            <div style=""width:240px; margin: auto;"">
                                <img src=""images/map27_PuRd_scaleDef_orientMir_180.png"" style= ""width:200px""alt=""img"">
                            </div>
                        </div>","194","","0","","","","images/map27_PuRd_scaleDef_orientMir_180.png","happy","1","27","27","PuRd","orientMir","scaleDef","180","",""
"","","","","","html-slider-response","48","194025","0.0-44.0","xnvhwam5kx","70","NaN","<div style=""width:500px;"">
                            <p style=""font-size:50px; font-weight:bold;""
                            >happy</p>
                            <div style=""width:240px; margin: auto;"">
                                <img src=""images/map10_RdYlGn_scaleRev_orientMir_270.png"" style= ""width:200px""alt=""img"">
                            </div>
                        </div>","-78","","0","","","","images/map10_RdYlGn_scaleRev_orientMir_270.png","happy","1","10","10","RdYlGn","orientMir","scaleRev","270","",""
"","","","","","html-slider-response","49","196225","0.0-45.0","xnvhwam5kx","70","NaN","<div style=""width:500px;"">
                            <p style=""font-size:50px; font-weight:bold;""
                            >happy</p>
                            <div style=""width:240px; margin: auto;"">
                                <img src=""images/map27_PuRd_scaleRev_orientMir_270.png"" style= ""width:200px""alt=""img"">
                            </div>
                        </div>","200","","0","","","","images/map27_PuRd_scaleRev_orientMir_270.png","happy","1","27","27","PuRd","orientMir","scaleRev","270","",""
"","","","","","html-slider-response","50","198213","0.0-46.0","xnvhwam5kx","70","NaN","<div style=""width:500px;"">
                            <p style=""font-size:50px; font-weight:bold;""
                            >happy</p>
                            <div style=""width:240px; margin: auto;"">
                                <img src=""images/map23_cividis_scaleRev_orientDef_270.png"" style= ""width:200px""alt=""img"">
                            </div>
                        </div>","-166","","0","","","","images/map23_cividis_scaleRev_orientDef_270.png","happy","1","23","23","cividis","orientDef","scaleRev","270","",""
"","","","","","html-slider-response","51","200789","0.0-47.0","xnvhwam5kx","70","NaN","<div style=""width:500px;"">
                            <p style=""font-size:50px; font-weight:bold;""
                            >happy</p>
                            <div style=""width:240px; margin: auto;"">
                                <img src=""images/map07_BrBG_scaleDef_orientMir_000.png"" style= ""width:200px""alt=""img"">
                            </div>
                        </div>","-122","","0","","","","images/map07_BrBG_scaleDef_orientMir_000.png","happy","1","07","07","BrBG","orientMir","scaleDef","000","",""
"","","","","","html-slider-response","52","202706","0.0-48.0","xnvhwam5kx","70","NaN","<div style=""width:500px;"">
                            <p style=""font-size:50px; font-weight:bold;""
                            >happy</p>
                            <div style=""width:240px; margin: auto;"">
                                <img src=""images/map10_RdGy_scaleRev_orientDef_090.png"" style= ""width:200px""alt=""img"">
                            </div>
                        </div>","-129","","0","","","","images/map10_RdGy_scaleRev_orientDef_090.png","happy","1","10","10","RdGy","orientDef","scaleRev","090","",""
"","","","","","html-slider-response","53","204711","0.0-49.0","xnvhwam5kx","70","NaN","<div style=""width:500px;"">
                            <p style=""font-size:50px; font-weight:bold;""
                            >happy</p>
                            <div style=""width:240px; margin: auto;"">
                                <img src=""images/map27_YlOrRd_scaleRev_orientDef_270.png"" style= ""width:200px""alt=""img"">
                            </div>
                        </div>","-110","","0","","","","images/map27_YlOrRd_scaleRev_orientDef_270.png","happy","1","27","27","YlOrRd","orientDef","scaleRev","270","",""
"","","","","","html-slider-response","54","207999","0.0-50.0","xnvhwam5kx","70","NaN","<div style=""width:500px;"">
                            <p style=""font-size:50px; font-weight:bold;""
                            >happy</p>
                            <div style=""width:240px; margin: auto;"">
                                <img src=""images/map26_Oranges_scaleDef_orientMir_000.png"" style= ""width:200px""alt=""img"">
                            </div>
                        </div>","-107","","0","","","","images/map26_Oranges_scaleDef_orientMir_000.png","happy","1","26","26","Oranges","orientMir","scaleDef","000","",""
"","","","","","html-slider-response","55","210927","0.0-51.0","xnvhwam5kx","70","NaN","<div style=""width:500px;"">
                            <p style=""font-size:50px; font-weight:bold;""
                            >happy</p>
                            <div style=""width:240px; margin: auto;"">
                                <img src=""images/map15_inferno_scaleRev_orientMir_270.png"" style= ""width:200px""alt=""img"">
                            </div>
                        </div>","-122","","0","","","","images/map15_inferno_scaleRev_orientMir_270.png","happy","1","15","15","inferno","orientMir","scaleRev","270","",""
"","","","","","html-slider-response","56","214666","0.0-52.0","xnvhwam5kx","70","NaN","<div style=""width:500px;"">
                            <p style=""font-size:50px; font-weight:bold;""
                            >happy</p>
                            <div style=""width:240px; margin: auto;"">
                                <img src=""images/map23_magma_scaleRev_orientDef_090.png"" style= ""width:200px""alt=""img"">
                            </div>
                        </div>","130","","0","","","","images/map23_magma_scaleRev_orientDef_090.png","happy","1","23","23","magma","orientDef","scaleRev","090","",""
"","","","","","html-slider-response","57","217883","0.0-53.0","xnvhwam5kx","70","NaN","<div style=""width:500px;"">
                            <p style=""font-size:50px; font-weight:bold;""
                            >happy</p>
                            <div style=""width:240px; margin: auto;"">
                                <img src=""images/map05_PuBuGn_scaleRev_orientDef_270.png"" style= ""width:200px""alt=""img"">
                            </div>
                        </div>","-122","","0","","","","images/map05_PuBuGn_scaleRev_orientDef_270.png","happy","1","05","05","PuBuGn","orientDef","scaleRev","270","",""
"","","","","","html-button-response","58","222166","0.0-54.0","xnvhwam5kx","70","3780","<p>You are doing great!<br></br> You are halway done with the current block. When you are ready to continue, click the 'Continue' button.</p>","0","","","","","","","","","","","","","","","",""
"","","","","","html-slider-response","59","224681","0.0-55.0","xnvhwam5kx","70","NaN","<div style=""width:500px;"">
                            <p style=""font-size:50px; font-weight:bold;""
                            >happy</p>
                            <div style=""width:240px; margin: auto;"">
                                <img src=""images/map12_Spectral_scaleRev_orientDef_090.png"" style= ""width:200px""alt=""img"">
                            </div>
                        </div>","53","","0","","","","images/map12_Spectral_scaleRev_orientDef_090.png","happy","1","12","12","Spectral","orientDef","scaleRev","090","",""
"","","","","","html-slider-response","60","226850","0.0-56.0","xnvhwam5kx","70","NaN","<div style=""width:500px;"">
                            <p style=""font-size:50px; font-weight:bold;""
                            >happy</p>
                            <div style=""width:240px; margin: auto;"">
                                <img src=""images/map13_managua_scaleDef_orientDef_180.png"" style= ""width:200px""alt=""img"">
                            </div>
                        </div>","-164","","0","","","","images/map13_managua_scaleDef_orientDef_180.png","happy","1","13","13","managua","orientDef","scaleDef","180","",""
"","","","","","html-slider-response","61","229338","0.0-57.0","xnvhwam5kx","70","NaN","<div style=""width:500px;"">
                            <p style=""font-size:50px; font-weight:bold;""
                            >happy</p>
                            <div style=""width:240px; margin: auto;"">
                                <img src=""images/map05_PuBuGn_scaleDef_orientDef_180.png"" style= ""width:200px""alt=""img"">
                            </div>
                        </div>","-78","","0","","","","images/map05_PuBuGn_scaleDef_orientDef_180.png","happy","1","05","05","PuBuGn","orientDef","scaleDef","180","",""
"","","","","","html-slider-response","62","231468","0.0-58.0","xnvhwam5kx","70","NaN","<div style=""width:500px;"">
                            <p style=""font-size:50px; font-weight:bold;""
                            >happy</p>
                            <div style=""width:240px; margin: auto;"">
                                <img src=""images/map12_seismic_scaleRev_orientMir_270.png"" style= ""width:200px""alt=""img"">
                            </div>
                        </div>","98","","0","","","","images/map12_seismic_scaleRev_orientMir_270.png","happy","1","12","12","seismic","orientMir","scaleRev","270","",""
"","","","","","html-slider-response","63","233434","0.0-59.0","xnvhwam5kx","70","NaN","<div style=""width:500px;"">
                            <p style=""font-size:50px; font-weight:bold;""
                            >happy</p>
                            <div style=""width:240px; margin: auto;"">
                                <img src=""images/map15_turbo_scaleDef_orientDef_000.png"" style= ""width:200px""alt=""img"">
                            </div>
                        </div>","-75","","0","","","","images/map15_turbo_scaleDef_orientDef_000.png","happy","1","15","15","turbo","orientDef","scaleDef","000","",""
"","","","","","html-slider-response","64","235690","0.0-60.0","xnvhwam5kx","70","NaN","<div style=""width:500px;"">
                            <p style=""font-size:50px; font-weight:bold;""
                            >happy</p>
                            <div style=""width:240px; margin: auto;"">
                                <img src=""images/map10_RdGy_scaleDef_orientDef_000.png"" style= ""width:200px""alt=""img"">
                            </div>
                        </div>","-158","","0","","","","images/map10_RdGy_scaleDef_orientDef_000.png","happy","1","10","10","RdGy","orientDef","scaleDef","000","",""
"","","","","","html-slider-response","65","237623","0.0-61.0","xnvhwam5kx","70","NaN","<div style=""width:500px;"">
                            <p style=""font-size:50px; font-weight:bold;""
                            >happy</p>
                            <div style=""width:240px; margin: auto;"">
                                <img src=""images/map26_Blues_scaleRev_orientDef_090.png"" style= ""width:200px""alt=""img"">
                            </div>
                        </div>","-80","","0","","","","images/map26_Blues_scaleRev_orientDef_090.png","happy","1","26","26","Blues","orientDef","scaleRev","090","",""
"","","","","","html-slider-response","66","239652","0.0-62.0","xnvhwam5kx","70","NaN","<div style=""width:500px;"">
                            <p style=""font-size:50px; font-weight:bold;""
                            >happy</p>
                            <div style=""width:240px; margin: auto;"">
                                <img src=""images/map13_vanimo_scaleDef_orientMir_000.png"" style= ""width:200px""alt=""img"">
                            </div>
                        </div>","-29","","0","","","","images/map13_vanimo_scaleDef_orientMir_000.png","happy","1","13","13","vanimo","orientMir","scaleDef","000","",""
"","","","","","html-slider-response","67","243617","0.0-63.0","xnvhwam5kx","70","NaN","<div style=""width:500px;"">
                            <p style=""font-size:50px; font-weight:bold;""
                            >happy</p>
                            <div style=""width:240px; margin: auto;"">
                                <img src=""images/map23_Purples_scaleDef_orientMir_180.png"" style= ""width:200px""alt=""img"">
                            </div>
                        </div>","-47","","0","","","","images/map23_Purples_scaleDef_orientMir_180.png","happy","1","23","23","Purples","orientMir","scaleDef","180","",""
"","","","","","html-slider-response","68","245668","0.0-64.0","xnvhwam5kx","70","NaN","<div style=""width:500px;"">
                            <p style=""font-size:50px; font-weight:bold;""
                            >happy</p>
                            <div style=""width:240px; margin: auto;"">
                                <img src=""images/map26_Oranges_scaleRev_orientMir_090.png"" style= ""width:200px""alt=""img"">
                            </div>
                        </div>","-94","","0","","","","images/map26_Oranges_scaleRev_orientMir_090.png","happy","1","26","26","Oranges","orientMir","scaleRev","090","",""
"","","","","","html-slider-response","69","248001","0.0-65.0","xnvhwam5kx","70","NaN","<div style=""width:500px;"">
                            <p style=""font-size:50px; font-weight:bold;""
                            >happy</p>
                            <div style=""width:240px; margin: auto;"">
                                <img src=""images/map23_Greys_scaleDef_orientMir_000.png"" style= ""width:200px""alt=""img"">
                            </div>
                        </div>","-200","","0","","","","images/map23_Greys_scaleDef_orientMir_000.png","happy","1","23","23","Greys","orientMir","scaleDef","000","",""
"","","","","","html-slider-response","70","250774","0.0-66.0","xnvhwam5kx","70","NaN","<div style=""width:500px;"">
                            <p style=""font-size:50px; font-weight:bold;""
                            >happy</p>
                            <div style=""width:240px; margin: auto;"">
                                <img src=""images/map07_PRGn_scaleDef_orientDef_180.png"" style= ""width:200px""alt=""img"">
                            </div>
                        </div>","-106","","0","","","","images/map07_PRGn_scaleDef_orientDef_180.png","happy","1","07","07","PRGn","orientDef","scaleDef","180","",""
"","","","","","html-slider-response","71","252969","0.0-67.0","xnvhwam5kx","70","NaN","<div style=""width:500px;"">
                            <p style=""font-size:50px; font-weight:bold;""
                            >happy</p>
                            <div style=""width:240px; margin: auto;"">
                                <img src=""images/map05_YlGnBu_scaleDef_orientDef_000.png"" style= ""width:200px""alt=""img"">
                            </div>
                        </div>","-82","","0","","","","images/map05_YlGnBu_scaleDef_orientDef_000.png","happy","1","05","05","YlGnBu","orientDef","scaleDef","000","",""
"","","","","","html-slider-response","72","256580","0.0-68.0","xnvhwam5kx","70","NaN","<div style=""width:500px;"">
                            <p style=""font-size:50px; font-weight:bold;""
                            >happy</p>
                            <div style=""width:240px; margin: auto;"">
                                <img src=""images/map02_BuPu_scaleDef_orientDef_180.png"" style= ""width:200px""alt=""img"">
                            </div>
                        </div>","46","","0","","","","images/map02_BuPu_scaleDef_orientDef_180.png","happy","1","02","02","BuPu","orientDef","scaleDef","180","",""
"","","","","","html-slider-response","73","258510","0.0-69.0","xnvhwam5kx","70","NaN","<div style=""width:500px;"">
                            <p style=""font-size:50px; font-weight:bold;""
                            >happy</p>
                            <div style=""width:240px; margin: auto;"">
                                <img src=""images/map26_Reds_scaleDef_orientMir_180.png"" style= ""width:200px""alt=""img"">
                            </div>
                        </div>","-32","","0","","","","images/map26_Reds_scaleDef_orientMir_180.png","happy","1","26","26","Reds","orientMir","scaleDef","180","",""
"","","","","","html-slider-response","74","262155","0.0-70.0","xnvhwam5kx","70","NaN","<div style=""width:500px;"">
                            <p style=""font-size:50px; font-weight:bold;""
                            >happy</p>
                            <div style=""width:240px; margin: auto;"">
                                <img src=""images/map15_plasma_scaleDef_orientMir_000.png"" style= ""width:200px""alt=""img"">
                            </div>
                        </div>","-53","","0","","","","images/map15_plasma_scaleDef_orientMir_000.png","happy","1","15","15","plasma","orientMir","scaleDef","000","",""
"","","","","","html-slider-response","75","264328","0.0-71.0","xnvhwam5kx","70","NaN","<div style=""width:500px;"">
                            <p style=""font-size:50px; font-weight:bold;""
                            >happy</p>
                            <div style=""width:240px; margin: auto;"">
                                <img src=""images/map02_RdPu_scaleDef_orientDef_000.png"" style= ""width:200px""alt=""img"">
                            </div>
                        </div>","138","","0","","","","images/map02_RdPu_scaleDef_orientDef_000.png","happy","1","02","02","RdPu","orientDef","scaleDef","000","",""
"","","","","","html-slider-response","76","267188","0.0-72.0","xnvhwam5kx","70","NaN","<div style=""width:500px;"">
                            <p style=""font-size:50px; font-weight:bold;""
                            >happy</p>
                            <div style=""width:240px; margin: auto;"">
                                <img src=""images/map13_managua_scaleRev_orientDef_270.png"" style= ""width:200px""alt=""img"">
                            </div>
                        </div>","-81","","0","","","","images/map13_managua_scaleRev_orientDef_270.png","happy","1","13","13","managua","orientDef","scaleRev","270","",""
"","","","","","html-slider-response","77","268990","0.0-73.0","xnvhwam5kx","70","NaN","<div style=""width:500px;"">
                            <p style=""font-size:50px; font-weight:bold;""
                            >happy</p>
                            <div style=""width:240px; margin: auto;"">
                                <img src=""images/map12_seismic_scaleDef_orientMir_180.png"" style= ""width:200px""alt=""img"">
                            </div>
                        </div>","-95","","0","","","","images/map12_seismic_scaleDef_orientMir_180.png","happy","1","12","12","seismic","orientMir","scaleDef","180","",""
"","","","","","html-slider-response","78","272034","0.0-74.0","xnvhwam5kx","70","NaN","<div style=""width:500px;"">
                            <p style=""font-size:50px; font-weight:bold;""
                            >happy</p>
                            <div style=""width:240px; margin: auto;"">
                                <img src=""images/map12_bwr_scaleRev_orientMir_090.png"" style= ""width:200px""alt=""img"">
                            </div>
                        </div>","-65","","0","","","","images/map12_bwr_scaleRev_orientMir_090.png","happy","1","12","12","bwr","orientMir","scaleRev","090","",""
"","","","","","html-slider-response","79","273632","0.0-75.0","xnvhwam5kx","70","NaN","<div style=""width:500px;"">
                            <p style=""font-size:50px; font-weight:bold;""
                            >happy</p>
                            <div style=""width:240px; margin: auto;"">
                                <img src=""images/map05_YlGn_scaleDef_orientMir_180.png"" style= ""width:200px""alt=""img"">
                            </div>
                        </div>","-200","","0","","","","images/map05_YlGn_scaleDef_orientMir_180.png","happy","1","05","05","YlGn","orientMir","scaleDef","180","",""
"","","","","","html-slider-response","80","276223","0.0-76.0","xnvhwam5kx","70","NaN","<div style=""width:500px;"">
                            <p style=""font-size:50px; font-weight:bold;""
                            >happy</p>
                            <div style=""width:240px; margin: auto;"">
                                <img src=""images/map05_BuGn_scaleDef_orientMir_000.png"" style= ""width:200px""alt=""img"">
                            </div>
                        </div>","-129","","0","","","","images/map05_BuGn_scaleDef_orientMir_000.png","happy","1","05","05","BuGn","orientMir","scaleDef","000","",""
"","","","","","html-slider-response","81","278050","0.0-77.0","xnvhwam5kx","70","NaN","<div style=""width:500px;"">
                            <p style=""font-size:50px; font-weight:bold;""
                            >happy</p>
                            <div style=""width:240px; margin: auto;"">
                                <img src=""images/map05_YlGn_scaleRev_orientMir_270.png"" style= ""width:200px""alt=""img"">
                            </div>
                        </div>","-143","","0","","","","images/map05_YlGn_scaleRev_orientMir_270.png","happy","1","05","05","YlGn","orientMir","scaleRev","270","",""
"","","","","","html-slider-response","82","280163","0.0-78.0","xnvhwam5kx","70","NaN","<div style=""width:500px;"">
                            <p style=""font-size:50px; font-weight:bold;""
                            >happy</p>
                            <div style=""width:240px; margin: auto;"">
                                <img src=""images/map02_PuBu_scaleDef_orientMir_180.png"" style= ""width:200px""alt=""img"">
                            </div>
                        </div>","-172","","0","","","","images/map02_PuBu_scaleDef_orientMir_180.png","happy","1","02","02","PuBu","orientMir","scaleDef","180","",""
"","","","","","html-slider-response","83","282381","0.0-79.0","xnvhwam5kx","70","NaN","<div style=""width:500px;"">
                            <p style=""font-size:50px; font-weight:bold;""
                            >happy</p>
                            <div style=""width:240px; margin: auto;"">
                                <img src=""images/map07_PuOr_scaleRev_orientMir_270.png"" style= ""width:200px""alt=""img"">
                            </div>
                        </div>","-63","","0","","","","images/map07_PuOr_scaleRev_orientMir_270.png","happy","1","07","07","PuOr","orientMir","scaleRev","270","",""
"","","","","","html-slider-response","84","285006","0.0-80.0","xnvhwam5kx","70","NaN","<div style=""width:500px;"">
                            <p style=""font-size:50px; font-weight:bold;""
                            >happy</p>
                            <div style=""width:240px; margin: auto;"">
                                <img src=""images/map10_RdBu_scaleRev_orientDef_270.png"" style= ""width:200px""alt=""img"">
                            </div>
                        </div>","-125","","0","","","","images/map10_RdBu_scaleRev_orientDef_270.png","happy","1","10","10","RdBu","orientDef","scaleRev","270","",""
"","","","","","html-slider-response","85","288862","0.0-81.0","xnvhwam5kx","70","NaN","<div style=""width:500px;"">
                            <p style=""font-size:50px; font-weight:bold;""
                            >happy</p>
                            <div style=""width:240px; margin: auto;"">
                                <img src=""images/map23_Greys_scaleRev_orientMir_090.png"" style= ""width:200px""alt=""img"">
                            </div>
                        </div>","-200","","0","","","","images/map23_Greys_scaleRev_orientMir_090.png","happy","1","23","23","Greys","orientMir","scaleRev","090","",""
"","","","","","html-slider-response","86","292154","0.0-82.0","xnvhwam5kx","70","NaN","<div style=""width:500px;"">
                            <p style=""font-size:50px; font-weight:bold;""
                            >happy</p>
                            <div style=""width:240px; margin: auto;"">
                                <img src=""images/map27_YlOrRd_scaleDef_orientDef_180.png"" style= ""width:200px""alt=""img"">
                            </div>
                        </div>","-102","","0","","","","images/map27_YlOrRd_scaleDef_orientDef_180.png","happy","1","27","27","YlOrRd","orientDef","scaleDef","180","",""
"","","","","","html-slider-response","87","294727","0.0-83.0","xnvhwam5kx","70","NaN","<div style=""width:500px;"">
                            <p style=""font-size:50px; font-weight:bold;""
                            >happy</p>
                            <div style=""width:240px; margin: auto;"">
                                <img src=""images/map27_OrRd_scaleRev_orientMir_090.png"" style= ""width:200px""alt=""img"">
                            </div>
                        </div>","-104","","0","","","","images/map27_OrRd_scaleRev_orientMir_090.png","happy","1","27","27","OrRd","orientMir","scaleRev","090","",""
"","","","","","html-slider-response","88","296502","0.0-84.0","xnvhwam5kx","70","NaN","<div style=""width:500px;"">
                            <p style=""font-size:50px; font-weight:bold;""
                            >happy</p>
                            <div style=""width:240px; margin: auto;"">
                                <img src=""images/map10_RdYlBu_scaleDef_orientMir_000.png"" style= ""width:200px""alt=""img"">
                            </div>
                        </div>","-174","","0","","","","images/map10_RdYlBu_scaleDef_orientMir_000.png","happy","1","10","10","RdYlBu","orientMir","scaleDef","000","",""
"","","","","","html-slider-response","89","298393","0.0-85.0","xnvhwam5kx","70","NaN","<div style=""width:500px;"">
                            <p style=""font-size:50px; font-weight:bold;""
                            >happy</p>
                            <div style=""width:240px; margin: auto;"">
                                <img src=""images/map02_BuPu_scaleRev_orientDef_270.png"" style= ""width:200px""alt=""img"">
                            </div>
                        </div>","-52","","0","","","","images/map02_BuPu_scaleRev_orientDef_270.png","happy","1","02","02","BuPu","orientDef","scaleRev","270","",""
"","","","","","html-slider-response","90","300785","0.0-86.0","xnvhwam5kx","70","NaN","<div style=""width:500px;"">
                            <p style=""font-size:50px; font-weight:bold;""
                            >happy</p>
                            <div style=""width:240px; margin: auto;"">
                                <img src=""images/map07_PiYG_scaleRev_orientDef_090.png"" style= ""width:200px""alt=""img"">
                            </div>
                        </div>","-22","","0","","","","images/map07_PiYG_scaleRev_orientDef_090.png","happy","1","07","07","PiYG","orientDef","scaleRev","090","",""
"","","","","","html-slider-response","91","302471","0.0-87.0","xnvhwam5kx","70","NaN","<div style=""width:500px;"">
                            <p style=""font-size:50px; font-weight:bold;""
                            >happy</p>
                            <div style=""width:240px; margin: auto;"">
                                <img src=""images/map07_PRGn_scaleRev_orientDef_270.png"" style= ""width:200px""alt=""img"">
                            </div>
                        </div>","-19","","0","","","","images/map07_PRGn_scaleRev_orientDef_270.png","happy","1","07","07","PRGn","orientDef","scaleRev","270","",""
"","","","","","html-slider-response","92","304777","0.0-88.0","xnvhwam5kx","70","NaN","<div style=""width:500px;"">
                            <p style=""font-size:50px; font-weight:bold;""
                            >happy</p>
                            <div style=""width:240px; margin: auto;"">
                                <img src=""images/map27_OrRd_scaleDef_orientMir_000.png"" style= ""width:200px""alt=""img"">
                            </div>
                        </div>","-24","","0","","","","images/map27_OrRd_scaleDef_orientMir_000.png","happy","1","27","27","OrRd","orientMir","scaleDef","000","",""
"","","","","","html-slider-response","93","306898","0.0-89.0","xnvhwam5kx","70","NaN","<div style=""width:500px;"">
                            <p style=""font-size:50px; font-weight:bold;""
                            >happy</p>
                            <div style=""width:240px; margin: auto;"">
                                <img src=""images/map23_magma_scaleDef_orientDef_000.png"" style= ""width:200px""alt=""img"">
                            </div>
                        </div>","-171","","0","","","","images/map23_magma_scaleDef_orientDef_000.png","happy","1","23","23","magma","orientDef","scaleDef","000","",""
"","","","","","html-slider-response","94","308970","0.0-90.0","xnvhwam5kx","70","NaN","<div style=""width:500px;"">
                            <p style=""font-size:50px; font-weight:bold;""
                            >happy</p>
                            <div style=""width:240px; margin: auto;"">
                                <img src=""images/map13_gist_earth_scaleRev_orientMir_270.png"" style= ""width:200px""alt=""img"">
                            </div>
                        </div>","-200","","0","","","","images/map13_gist_earth_scaleRev_orientMir_270.png","happy","1","13","13","gist","scaleRev","earth","orientMir","",""
"","","","","","html-slider-response","95","311315","0.0-91.0","xnvhwam5kx","70","NaN","<div style=""width:500px;"">
                            <p style=""font-size:50px; font-weight:bold;""
                            >happy</p>
                            <div style=""width:240px; margin: auto;"">
                                <img src=""images/map23_Purples_scaleRev_orientMir_270.png"" style= ""width:200px""alt=""img"">
                            </div>
                        </div>","-46","","0","","","","images/map23_Purples_scaleRev_orientMir_270.png","happy","1","23","23","Purples","orientMir","scaleRev","270","",""
"","","","","","html-slider-response","96","313474","0.0-92.0","xnvhwam5kx","70","NaN","<div style=""width:500px;"">
                            <p style=""font-size:50px; font-weight:bold;""
                            >happy</p>
                            <div style=""width:240px; margin: auto;"">
                                <img src=""images/map15_plasma_scaleRev_orientMir_090.png"" style= ""width:200px""alt=""img"">
                            </div>
                        </div>","62","","0","","","","images/map15_plasma_scaleRev_orientMir_090.png","happy","1","15","15","plasma","orientMir","scaleRev","090","",""
"","","","","","html-slider-response","97","315231","0.0-93.0","xnvhwam5kx","70","NaN","<div style=""width:500px;"">
                            <p style=""font-size:50px; font-weight:bold;""
                            >happy</p>
                            <div style=""width:240px; margin: auto;"">
                                <img src=""images/map13_berlin_scaleDef_orientDef_000.png"" style= ""width:200px""alt=""img"">
                            </div>
                        </div>","-39","","0","","","","images/map13_berlin_scaleDef_orientDef_000.png","happy","1","13","13","berlin","orientDef","scaleDef","000","",""
"","","","","","html-slider-response","98","316823","0.0-94.0","xnvhwam5kx","70","NaN","<div style=""width:500px;"">
                            <p style=""font-size:50px; font-weight:bold;""
                            >happy</p>
                            <div style=""width:240px; margin: auto;"">
                                <img src=""images/map12_coolwarm_scaleRev_orientDef_270.png"" style= ""width:200px""alt=""img"">
                            </div>
                        </div>","70","","0","","","","images/map12_coolwarm_scaleRev_orientDef_270.png","happy","1","12","12","coolwarm","orientDef","scaleRev","270","",""
"","","","","","html-button-response","99","320057","0.0-95.0","xnvhwam5kx","70","2731","<p>Great Job! You've finished block 1.<br></br> You have 4 block(s) left to go.<br></br></p>","0","","","","","","","","","","","","","","","",""
"","","","","","html-button-response","100","322740","0.0-96.0","xnvhwam5kx","70","2681","<p>In this block of trials, you will be asked to rate how much you associate each map with:</p > <p style = 'font-size:150%; font-weight: bold'>angry</p><br></br>","0","","","","","","","","","","","","","","","",""
"","","","","","html-slider-response","101","324590","0.0-97.0","xnvhwam5kx","70","NaN","<div style=""width:500px;"">
                            <p style=""font-size:50px; font-weight:bold;""
                            >angry</p>
                            <div style=""width:240px; margin: auto;"">
                                <img src=""images/map26_Reds_scaleDef_orientMir_180.png"" style= ""width:200px""alt=""img"">
                            </div>
                        </div>","200","","0","","","","images/map26_Reds_scaleDef_orientMir_180.png","angry","1","26","26","Reds","orientMir","scaleDef","180","",""
"","","","","","html-slider-response","102","326930","0.0-98.0","xnvhwam5kx","70","NaN","<div style=""width:500px;"">
                            <p style=""font-size:50px; font-weight:bold;""
                            >angry</p>
                            <div style=""width:240px; margin: auto;"">
                                <img src=""images/map10_RdYlGn_scaleDef_orientMir_180.png"" style= ""width:200px""alt=""img"">
                            </div>
                        </div>","82","","0","","","","images/map10_RdYlGn_scaleDef_orientMir_180.png","angry","1","10","10","RdYlGn","orientMir","scaleDef","180","",""
"","","","","","html-slider-response","103","328658","0.0-99.0","xnvhwam5kx","70","NaN","<div style=""width:500px;"">
                            <p style=""font-size:50px; font-weight:bold;""
                            >angry</p>
                            <div style=""width:240px; margin: auto;"">
                                <img src=""images/map15_inferno_scaleRev_orientMir_270.png"" style= ""width:200px""alt=""img"">
                            </div>
                        </div>","162","","0","","","","images/map15_inferno_scaleRev_orientMir_270.png","angry","1","15","15","inferno","orientMir","scaleRev","270","",""
"","","","","","html-slider-response","104","331301","0.0-100.0","xnvhwam5kx","70","NaN","<div style=""width:500px;"">
                            <p style=""font-size:50px; font-weight:bold;""
                            >angry</p>
                            <div style=""width:240px; margin: auto;"">
                                <img src=""images/map07_PuOr_scaleDef_orientMir_180.png"" style= ""width:200px""alt=""img"">
                            </div>
                        </div>","-25","","0","","","","images/map07_PuOr_scaleDef_orientMir_180.png","angry","1","07","07","PuOr","orientMir","scaleDef","180","",""
"","","","","","html-slider-response","105","333434","0.0-101.0","xnvhwam5kx","70","NaN","<div style=""width:500px;"">
                            <p style=""font-size:50px; font-weight:bold;""
                            >angry</p>
                            <div style=""width:240px; margin: auto;"">
                                <img src=""images/map26_Reds_scaleRev_orientMir_270.png"" style= ""width:200px""alt=""img"">
                            </div>
                        </div>","200","","0","","","","images/map26_Reds_scaleRev_orientMir_270.png","angry","1","26","26","Reds","orientMir","scaleRev","270","",""
"","","","","","html-slider-response","106","335696","0.0-102.0","xnvhwam5kx","70","NaN","<div style=""width:500px;"">
                            <p style=""font-size:50px; font-weight:bold;""
                            >angry</p>
                            <div style=""width:240px; margin: auto;"">
                                <img src=""images/map10_RdBu_scaleRev_orientDef_270.png"" style= ""width:200px""alt=""img"">
                            </div>
                        </div>","112","","0","","","","images/map10_RdBu_scaleRev_orientDef_270.png","angry","1","10","10","RdBu","orientDef","scaleRev","270","",""
"","","","","","html-slider-response","107","337839","0.0-103.0","xnvhwam5kx","70","NaN","<div style=""width:500px;"">
                            <p style=""font-size:50px; font-weight:bold;""
                            >angry</p>
                            <div style=""width:240px; margin: auto;"">
                                <img src=""images/map15_plasma_scaleDef_orientMir_000.png"" style= ""width:200px""alt=""img"">
                            </div>
                        </div>","200","","0","","","","images/map15_plasma_scaleDef_orientMir_000.png","angry","1","15","15","plasma","orientMir","scaleDef","000","",""
"","","","","","html-slider-response","108","339677","0.0-104.0","xnvhwam5kx","70","NaN","<div style=""width:500px;"">
                            <p style=""font-size:50px; font-weight:bold;""
                            >angry</p>
                            <div style=""width:240px; margin: auto;"">
                                <img src=""images/map15_viridis_scaleDef_orientDef_180.png"" style= ""width:200px""alt=""img"">
                            </div>
                        </div>","47","","0","","","","images/map15_viridis_scaleDef_orientDef_180.png","angry","1","15","15","viridis","orientDef","scaleDef","180","",""
"","","","","","html-slider-response","109","341657","0.0-105.0","xnvhwam5kx","70","NaN","<div style=""width:500px;"">
                            <p style=""font-size:50px; font-weight:bold;""
                            >angry</p>
                            <div style=""width:240px; margin: auto;"">
                                <img src=""images/map02_PuBu_scaleRev_orientMir_270.png"" style= ""width:200px""alt=""img"">
                            </div>
                        </div>","-97","","0","","","","images/map02_PuBu_scaleRev_orientMir_270.png","angry","1","02","02","PuBu","orientMir","scaleRev","270","",""
"","","","","","html-slider-response","110","344184","0.0-106.0","xnvhwam5kx","70","NaN","<div style=""width:500px;"">
                            <p style=""font-size:50px; font-weight:bold;""
                            >angry</p>
                            <div style=""width:240px; margin: auto;"">
                                <img src=""images/map27_YlOrRd_scaleRev_orientDef_270.png"" style= ""width:200px""alt=""img"">
                            </div>
                        </div>","200","","0","","","","images/map27_YlOrRd_scaleRev_orientDef_270.png","angry","1","27","27","YlOrRd","orientDef","scaleRev","270","",""
"","","","","","html-slider-response","111","347374","0.0-107.0","xnvhwam5kx","70","NaN","<div style=""width:500px;"">
                            <p style=""font-size:50px; font-weight:bold;""
                            >angry</p>
                            <div style=""width:240px; margin: auto;"">
                                <img src=""images/map12_seismic_scaleRev_orientMir_270.png"" style= ""width:200px""alt=""img"">
                            </div>
                        </div>","139","","0","","","","images/map12_seismic_scaleRev_orientMir_270.png","angry","1","12","12","seismic","orientMir","scaleRev","270","",""
"","","","","","html-slider-response","112","350867","0.0-108.0","xnvhwam5kx","70","NaN","<div style=""width:500px;"">
                            <p style=""font-size:50px; font-weight:bold;""
                            >angry</p>
                            <div style=""width:240px; margin: auto;"">
                                <img src=""images/map05_PuBuGn_scaleDef_orientDef_180.png"" style= ""width:200px""alt=""img"">
                            </div>
                        </div>","-45","","0","","","","images/map05_PuBuGn_scaleDef_orientDef_180.png","angry","1","05","05","PuBuGn","orientDef","scaleDef","180","",""
"","","","","","html-slider-response","113","352491","0.0-109.0","xnvhwam5kx","70","NaN","<div style=""width:500px;"">
                            <p style=""font-size:50px; font-weight:bold;""
                            >angry</p>
                            <div style=""width:240px; margin: auto;"">
                                <img src=""images/map07_PRGn_scaleRev_orientDef_270.png"" style= ""width:200px""alt=""img"">
                            </div>
                        </div>","79","","0","","","","images/map07_PRGn_scaleRev_orientDef_270.png","angry","1","07","07","PRGn","orientDef","scaleRev","270","",""
"","","","","","html-slider-response","114","354806","0.0-110.0","xnvhwam5kx","70","NaN","<div style=""width:500px;"">
                            <p style=""font-size:50px; font-weight:bold;""
                            >angry</p>
                            <div style=""width:240px; margin: auto;"">
                                <img src=""images/map02_GnBu_scaleDef_orientMir_000.png"" style= ""width:200px""alt=""img"">
                            </div>
                        </div>","-41","","0","","","","images/map02_GnBu_scaleDef_orientMir_000.png","angry","1","02","02","GnBu","orientMir","scaleDef","000","",""
"","","","","","html-slider-response","115","356740","0.0-111.0","xnvhwam5kx","70","NaN","<div style=""width:500px;"">
                            <p style=""font-size:50px; font-weight:bold;""
                            >angry</p>
                            <div style=""width:240px; margin: auto;"">
                                <img src=""images/map05_YlGnBu_scaleDef_orientDef_000.png"" style= ""width:200px""alt=""img"">
                            </div>
                        </div>","-94","","0","","","","images/map05_YlGnBu_scaleDef_orientDef_000.png","angry","1","05","05","YlGnBu","orientDef","scaleDef","000","",""
"","","","","","html-slider-response","116","359059","0.0-112.0","xnvhwam5kx","70","NaN","<div style=""width:500px;"">
                            <p style=""font-size:50px; font-weight:bold;""
                            >angry</p>
                            <div style=""width:240px; margin: auto;"">
                                <img src=""images/map12_seismic_scaleDef_orientMir_180.png"" style= ""width:200px""alt=""img"">
                            </div>
                        </div>","154","","0","","","","images/map12_seismic_scaleDef_orientMir_180.png","angry","1","12","12","seismic","orientMir","scaleDef","180","",""
"","","","","","html-slider-response","117","361039","0.0-113.0","xnvhwam5kx","70","NaN","<div style=""width:500px;"">
                            <p style=""font-size:50px; font-weight:bold;""
                            >angry</p>
                            <div style=""width:240px; margin: auto;"">
                                <img src=""images/map02_RdPu_scaleRev_orientDef_090.png"" style= ""width:200px""alt=""img"">
                            </div>
                        </div>","200","","0","","","","images/map02_RdPu_scaleRev_orientDef_090.png","angry","1","02","02","RdPu","orientDef","scaleRev","090","",""
"","","","","","html-slider-response","118","364332","0.0-114.0","xnvhwam5kx","70","NaN","<div style=""width:500px;"">
                            <p style=""font-size:50px; font-weight:bold;""
                            >angry</p>
                            <div style=""width:240px; margin: auto;"">
                                <img src=""images/map05_YlGn_scaleDef_orientMir_180.png"" style= ""width:200px""alt=""img"">
                            </div>
                        </div>","99","","0","","","","images/map05_YlGn_scaleDef_orientMir_180.png","angry","1","05","05","YlGn","orientMir","scaleDef","180","",""
"","","","","","html-slider-response","119","366839","0.0-115.0","xnvhwam5kx","70","NaN","<div style=""width:500px;"">
                            <p style=""font-size:50px; font-weight:bold;""
                            >angry</p>
                            <div style=""width:240px; margin: auto;"">
                                <img src=""images/map02_BuPu_scaleRev_orientDef_270.png"" style= ""width:200px""alt=""img"">
                            </div>
                        </div>","-102","","0","","","","images/map02_BuPu_scaleRev_orientDef_270.png","angry","1","02","02","BuPu","orientDef","scaleRev","270","",""
"","","","","","html-slider-response","120","368685","0.0-116.0","xnvhwam5kx","70","NaN","<div style=""width:500px;"">
                            <p style=""font-size:50px; font-weight:bold;""
                            >angry</p>
                            <div style=""width:240px; margin: auto;"">
                                <img src=""images/map05_YlGn_scaleRev_orientMir_270.png"" style= ""width:200px""alt=""img"">
                            </div>
                        </div>","98","","0","","","","images/map05_YlGn_scaleRev_orientMir_270.png","angry","1","05","05","YlGn","orientMir","scaleRev","270","",""
"","","","","","html-slider-response","121","370751","0.0-117.0","xnvhwam5kx","70","NaN","<div style=""width:500px;"">
                            <p style=""font-size:50px; font-weight:bold;""
                            >angry</p>
                            <div style=""width:240px; margin: auto;"">
                                <img src=""images/map13_berlin_scaleDef_orientDef_000.png"" style= ""width:200px""alt=""img"">
                            </div>
                        </div>","99","","0","","","","images/map13_berlin_scaleDef_orientDef_000.png","angry","1","13","13","berlin","orientDef","scaleDef","000","",""
"","","","","","html-slider-response","122","372785","0.0-118.0","xnvhwam5kx","70","NaN","<div style=""width:500px;"">
                            <p style=""font-size:50px; font-weight:bold;""
                            >angry</p>
                            <div style=""width:240px; margin: auto;"">
                                <img src=""images/map15_inferno_scaleDef_orientMir_180.png"" style= ""width:200px""alt=""img"">
                            </div>
                        </div>","200","","0","","","","images/map15_inferno_scaleDef_orientMir_180.png","angry","1","15","15","inferno","orientMir","scaleDef","180","",""
"","","","","","html-slider-response","123","374840","0.0-119.0","xnvhwam5kx","70","NaN","<div style=""width:500px;"">
                            <p style=""font-size:50px; font-weight:bold;""
                            >angry</p>
                            <div style=""width:240px; margin: auto;"">
                                <img src=""images/map23_magma_scaleDef_orientDef_000.png"" style= ""width:200px""alt=""img"">
                            </div>
                        </div>","200","","0","","","","images/map23_magma_scaleDef_orientDef_000.png","angry","1","23","23","magma","orientDef","scaleDef","000","",""
"","","","","","html-slider-response","124","376671","0.0-120.0","xnvhwam5kx","70","NaN","<div style=""width:500px;"">
                            <p style=""font-size:50px; font-weight:bold;""
                            >angry</p>
                            <div style=""width:240px; margin: auto;"">
                                <img src=""images/map07_BrBG_scaleDef_orientMir_000.png"" style= ""width:200px""alt=""img"">
                            </div>
                        </div>","-105","","0","","","","images/map07_BrBG_scaleDef_orientMir_000.png","angry","1","07","07","BrBG","orientMir","scaleDef","000","",""
"","","","","","html-slider-response","125","378417","0.0-121.0","xnvhwam5kx","70","NaN","<div style=""width:500px;"">
                            <p style=""font-size:50px; font-weight:bold;""
                            >angry</p>
                            <div style=""width:240px; margin: auto;"">
                                <img src=""images/map23_magma_scaleRev_orientDef_090.png"" style= ""width:200px""alt=""img"">
                            </div>
                        </div>","200","","0","","","","images/map23_magma_scaleRev_orientDef_090.png","angry","1","23","23","magma","orientDef","scaleRev","090","",""
"","","","","","html-slider-response","126","380235","0.0-122.0","xnvhwam5kx","70","NaN","<div style=""width:500px;"">
                            <p style=""font-size:50px; font-weight:bold;""
                            >angry</p>
                            <div style=""width:240px; margin: auto;"">
                                <img src=""images/map27_PuRd_scaleRev_orientMir_270.png"" style= ""width:200px""alt=""img"">
                            </div>
                        </div>","-130","","0","","","","images/map27_PuRd_scaleRev_orientMir_270.png","angry","1","27","27","PuRd","orientMir","scaleRev","270","",""
"","","","","","html-slider-response","127","382149","0.0-123.0","xnvhwam5kx","70","NaN","<div style=""width:500px;"">
                            <p style=""font-size:50px; font-weight:bold;""
                            >angry</p>
                            <div style=""width:240px; margin: auto;"">
                                <img src=""images/map13_vanimo_scaleRev_orientMir_090.png"" style= ""width:200px""alt=""img"">
                            </div>
                        </div>","200","","0","","","","images/map13_vanimo_scaleRev_orientMir_090.png","angry","1","13","13","vanimo","orientMir","scaleRev","090","",""
"","","","","","html-slider-response","128","384152","0.0-124.0","xnvhwam5kx","70","NaN","<div style=""width:500px;"">
                            <p style=""font-size:50px; font-weight:bold;""
                            >angry</p>
                            <div style=""width:240px; margin: auto;"">
                                <img src=""images/map02_PuBu_scaleDef_orientMir_180.png"" style= ""width:200px""alt=""img"">
                            </div>
                        </div>","-200","","0","","","","images/map02_PuBu_scaleDef_orientMir_180.png","angry","1","02","02","PuBu","orientMir","scaleDef","180","",""
"","","","","","html-slider-response","129","386578","0.0-125.0","xnvhwam5kx","70","NaN","<div style=""width:500px;"">
                            <p style=""font-size:50px; font-weight:bold;""
                            >angry</p>
                            <div style=""width:240px; margin: auto;"">
                                <img src=""images/map27_YlOrBr_scaleRev_orientDef_090.png"" style= ""width:200px""alt=""img"">
                            </div>
                        </div>","135","","0","","","","images/map27_YlOrBr_scaleRev_orientDef_090.png","angry","1","27","27","YlOrBr","orientDef","scaleRev","090","",""
"","","","","","html-slider-response","130","388739","0.0-126.0","xnvhwam5kx","70","NaN","<div style=""width:500px;"">
                            <p style=""font-size:50px; font-weight:bold;""
                            >angry</p>
                            <div style=""width:240px; margin: auto;"">
                                <img src=""images/map13_vanimo_scaleDef_orientMir_000.png"" style= ""width:200px""alt=""img"">
                            </div>
                        </div>","167","","0","","","","images/map13_vanimo_scaleDef_orientMir_000.png","angry","1","13","13","vanimo","orientMir","scaleDef","000","",""
"","","","","","html-slider-response","131","390453","0.0-127.0","xnvhwam5kx","70","NaN","<div style=""width:500px;"">
                            <p style=""font-size:50px; font-weight:bold;""
                            >angry</p>
                            <div style=""width:240px; margin: auto;"">
                                <img src=""images/map02_RdPu_scaleDef_orientDef_000.png"" style= ""width:200px""alt=""img"">
                            </div>
                        </div>","77","","0","","","","images/map02_RdPu_scaleDef_orientDef_000.png","angry","1","02","02","RdPu","orientDef","scaleDef","000","",""
"","","","","","html-slider-response","132","392560","0.0-128.0","xnvhwam5kx","70","NaN","<div style=""width:500px;"">
                            <p style=""font-size:50px; font-weight:bold;""
                            >angry</p>
                            <div style=""width:240px; margin: auto;"">
                                <img src=""images/map26_Oranges_scaleDef_orientMir_000.png"" style= ""width:200px""alt=""img"">
                            </div>
                        </div>","177","","0","","","","images/map26_Oranges_scaleDef_orientMir_000.png","angry","1","26","26","Oranges","orientMir","scaleDef","000","",""
"","","","","","html-slider-response","133","394493","0.0-129.0","xnvhwam5kx","70","NaN","<div style=""width:500px;"">
                            <p style=""font-size:50px; font-weight:bold;""
                            >angry</p>
                            <div style=""width:240px; margin: auto;"">
                                <img src=""images/map07_PRGn_scaleDef_orientDef_180.png"" style= ""width:200px""alt=""img"">
                            </div>
                        </div>","71","","0","","","","images/map07_PRGn_scaleDef_orientDef_180.png","angry","1","07","07","PRGn","orientDef","scaleDef","180","",""
"","","","","","html-slider-response","134","397123","0.0-130.0","xnvhwam5kx","70","NaN","<div style=""width:500px;"">
                            <p style=""font-size:50px; font-weight:bold;""
                            >angry</p>
                            <div style=""width:240px; margin: auto;"">
                                <img src=""images/map13_managua_scaleRev_orientDef_270.png"" style= ""width:200px""alt=""img"">
                            </div>
                        </div>","79","","0","","","","images/map13_managua_scaleRev_orientDef_270.png","angry","1","13","13","managua","orientDef","scaleRev","270","",""
"","","","","","html-slider-response","135","399276","0.0-131.0","xnvhwam5kx","70","NaN","<div style=""width:500px;"">
                            <p style=""font-size:50px; font-weight:bold;""
                            >angry</p>
                            <div style=""width:240px; margin: auto;"">
                                <img src=""images/map10_RdYlBu_scaleRev_orientMir_090.png"" style= ""width:200px""alt=""img"">
                            </div>
                        </div>","131","","0","","","","images/map10_RdYlBu_scaleRev_orientMir_090.png","angry","1","10","10","RdYlBu","orientMir","scaleRev","090","",""
"","","","","","html-slider-response","136","401435","0.0-132.0","xnvhwam5kx","70","NaN","<div style=""width:500px;"">
                            <p style=""font-size:50px; font-weight:bold;""
                            >angry</p>
                            <div style=""width:240px; margin: auto;"">
                                <img src=""images/map05_BuGn_scaleRev_orientMir_090.png"" style= ""width:200px""alt=""img"">
                            </div>
                        </div>","163","","0","","","","images/map05_BuGn_scaleRev_orientMir_090.png","angry","1","05","05","BuGn","orientMir","scaleRev","090","",""
"","","","","","html-slider-response","137","403334","0.0-133.0","xnvhwam5kx","70","NaN","<div style=""width:500px;"">
                            <p style=""font-size:50px; font-weight:bold;""
                            >angry</p>
                            <div style=""width:240px; margin: auto;"">
                                <img src=""images/map27_OrRd_scaleRev_orientMir_090.png"" style= ""width:200px""alt=""img"">
                            </div>
                        </div>","58","","0","","","","images/map27_OrRd_scaleRev_orientMir_090.png","angry","1","27","27","OrRd","orientMir","scaleRev","090","",""
"","","","","","html-slider-response","138","405650","0.0-134.0","xnvhwam5kx","70","NaN","<div style=""width:500px;"">
                            <p style=""font-size:50px; font-weight:bold;""
                            >angry</p>
                            <div style=""width:240px; margin: auto;"">
                                <img src=""images/map15_turbo_scaleRev_orientDef_090.png"" style= ""width:200px""alt=""img"">
                            </div>
                        </div>","61","","0","","","","images/map15_turbo_scaleRev_orientDef_090.png","angry","1","15","15","turbo","orientDef","scaleRev","090","",""
"","","","","","html-slider-response","139","407637","0.0-135.0","xnvhwam5kx","70","NaN","<div style=""width:500px;"">
                            <p style=""font-size:50px; font-weight:bold;""
                            >angry</p>
                            <div style=""width:240px; margin: auto;"">
                                <img src=""images/map23_Purples_scaleDef_orientMir_180.png"" style= ""width:200px""alt=""img"">
                            </div>
                        </div>","-96","","0","","","","images/map23_Purples_scaleDef_orientMir_180.png","angry","1","23","23","Purples","orientMir","scaleDef","180","",""
"","","","","","html-slider-response","140","408971","0.0-136.0","xnvhwam5kx","70","NaN","<div style=""width:500px;"">
                            <p style=""font-size:50px; font-weight:bold;""
                            >angry</p>
                            <div style=""width:240px; margin: auto;"">
                                <img src=""images/map13_berlin_scaleRev_orientDef_090.png"" style= ""width:200px""alt=""img"">
                            </div>
                        </div>","91","","0","","","","images/map13_berlin_scaleRev_orientDef_090.png","angry","1","13","13","berlin","orientDef","scaleRev","090","",""
"","","","","","html-button-response","141","412283","0.0-137.0","xnvhwam5kx","70","2808","<p>You are doing great!<br></br> You are halway done with the current block. When you are ready to continue, click the 'Continue' button.</p>","0","","","","","","","","","","","","","","","",""
"","","","","","html-slider-response","142","414047","0.0-138.0","xnvhwam5kx","70","NaN","<div style=""width:500px;"">
                            <p style=""font-size:50px; font-weight:bold;""
                            >angry</p>
                            <div style=""width:240px; margin: auto;"">
                                <img src=""images/map15_plasma_scaleRev_orientMir_090.png"" style= ""width:200px""alt=""img"">
                            </div>
                        </div>","200","","0","","","","images/map15_plasma_scaleRev_orientMir_090.png","angry","1","15","15","plasma","orientMir","scaleRev","090","",""
"","","","","","html-slider-response","143","416171","0.0-139.0","xnvhwam5kx","70","NaN","<div style=""width:500px;"">
                            <p style=""font-size:50px; font-weight:bold;""
                            >angry</p>
                            <div style=""width:240px; margin: auto;"">
                                <img src=""images/map15_turbo_scaleDef_orientDef_000.png"" style= ""width:200px""alt=""img"">
                            </div>
                        </div>","46","","0","","","","images/map15_turbo_scaleDef_orientDef_000.png","angry","1","15","15","turbo","orientDef","scaleDef","000","",""
"","","","","","html-slider-response","144","417797","0.0-140.0","xnvhwam5kx","70","NaN","<div style=""width:500px;"">
                            <p style=""font-size:50px; font-weight:bold;""
                            >angry</p>
                            <div style=""width:240px; margin: auto;"">
                                <img src=""images/map26_Blues_scaleDef_orientDef_000.png"" style= ""width:200px""alt=""img"">
                            </div>
                        </div>","-200","","0","","","","images/map26_Blues_scaleDef_orientDef_000.png","angry","1","26","26","Blues","orientDef","scaleDef","000","",""
"","","","","","html-slider-response","145","419668","0.0-141.0","xnvhwam5kx","70","NaN","<div style=""width:500px;"">
                            <p style=""font-size:50px; font-weight:bold;""
                            >angry</p>
                            <div style=""width:240px; margin: auto;"">
                                <img src=""images/map26_Blues_scaleRev_orientDef_090.png"" style= ""width:200px""alt=""img"">
                            </div>
                        </div>","-200","","0","","","","images/map26_Blues_scaleRev_orientDef_090.png","angry","1","26","26","Blues","orientDef","scaleRev","090","",""
"","","","","","html-slider-response","146","421472","0.0-142.0","xnvhwam5kx","70","NaN","<div style=""width:500px;"">
                            <p style=""font-size:50px; font-weight:bold;""
                            >angry</p>
                            <div style=""width:240px; margin: auto;"">
                                <img src=""images/map10_RdYlGn_scaleRev_orientMir_270.png"" style= ""width:200px""alt=""img"">
                            </div>
                        </div>","103","","0","","","","images/map10_RdYlGn_scaleRev_orientMir_270.png","angry","1","10","10","RdYlGn","orientMir","scaleRev","270","",""
"","","","","","html-slider-response","147","423489","0.0-143.0","xnvhwam5kx","70","NaN","<div style=""width:500px;"">
                            <p style=""font-size:50px; font-weight:bold;""
                            >angry</p>
                            <div style=""width:240px; margin: auto;"">
                                <img src=""images/map12_coolwarm_scaleDef_orientDef_180.png"" style= ""width:200px""alt=""img"">
                            </div>
                        </div>","48","","0","","","","images/map12_coolwarm_scaleDef_orientDef_180.png","angry","1","12","12","coolwarm","orientDef","scaleDef","180","",""
"","","","","","html-slider-response","148","426167","0.0-144.0","xnvhwam5kx","70","NaN","<div style=""width:500px;"">
                            <p style=""font-size:50px; font-weight:bold;""
                            >angry</p>
                            <div style=""width:240px; margin: auto;"">
                                <img src=""images/map10_RdGy_scaleDef_orientDef_000.png"" style= ""width:200px""alt=""img"">
                            </div>
                        </div>","200","","0","","","","images/map10_RdGy_scaleDef_orientDef_000.png","angry","1","10","10","RdGy","orientDef","scaleDef","000","",""
"","","","","","html-slider-response","149","428376","0.0-145.0","xnvhwam5kx","70","NaN","<div style=""width:500px;"">
                            <p style=""font-size:50px; font-weight:bold;""
                            >angry</p>
                            <div style=""width:240px; margin: auto;"">
                                <img src=""images/map12_Spectral_scaleRev_orientDef_090.png"" style= ""width:200px""alt=""img"">
                            </div>
                        </div>","93","","0","","","","images/map12_Spectral_scaleRev_orientDef_090.png","angry","1","12","12","Spectral","orientDef","scaleRev","090","",""
"","","","","","html-slider-response","150","430330","0.0-146.0","xnvhwam5kx","70","NaN","<div style=""width:500px;"">
                            <p style=""font-size:50px; font-weight:bold;""
                            >angry</p>
                            <div style=""width:240px; margin: auto;"">
                                <img src=""images/map23_cividis_scaleDef_orientDef_180.png"" style= ""width:200px""alt=""img"">
                            </div>
                        </div>","46","","0","","","","images/map23_cividis_scaleDef_orientDef_180.png","angry","1","23","23","cividis","orientDef","scaleDef","180","",""
"","","","","","html-slider-response","151","431838","0.0-147.0","xnvhwam5kx","70","NaN","<div style=""width:500px;"">
                            <p style=""font-size:50px; font-weight:bold;""
                            >angry</p>
                            <div style=""width:240px; margin: auto;"">
                                <img src=""images/map13_gist_earth_scaleDef_orientMir_180.png"" style= ""width:200px""alt=""img"">
                            </div>
                        </div>","54","","0","","","","images/map13_gist_earth_scaleDef_orientMir_180.png","angry","1","13","13","gist","scaleDef","earth","orientMir","",""
"","","","","","html-slider-response","152","433529","0.0-148.0","xnvhwam5kx","70","NaN","<div style=""width:500px;"">
                            <p style=""font-size:50px; font-weight:bold;""
                            >angry</p>
                            <div style=""width:240px; margin: auto;"">
                                <img src=""images/map27_YlOrBr_scaleDef_orientDef_000.png"" style= ""width:200px""alt=""img"">
                            </div>
                        </div>","95","","0","","","","images/map27_YlOrBr_scaleDef_orientDef_000.png","angry","1","27","27","YlOrBr","orientDef","scaleDef","000","",""
"","","","","","html-slider-response","153","435337","0.0-149.0","xnvhwam5kx","70","NaN","<div style=""width:500px;"">
                            <p style=""font-size:50px; font-weight:bold;""
                            >angry</p>
                            <div style=""width:240px; margin: auto;"">
                                <img src=""images/map12_Spectral_scaleDef_orientDef_000.png"" style= ""width:200px""alt=""img"">
                            </div>
                        </div>","55","","0","","","","images/map12_Spectral_scaleDef_orientDef_000.png","angry","1","12","12","Spectral","orientDef","scaleDef","000","",""
"","","","","","html-slider-response","154","437486","0.0-150.0","xnvhwam5kx","70","NaN","<div style=""width:500px;"">
                            <p style=""font-size:50px; font-weight:bold;""
                            >angry</p>
                            <div style=""width:240px; margin: auto;"">
                                <img src=""images/map12_coolwarm_scaleRev_orientDef_270.png"" style= ""width:200px""alt=""img"">
                            </div>
                        </div>","80","","0","","","","images/map12_coolwarm_scaleRev_orientDef_270.png","angry","1","12","12","coolwarm","orientDef","scaleRev","270","",""
"","","","","","html-slider-response","155","439672","0.0-151.0","xnvhwam5kx","70","NaN","<div style=""width:500px;"">
                            <p style=""font-size:50px; font-weight:bold;""
                            >angry</p>
                            <div style=""width:240px; margin: auto;"">
                                <img src=""images/map05_PuBuGn_scaleRev_orientDef_270.png"" style= ""width:200px""alt=""img"">
                            </div>
                        </div>","-129","","0","","","","images/map05_PuBuGn_scaleRev_orientDef_270.png","angry","1","05","05","PuBuGn","orientDef","scaleRev","270","",""
"","","","","","html-slider-response","156","441651","0.0-152.0","xnvhwam5kx","70","NaN","<div style=""width:500px;"">
                            <p style=""font-size:50px; font-weight:bold;""
                            >angry</p>
                            <div style=""width:240px; margin: auto;"">
                                <img src=""images/map02_BuPu_scaleDef_orientDef_180.png"" style= ""width:200px""alt=""img"">
                            </div>
                        </div>","-127","","0","","","","images/map02_BuPu_scaleDef_orientDef_180.png","angry","1","02","02","BuPu","orientDef","scaleDef","180","",""
"","","","","","html-slider-response","157","443390","0.0-153.0","xnvhwam5kx","70","NaN","<div style=""width:500px;"">
                            <p style=""font-size:50px; font-weight:bold;""
                            >angry</p>
                            <div style=""width:240px; margin: auto;"">
                                <img src=""images/map23_cividis_scaleRev_orientDef_270.png"" style= ""width:200px""alt=""img"">
                            </div>
                        </div>","-87","","0","","","","images/map23_cividis_scaleRev_orientDef_270.png","angry","1","23","23","cividis","orientDef","scaleRev","270","",""
"","","","","","html-slider-response","158","445543","0.0-154.0","xnvhwam5kx","70","NaN","<div style=""width:500px;"">
