"success","timeout","failed_images","failed_audio","failed_video","trial_type","trial_index","time_elapsed","internal_node_id","subject_id","condition_num","rt","stimulus","response","question_order","slider_start","practiceTrial","practiceTrialNum","correct","image_path","concept","repetition","map_id","map_num","scale_name","orientation_code","mapping_code","rotation_code","ishihara_plate","correct_response"
"true","false","[]","[]","[]","preload","0","810","0.0-0.0","yj0x00k5xl","54","","","","","","","","","","","","","","","","","","",""
"","","","","","html-button-response","1","4653","0.0-1.0","yj0x00k5xl","54","3840","Welcome to our experiment!<p>At the bottom of this screen, you will see a button that says ""Begin Experiment"".<br>Please only click that button when you are ready to complete the 30 minute experiment in one sitting.</p><p> Once you click that button, it will not be possible to restart the experiment.","0","","","","","","","","","","","","","","","",""
"true","","","","","fullscreen","2","7331","0.0-2.0","yj0x00k5xl","54","1671","","","","","","","","","","","","","","","","","",""
"","","","","","survey-multi-select","3","19761","0.0-3.0","yj0x00k5xl","54","12424","","{""Consent"":[""<strong>I consent</strong>""]}","[0]","","","","","","","","","","","","","","",""
"","","","","","html-button-response","4","22979","0.0-4.0","yj0x00k5xl","54","3215","Welcome! <p> This experiment involves two parts: demographic information, followed by the experimental task.<p> It will take about 30 minutes to complete both parts.","0","","","","","","","","","","","","","","","",""
"","","","","","survey-text","5","35937","0.0-5.0","yj0x00k5xl","54","12923","","{""Age"":""19"",""Gender"":""Male"",""Race/ethnicity"":""Hispanic/latino"",""Languages"":""English and Spanish""}","","","","","","","","","","","","","","","",""
"","","","","","html-slider-response","6","84090","0.0-6.0","yj0x00k5xl","54","48149","<div style='text-align:left; font-size:20px; line-height:25px; width: 1000px;'>
                                During this experiment you will be asked to rate how much you associate maps with                    different concepts.<br> Below, you can see some examples of the maps you will be asked to rate. Above the maps
                    is the list of concepts.<br>You will be asked                    to rate how much you associate each map with each concept on a scale from 'not at all' to 'very much' like the
                    one below. <br><br>
                    Now, please look at the list of concepts and maps. For each concept, think about the map you associate 'very
                    much' with the concept.<br>                     When you see that map during the experiment, please rate it near the 'very much' endpoint of the
                    scale.<br>Now, please think about which map you associate 'not at all'                     with each concept. When you see that map during the experiment, please rate it near the 'not at all' endpoint
                    of the scale.<br>
                    Please use the full range of the scale. That is, if a map is somewhat associated with the concept, you would
                    click partway between the middle point and right side of the scale.                    You will be asked to rate each map for a given concept before moving on to the next concept.<br>Press the
                    'Continue' button for instructions on how to use the slider.                    <br>
                </div>

                <div style=""width: 500px; margin: 0 auto;"">
                    <!-- Centered text paragraphs -->
                    <div style=""text-align: center; width: 500px;"">
                        <p style=""font-size:25px; line-height:15px;"">
                            sad&nbsp;&nbsp;&nbsp;&nbsp;
                            happy&nbsp;&nbsp;&nbsp;&nbsp;
                            fearful&nbsp;&nbsp;&nbsp;&nbsp;
                            disgust&nbsp;&nbsp;&nbsp;&nbsp;
                            angry
                        </p>
                        <!-- <p style=""font-size:20px; line-height:15px;"">happy</p>
                        <p style=""font-size:20px;line-height:15px;"">fearful</p>
                        <p style=""font-size:20px;line-height:15px;"">disgust</p>
                        <p style=""font-size:20px;line-height:15px;"">angry</p> -->
                    </div>
            

                    <!-- Grid section -->
                   <div style=""display: flex; justify-content: center; padding-top: 15px;"">
                    <div style=""display: grid; grid-template-columns: repeat(10, 55px); grid-gap: 5px; width: auto;"">
                        <img src=""images/map15_berlin_scaleDef_orientMir_270.png"" alt=""map"" style=""width: 100%;""><img src=""images/map27_cividis_scaleDef_orientDef_090.png"" alt=""map"" style=""width: 100%;""><img src=""images/map27_Greys_scaleRev_orientMir_000.png"" alt=""map"" style=""width: 100%;""><img src=""images/map12_PRGn_scaleRev_orientDef_180.png"" alt=""map"" style=""width: 100%;""><img src=""images/map10_PiYG_scaleDef_orientMir_270.png"" alt=""map"" style=""width: 100%;""><img src=""images/map12_RdGy_scaleDef_orientMir_270.png"" alt=""map"" style=""width: 100%;""><img src=""images/map05_YlOrBr_scaleRev_orientDef_000.png"" alt=""map"" style=""width: 100%;""><img src=""images/map07_BuPu_scaleRev_orientDef_180.png"" alt=""map"" style=""width: 100%;""><img src=""images/map02_Reds_scaleRev_orientMir_180.png"" alt=""map"" style=""width: 100%;""><img src=""images/map23_gist_earth_scaleDef_orientMir_090.png"" alt=""map"" style=""width: 100%;""><img src=""images/map26_viridis_scaleDef_orientDef_090.png"" alt=""map"" style=""width: 100%;""><img src=""images/map23_vanimo_scaleRev_orientMir_000.png"" alt=""map"" style=""width: 100%;""><img src=""images/map26_plasma_scaleRev_orientMir_000.png"" alt=""map"" style=""width: 100%;""><img src=""images/map23_turbo_scaleDef_orientMir_270.png"" alt=""map"" style=""width: 100%;""><img src=""images/map13_RdYlGn_scaleDef_orientMir_090.png"" alt=""map"" style=""width: 100%;""><img src=""images/map13_RdYlBu_scaleRev_orientMir_000.png"" alt=""map"" style=""width: 100%;""><img src=""images/map07_GnBu_scaleDef_orientDef_270.png"" alt=""map"" style=""width: 100%;""><img src=""images/map12_BrBG_scaleDef_orientDef_270.png"" alt=""map"" style=""width: 100%;""><img src=""images/map10_YlGn_scaleDef_orientMir_090.png"" alt=""map"" style=""width: 100%;""><img src=""images/map23_managua_scaleDef_orientDef_090.png"" alt=""map"" style=""width: 100%;""><img src=""images/map13_RdBu_scaleDef_orientDef_090.png"" alt=""map"" style=""width: 100%;""><img src=""images/map05_YlOrRd_scaleRev_orientDef_180.png"" alt=""map"" style=""width: 100%;""><img src=""images/map02_Greens_scaleDef_orientDef_090.png"" alt=""map"" style=""width: 100%;""><img src=""images/map05_RdPu_scaleDef_orientMir_270.png"" alt=""map"" style=""width: 100%;""><img src=""images/map15_Spectral_scaleRev_orientDef_000.png"" alt=""map"" style=""width: 100%;""><img src=""images/map15_coolwarm_scaleRev_orientDef_180.png"" alt=""map"" style=""width: 100%;""><img src=""images/map27_Purples_scaleDef_orientMir_090.png"" alt=""map"" style=""width: 100%;""><img src=""images/map07_PuBu_scaleDef_orientMir_090.png"" alt=""map"" style=""width: 100%;""><img src=""images/map15_seismic_scaleDef_orientMir_090.png"" alt=""map"" style=""width: 100%;""><img src=""images/map07_YlGnBu_scaleDef_orientMir_270.png"" alt=""map"" style=""width: 100%;""><img src=""images/map05_PuRd_scaleRev_orientMir_180.png"" alt=""map"" style=""width: 100%;""><img src=""images/map10_PuBuGn_scaleRev_orientDef_180.png"" alt=""map"" style=""width: 100%;""><img src=""images/map12_PuOr_scaleDef_orientMir_090.png"" alt=""map"" style=""width: 100%;""><img src=""images/map02_Oranges_scaleDef_orientDef_270.png"" alt=""map"" style=""width: 100%;""><img src=""images/map10_BuGn_scaleDef_orientDef_270.png"" alt=""map"" style=""width: 100%;""><img src=""images/map05_OrRd_scaleDef_orientDef_270.png"" alt=""map"" style=""width: 100%;""><img src=""images/map27_Blues_scaleDef_orientMir_270.png"" alt=""map"" style=""width: 100%;""><img src=""images/map26_inferno_scaleDef_orientMir_090.png"" alt=""map"" style=""width: 100%;""><img src=""images/map26_magma_scaleDef_orientMir_270.png"" alt=""map"" style=""width: 100%;""><img src=""images/map15_bwr_scaleDef_orientDef_270.png"" alt=""map"" style=""width: 100%;"">
                    </div>
                </div>

                    <!-- Clear floats -->
                    <div style=""clear: both;""></div>
                </div>
                            ","-1","","0","true","","","","","","","","","","","","",""
"","","","","","html-button-response","7","91306","0.0-7.0","yj0x00k5xl","54","7213","<div style=""width:800px;""><p style=""text-align:left"">To move the slider, click and drag your cursor to the location of the scale where you would like to make your rating and then let go. When you let go of the slider, your response will be recorded and the next trial will begin. <br>
                    We are interested in your initial impressions of each map for the given concept, so please go with your first intuition. <br>
                    Before you begin the experiment, there will be four training trials for you to practice using the scale. <br>
                     When you are ready to start the training trials, please click ""Continue"".</p><br></div>","0","","","","","","","","","","","","","","","",""
"","","","","","html-slider-response","8","93657","0.0-8.0-0.0","yj0x00k5xl","54","NaN","<div style=""width:500px;"">
                                    <p style=""font-size:25px;"">Please move the slider all the way to the <br> right endpoint of the scale</p>

                                    </div>
                                </div>","200","","0","true","0","true","","","","","","","","","","",""
"","","","","","html-button-response","9","95053","0.0-8.0-1.0","yj0x00k5xl","54","877","<p align='center'><b>Good job!</b> Click on 'Continue' to proceed.</p>","0","","","","","","","","","","","","","","","",""
"","","","","","html-slider-response","10","96241","0.0-9.0-0.0","yj0x00k5xl","54","NaN","<div style=""width:500px;"">
                                    <p style=""font-size:25px;"">Please move the slider all the way to the <br> left endpoint of the scale</p>

                                    </div>
                                </div>","-200","","0","true","1","true","","","","","","","","","","",""
"","","","","","html-button-response","11","97270","0.0-9.0-1.0","yj0x00k5xl","54","519","<p align='center'><b>Good job!</b> Click on 'Continue' to proceed.</p>","0","","","","","","","","","","","","","","","",""
"","","","","","html-slider-response","12","100657","0.0-10.0-0.0","yj0x00k5xl","54","NaN","<div style=""width:500px;"">
                                    <p style=""font-size:25px;"">Please move the slider halfway between the center and right endpoint of the scale</p>

                                    </div>
                                </div>","105","","0","true","2","true","","","","","","","","","","",""
"","","","","","html-button-response","13","101920","0.0-10.0-1.0","yj0x00k5xl","54","759","<p align='center'><b>Good job!</b> Click on 'Continue' to proceed.</p>","0","","","","","","","","","","","","","","","",""
"","","","","","html-slider-response","14","102769","0.0-11.0-0.0","yj0x00k5xl","54","NaN","<div style=""width:500px;"">
                                    <p style=""font-size:25px;"">Please move the slider halfway between the center and left endpoint of the scale</p>

                                    </div>
                                </div>","-82","","0","true","3","true","","","","","","","","","","",""
"","","","","","html-button-response","15","103915","0.0-11.0-1.0","yj0x00k5xl","54","643","<p align='center'><b>Good job!</b> Click on 'Continue' to proceed.</p>","0","","","","","","","","","","","","","","","",""
"","","","","","html-button-response","16","104760","0.0-12.0","yj0x00k5xl","54","843","<p>Great job! You've completed the practice trials. Now you will begin the main task.</p>","0","","","","","","","","","","","","","","","",""
"","","","","","html-button-response","17","107382","0.0-13.0","yj0x00k5xl","54","2620","<p>In this block of trials, you will be asked to rate how much you associate each map with:</p > <p style = 'font-size:150%; font-weight: bold'>sad</p><br></br>","0","","","","","","","","","","","","","","","",""
"","","","","","html-slider-response","18","108934","0.0-14.0","yj0x00k5xl","54","NaN","<div style=""width:500px;"">
                            <p style=""font-size:50px; font-weight:bold;""
                            >sad</p>
                            <div style=""width:240px; margin: auto;"">
                                <img src=""images/map23_berlin_scaleRev_orientDef_000.png"" style= ""width:200px""alt=""img"">
                            </div>
                        </div>","-71","","0","","","","images/map23_berlin_scaleRev_orientDef_000.png","sad","1","23","23","berlin","orientDef","scaleRev","000","",""
"","","","","","html-slider-response","19","111151","0.0-15.0","yj0x00k5xl","54","NaN","<div style=""width:500px;"">
                            <p style=""font-size:50px; font-weight:bold;""
                            >sad</p>
                            <div style=""width:240px; margin: auto;"">
                                <img src=""images/map05_PuRd_scaleDef_orientMir_090.png"" style= ""width:200px""alt=""img"">
                            </div>
                        </div>","-198","","0","","","","images/map05_PuRd_scaleDef_orientMir_090.png","sad","1","05","05","PuRd","orientMir","scaleDef","090","",""
"","","","","","html-slider-response","20","113056","0.0-16.0","yj0x00k5xl","54","NaN","<div style=""width:500px;"">
                            <p style=""font-size:50px; font-weight:bold;""
                            >sad</p>
                            <div style=""width:240px; margin: auto;"">
                                <img src=""images/map07_YlGnBu_scaleDef_orientMir_270.png"" style= ""width:200px""alt=""img"">
                            </div>
                        </div>","115","","0","","","","images/map07_YlGnBu_scaleDef_orientMir_270.png","sad","1","07","07","YlGnBu","orientMir","scaleDef","270","",""
"","","","","","html-slider-response","21","114850","0.0-17.0","yj0x00k5xl","54","NaN","<div style=""width:500px;"">
                            <p style=""font-size:50px; font-weight:bold;""
                            >sad</p>
                            <div style=""width:240px; margin: auto;"">
                                <img src=""images/map26_viridis_scaleDef_orientDef_090.png"" style= ""width:200px""alt=""img"">
                            </div>
                        </div>","42","","0","","","","images/map26_viridis_scaleDef_orientDef_090.png","sad","1","26","26","viridis","orientDef","scaleDef","090","",""
"","","","","","html-slider-response","22","118314","0.0-18.0","yj0x00k5xl","54","NaN","<div style=""width:500px;"">
                            <p style=""font-size:50px; font-weight:bold;""
                            >sad</p>
                            <div style=""width:240px; margin: auto;"">
                                <img src=""images/map02_Oranges_scaleDef_orientDef_270.png"" style= ""width:200px""alt=""img"">
                            </div>
                        </div>","-142","","0","","","","images/map02_Oranges_scaleDef_orientDef_270.png","sad","1","02","02","Oranges","orientDef","scaleDef","270","",""
"","","","","","html-slider-response","23","120936","0.0-19.0","yj0x00k5xl","54","NaN","<div style=""width:500px;"">
                            <p style=""font-size:50px; font-weight:bold;""
                            >sad</p>
                            <div style=""width:240px; margin: auto;"">
                                <img src=""images/map12_RdGy_scaleDef_orientMir_270.png"" style= ""width:200px""alt=""img"">
                            </div>
                        </div>","-176","","0","","","","images/map12_RdGy_scaleDef_orientMir_270.png","sad","1","12","12","RdGy","orientMir","scaleDef","270","",""
"","","","","","html-slider-response","24","122645","0.0-20.0","yj0x00k5xl","54","NaN","<div style=""width:500px;"">
                            <p style=""font-size:50px; font-weight:bold;""
                            >sad</p>
                            <div style=""width:240px; margin: auto;"">
                                <img src=""images/map27_Blues_scaleDef_orientMir_270.png"" style= ""width:200px""alt=""img"">
                            </div>
                        </div>","84","","0","","","","images/map27_Blues_scaleDef_orientMir_270.png","sad","1","27","27","Blues","orientMir","scaleDef","270","",""
"","","","","","html-slider-response","25","124385","0.0-21.0","yj0x00k5xl","54","NaN","<div style=""width:500px;"">
                            <p style=""font-size:50px; font-weight:bold;""
                            >sad</p>
                            <div style=""width:240px; margin: auto;"">
                                <img src=""images/map15_bwr_scaleDef_orientDef_270.png"" style= ""width:200px""alt=""img"">
                            </div>
                        </div>","67","","0","","","","images/map15_bwr_scaleDef_orientDef_270.png","sad","1","15","15","bwr","orientDef","scaleDef","270","",""
"","","","","","html-slider-response","26","126663","0.0-22.0","yj0x00k5xl","54","NaN","<div style=""width:500px;"">
                            <p style=""font-size:50px; font-weight:bold;""
                            >sad</p>
                            <div style=""width:240px; margin: auto;"">
                                <img src=""images/map26_viridis_scaleRev_orientDef_180.png"" style= ""width:200px""alt=""img"">
                            </div>
                        </div>","30","","0","","","","images/map26_viridis_scaleRev_orientDef_180.png","sad","1","26","26","viridis","orientDef","scaleRev","180","",""
"","","","","","html-slider-response","27","128615","0.0-23.0","yj0x00k5xl","54","NaN","<div style=""width:500px;"">
                            <p style=""font-size:50px; font-weight:bold;""
                            >sad</p>
                            <div style=""width:240px; margin: auto;"">
                                <img src=""images/map23_turbo_scaleDef_orientMir_270.png"" style= ""width:200px""alt=""img"">
                            </div>
                        </div>","-51","","0","","","","images/map23_turbo_scaleDef_orientMir_270.png","sad","1","23","23","turbo","orientMir","scaleDef","270","",""
"","","","","","html-slider-response","28","129968","0.0-24.0","yj0x00k5xl","54","NaN","<div style=""width:500px;"">
                            <p style=""font-size:50px; font-weight:bold;""
                            >sad</p>
                            <div style=""width:240px; margin: auto;"">
                                <img src=""images/map26_turbo_scaleRev_orientDef_000.png"" style= ""width:200px""alt=""img"">
                            </div>
                        </div>","-51","","0","","","","images/map26_turbo_scaleRev_orientDef_000.png","sad","1","26","26","turbo","orientDef","scaleRev","000","",""
"","","","","","html-slider-response","29","132617","0.0-25.0","yj0x00k5xl","54","NaN","<div style=""width:500px;"">
                            <p style=""font-size:50px; font-weight:bold;""
                            >sad</p>
                            <div style=""width:240px; margin: auto;"">
                                <img src=""images/map15_berlin_scaleDef_orientMir_270.png"" style= ""width:200px""alt=""img"">
                            </div>
                        </div>","-80","","0","","","","images/map15_berlin_scaleDef_orientMir_270.png","sad","1","15","15","berlin","orientMir","scaleDef","270","",""
"","","","","","html-slider-response","30","134552","0.0-26.0","yj0x00k5xl","54","NaN","<div style=""width:500px;"">
                            <p style=""font-size:50px; font-weight:bold;""
                            >sad</p>
                            <div style=""width:240px; margin: auto;"">
                                <img src=""images/map10_BuGn_scaleRev_orientMir_000.png"" style= ""width:200px""alt=""img"">
                            </div>
                        </div>","-101","","0","","","","images/map10_BuGn_scaleRev_orientMir_000.png","sad","1","10","10","BuGn","orientMir","scaleRev","000","",""
"","","","","","html-slider-response","31","137440","0.0-27.0","yj0x00k5xl","54","NaN","<div style=""width:500px;"">
                            <p style=""font-size:50px; font-weight:bold;""
                            >sad</p>
                            <div style=""width:240px; margin: auto;"">
                                <img src=""images/map27_magma_scaleRev_orientDef_000.png"" style= ""width:200px""alt=""img"">
                            </div>
                        </div>","22","","0","","","","images/map27_magma_scaleRev_orientDef_000.png","sad","1","27","27","magma","orientDef","scaleRev","000","",""
"","","","","","html-slider-response","32","138973","0.0-28.0","yj0x00k5xl","54","NaN","<div style=""width:500px;"">
                            <p style=""font-size:50px; font-weight:bold;""
                            >sad</p>
                            <div style=""width:240px; margin: auto;"">
                                <img src=""images/map26_plasma_scaleRev_orientMir_000.png"" style= ""width:200px""alt=""img"">
                            </div>
                        </div>","16","","0","","","","images/map26_plasma_scaleRev_orientMir_000.png","sad","1","26","26","plasma","orientMir","scaleRev","000","",""
"","","","","","html-slider-response","33","140851","0.0-29.0","yj0x00k5xl","54","NaN","<div style=""width:500px;"">
                            <p style=""font-size:50px; font-weight:bold;""
                            >sad</p>
                            <div style=""width:240px; margin: auto;"">
                                <img src=""images/map02_Reds_scaleDef_orientMir_090.png"" style= ""width:200px""alt=""img"">
                            </div>
                        </div>","-96","","0","","","","images/map02_Reds_scaleDef_orientMir_090.png","sad","1","02","02","Reds","orientMir","scaleDef","090","",""
"","","","","","html-slider-response","34","143466","0.0-30.0","yj0x00k5xl","54","NaN","<div style=""width:500px;"">
                            <p style=""font-size:50px; font-weight:bold;""
                            >sad</p>
                            <div style=""width:240px; margin: auto;"">
                                <img src=""images/map12_PuOr_scaleDef_orientMir_090.png"" style= ""width:200px""alt=""img"">
                            </div>
                        </div>","7","","0","","","","images/map12_PuOr_scaleDef_orientMir_090.png","sad","1","12","12","PuOr","orientMir","scaleDef","090","",""
"","","","","","html-slider-response","35","145441","0.0-31.0","yj0x00k5xl","54","NaN","<div style=""width:500px;"">
                            <p style=""font-size:50px; font-weight:bold;""
                            >sad</p>
                            <div style=""width:240px; margin: auto;"">
                                <img src=""images/map02_Blues_scaleRev_orientDef_000.png"" style= ""width:200px""alt=""img"">
                            </div>
                        </div>","122","","0","","","","images/map02_Blues_scaleRev_orientDef_000.png","sad","1","02","02","Blues","orientDef","scaleRev","000","",""
"","","","","","html-slider-response","36","147168","0.0-32.0","yj0x00k5xl","54","NaN","<div style=""width:500px;"">
                            <p style=""font-size:50px; font-weight:bold;""
                            >sad</p>
                            <div style=""width:240px; margin: auto;"">
                                <img src=""images/map27_Greys_scaleDef_orientDef_270.png"" style= ""width:200px""alt=""img"">
                            </div>
                        </div>","143","","0","","","","images/map27_Greys_scaleDef_orientDef_270.png","sad","1","27","27","Greys","orientDef","scaleDef","270","",""
"","","","","","html-slider-response","37","149077","0.0-33.0","yj0x00k5xl","54","NaN","<div style=""width:500px;"">
                            <p style=""font-size:50px; font-weight:bold;""
                            >sad</p>
                            <div style=""width:240px; margin: auto;"">
                                <img src=""images/map26_magma_scaleDef_orientMir_270.png"" style= ""width:200px""alt=""img"">
                            </div>
                        </div>","-116","","0","","","","images/map26_magma_scaleDef_orientMir_270.png","sad","1","26","26","magma","orientMir","scaleDef","270","",""
"","","","","","html-slider-response","38","154555","0.0-34.0","yj0x00k5xl","54","NaN","<div style=""width:500px;"">
                            <p style=""font-size:50px; font-weight:bold;""
                            >sad</p>
                            <div style=""width:240px; margin: auto;"">
                                <img src=""images/map26_plasma_scaleDef_orientDef_270.png"" style= ""width:200px""alt=""img"">
                            </div>
                        </div>","-35","","0","","","","images/map26_plasma_scaleDef_orientDef_270.png","sad","1","26","26","plasma","orientDef","scaleDef","270","",""
"","","","","","html-slider-response","39","156224","0.0-35.0","yj0x00k5xl","54","NaN","<div style=""width:500px;"">
                            <p style=""font-size:50px; font-weight:bold;""
                            >sad</p>
                            <div style=""width:240px; margin: auto;"">
                                <img src=""images/map10_PuBuGn_scaleDef_orientDef_090.png"" style= ""width:200px""alt=""img"">
                            </div>
                        </div>","153","","0","","","","images/map10_PuBuGn_scaleDef_orientDef_090.png","sad","1","10","10","PuBuGn","orientDef","scaleDef","090","",""
"","","","","","html-slider-response","40","157838","0.0-36.0","yj0x00k5xl","54","NaN","<div style=""width:500px;"">
                            <p style=""font-size:50px; font-weight:bold;""
                            >sad</p>
                            <div style=""width:240px; margin: auto;"">
                                <img src=""images/map15_coolwarm_scaleRev_orientDef_180.png"" style= ""width:200px""alt=""img"">
                            </div>
                        </div>","92","","0","","","","images/map15_coolwarm_scaleRev_orientDef_180.png","sad","1","15","15","coolwarm","orientDef","scaleRev","180","",""
"","","","","","html-slider-response","41","177251","0.0-37.0","yj0x00k5xl","54","NaN","<div style=""width:500px;"">
                            <p style=""font-size:50px; font-weight:bold;""
                            >sad</p>
                            <div style=""width:240px; margin: auto;"">
                                <img src=""images/map13_Spectral_scaleDef_orientMir_270.png"" style= ""width:200px""alt=""img"">
                            </div>
                        </div>","-91","","0","","","","images/map13_Spectral_scaleDef_orientMir_270.png","sad","1","13","13","Spectral","orientMir","scaleDef","270","",""
"","","","","","html-slider-response","42","179461","0.0-38.0","yj0x00k5xl","54","NaN","<div style=""width:500px;"">
                            <p style=""font-size:50px; font-weight:bold;""
                            >sad</p>
                            <div style=""width:240px; margin: auto;"">
                                <img src=""images/map27_Purples_scaleDef_orientMir_090.png"" style= ""width:200px""alt=""img"">
                            </div>
                        </div>","15","","0","","","","images/map27_Purples_scaleDef_orientMir_090.png","sad","1","27","27","Purples","orientMir","scaleDef","090","",""
"","","","","","html-slider-response","43","181613","0.0-39.0","yj0x00k5xl","54","NaN","<div style=""width:500px;"">
                            <p style=""font-size:50px; font-weight:bold;""
                            >sad</p>
                            <div style=""width:240px; margin: auto;"">
                                <img src=""images/map13_RdYlGn_scaleRev_orientMir_180.png"" style= ""width:200px""alt=""img"">
                            </div>
                        </div>","-137","","0","","","","images/map13_RdYlGn_scaleRev_orientMir_180.png","sad","1","13","13","RdYlGn","orientMir","scaleRev","180","",""
"","","","","","html-slider-response","44","184087","0.0-40.0","yj0x00k5xl","54","NaN","<div style=""width:500px;"">
                            <p style=""font-size:50px; font-weight:bold;""
                            >sad</p>
                            <div style=""width:240px; margin: auto;"">
                                <img src=""images/map10_BuGn_scaleDef_orientDef_270.png"" style= ""width:200px""alt=""img"">
                            </div>
                        </div>","-84","","0","","","","images/map10_BuGn_scaleDef_orientDef_270.png","sad","1","10","10","BuGn","orientDef","scaleDef","270","",""
"","","","","","html-slider-response","45","195020","0.0-41.0","yj0x00k5xl","54","NaN","<div style=""width:500px;"">
                            <p style=""font-size:50px; font-weight:bold;""
                            >sad</p>
                            <div style=""width:240px; margin: auto;"">
                                <img src=""images/map07_GnBu_scaleRev_orientMir_000.png"" style= ""width:200px""alt=""img"">
                            </div>
                        </div>","146","","0","","","","images/map07_GnBu_scaleRev_orientMir_000.png","sad","1","07","07","GnBu","orientMir","scaleRev","000","",""
"","","","","","html-slider-response","46","211156","0.0-42.0","yj0x00k5xl","54","NaN","<div style=""width:500px;"">
                            <p style=""font-size:50px; font-weight:bold;""
                            >sad</p>
                            <div style=""width:240px; margin: auto;"">
                                <img src=""images/map12_PRGn_scaleDef_orientDef_090.png"" style= ""width:200px""alt=""img"">
                            </div>
                        </div>","-130","","0","","","","images/map12_PRGn_scaleDef_orientDef_090.png","sad","1","12","12","PRGn","orientDef","scaleDef","090","",""
"","","","","","html-slider-response","47","213284","0.0-43.0","yj0x00k5xl","54","NaN","<div style=""width:500px;"">
                            <p style=""font-size:50px; font-weight:bold;""
                            >sad</p>
                            <div style=""width:240px; margin: auto;"">
                                <img src=""images/map27_Purples_scaleRev_orientMir_180.png"" style= ""width:200px""alt=""img"">
                            </div>
                        </div>","14","","0","","","","images/map27_Purples_scaleRev_orientMir_180.png","sad","1","27","27","Purples","orientMir","scaleRev","180","",""
"","","","","","html-slider-response","48","214895","0.0-44.0","yj0x00k5xl","54","NaN","<div style=""width:500px;"">
                            <p style=""font-size:50px; font-weight:bold;""
                            >sad</p>
                            <div style=""width:240px; margin: auto;"">
                                <img src=""images/map15_Spectral_scaleRev_orientDef_000.png"" style= ""width:200px""alt=""img"">
                            </div>
                        </div>","-66","","0","","","","images/map15_Spectral_scaleRev_orientDef_000.png","sad","1","15","15","Spectral","orientDef","scaleRev","000","",""
"","","","","","html-slider-response","49","218589","0.0-45.0","yj0x00k5xl","54","NaN","<div style=""width:500px;"">
                            <p style=""font-size:50px; font-weight:bold;""
                            >sad</p>
                            <div style=""width:240px; margin: auto;"">
                                <img src=""images/map05_OrRd_scaleRev_orientMir_000.png"" style= ""width:200px""alt=""img"">
                            </div>
                        </div>","-107","","0","","","","images/map05_OrRd_scaleRev_orientMir_000.png","sad","1","05","05","OrRd","orientMir","scaleRev","000","",""
"","","","","","html-slider-response","50","220213","0.0-46.0","yj0x00k5xl","54","NaN","<div style=""width:500px;"">
                            <p style=""font-size:50px; font-weight:bold;""
                            >sad</p>
                            <div style=""width:240px; margin: auto;"">
                                <img src=""images/map02_YlOrBr_scaleDef_orientMir_270.png"" style= ""width:200px""alt=""img"">
                            </div>
                        </div>","-103","","0","","","","images/map02_YlOrBr_scaleDef_orientMir_270.png","sad","1","02","02","YlOrBr","orientMir","scaleDef","270","",""
"","","","","","html-slider-response","51","222017","0.0-47.0","yj0x00k5xl","54","NaN","<div style=""width:500px;"">
                            <p style=""font-size:50px; font-weight:bold;""
                            >sad</p>
                            <div style=""width:240px; margin: auto;"">
                                <img src=""images/map07_RdPu_scaleRev_orientDef_000.png"" style= ""width:200px""alt=""img"">
                            </div>
                        </div>","-53","","0","","","","images/map07_RdPu_scaleRev_orientDef_000.png","sad","1","07","07","RdPu","orientDef","scaleRev","000","",""
"","","","","","html-slider-response","52","224544","0.0-48.0","yj0x00k5xl","54","NaN","<div style=""width:500px;"">
                            <p style=""font-size:50px; font-weight:bold;""
                            >sad</p>
                            <div style=""width:240px; margin: auto;"">
                                <img src=""images/map13_RdYlBu_scaleDef_orientDef_270.png"" style= ""width:200px""alt=""img"">
                            </div>
                        </div>","15","","0","","","","images/map13_RdYlBu_scaleDef_orientDef_270.png","sad","1","13","13","RdYlBu","orientDef","scaleDef","270","",""
"","","","","","html-slider-response","53","226647","0.0-49.0","yj0x00k5xl","54","NaN","<div style=""width:500px;"">
                            <p style=""font-size:50px; font-weight:bold;""
                            >sad</p>
                            <div style=""width:240px; margin: auto;"">
                                <img src=""images/map10_PuBuGn_scaleRev_orientDef_180.png"" style= ""width:200px""alt=""img"">
                            </div>
                        </div>","106","","0","","","","images/map10_PuBuGn_scaleRev_orientDef_180.png","sad","1","10","10","PuBuGn","orientDef","scaleRev","180","",""
"","","","","","html-slider-response","54","228644","0.0-50.0","yj0x00k5xl","54","NaN","<div style=""width:500px;"">
                            <p style=""font-size:50px; font-weight:bold;""
                            >sad</p>
                            <div style=""width:240px; margin: auto;"">
                                <img src=""images/map13_RdGy_scaleRev_orientDef_000.png"" style= ""width:200px""alt=""img"">
                            </div>
                        </div>","15","","0","","","","images/map13_RdGy_scaleRev_orientDef_000.png","sad","1","13","13","RdGy","orientDef","scaleRev","000","",""
"","","","","","html-slider-response","55","230418","0.0-51.0","yj0x00k5xl","54","NaN","<div style=""width:500px;"">
                            <p style=""font-size:50px; font-weight:bold;""
                            >sad</p>
                            <div style=""width:240px; margin: auto;"">
                                <img src=""images/map23_managua_scaleRev_orientDef_180.png"" style= ""width:200px""alt=""img"">
                            </div>
                        </div>","-61","","0","","","","images/map23_managua_scaleRev_orientDef_180.png","sad","1","23","23","managua","orientDef","scaleRev","180","",""
"","","","","","html-slider-response","56","232371","0.0-52.0","yj0x00k5xl","54","NaN","<div style=""width:500px;"">
                            <p style=""font-size:50px; font-weight:bold;""
                            >sad</p>
                            <div style=""width:240px; margin: auto;"">
                                <img src=""images/map15_seismic_scaleDef_orientMir_090.png"" style= ""width:200px""alt=""img"">
                            </div>
                        </div>","-32","","0","","","","images/map15_seismic_scaleDef_orientMir_090.png","sad","1","15","15","seismic","orientMir","scaleDef","090","",""
"","","","","","html-slider-response","57","234015","0.0-53.0","yj0x00k5xl","54","NaN","<div style=""width:500px;"">
                            <p style=""font-size:50px; font-weight:bold;""
                            >sad</p>
                            <div style=""width:240px; margin: auto;"">
                                <img src=""images/map07_GnBu_scaleDef_orientDef_270.png"" style= ""width:200px""alt=""img"">
                            </div>
                        </div>","122","","0","","","","images/map07_GnBu_scaleDef_orientDef_270.png","sad","1","07","07","GnBu","orientDef","scaleDef","270","",""
"","","","","","html-button-response","58","236336","0.0-54.0","yj0x00k5xl","54","1804","<p>You are doing great!<br></br> You are halway done with the current block. When you are ready to continue, click the 'Continue' button.</p>","0","","","","","","","","","","","","","","","",""
"","","","","","html-slider-response","59","237670","0.0-55.0","yj0x00k5xl","54","NaN","<div style=""width:500px;"">
                            <p style=""font-size:50px; font-weight:bold;""
                            >sad</p>
                            <div style=""width:240px; margin: auto;"">
                                <img src=""images/map07_PuBu_scaleDef_orientMir_090.png"" style= ""width:200px""alt=""img"">
                            </div>
                        </div>","190","","0","","","","images/map07_PuBu_scaleDef_orientMir_090.png","sad","1","07","07","PuBu","orientMir","scaleDef","090","",""
"","","","","","html-slider-response","60","239309","0.0-56.0","yj0x00k5xl","54","NaN","<div style=""width:500px;"">
                            <p style=""font-size:50px; font-weight:bold;""
                            >sad</p>
                            <div style=""width:240px; margin: auto;"">
                                <img src=""images/map05_RdPu_scaleDef_orientMir_270.png"" style= ""width:200px""alt=""img"">
                            </div>
                        </div>","-104","","0","","","","images/map05_RdPu_scaleDef_orientMir_270.png","sad","1","05","05","RdPu","orientMir","scaleDef","270","",""
"","","","","","html-slider-response","61","241064","0.0-57.0","yj0x00k5xl","54","NaN","<div style=""width:500px;"">
                            <p style=""font-size:50px; font-weight:bold;""
                            >sad</p>
                            <div style=""width:240px; margin: auto;"">
                                <img src=""images/map27_Greys_scaleRev_orientMir_000.png"" style= ""width:200px""alt=""img"">
                            </div>
                        </div>","149","","0","","","","images/map27_Greys_scaleRev_orientMir_000.png","sad","1","27","27","Greys","orientMir","scaleRev","000","",""
"","","","","","html-slider-response","62","242298","0.0-58.0","yj0x00k5xl","54","NaN","<div style=""width:500px;"">
                            <p style=""font-size:50px; font-weight:bold;""
                            >sad</p>
                            <div style=""width:240px; margin: auto;"">
                                <img src=""images/map07_BuPu_scaleRev_orientDef_180.png"" style= ""width:200px""alt=""img"">
                            </div>
                        </div>","144","","0","","","","images/map07_BuPu_scaleRev_orientDef_180.png","sad","1","07","07","BuPu","orientDef","scaleRev","180","",""
"","","","","","html-slider-response","63","244062","0.0-59.0","yj0x00k5xl","54","NaN","<div style=""width:500px;"">
                            <p style=""font-size:50px; font-weight:bold;""
                            >sad</p>
                            <div style=""width:240px; margin: auto;"">
                                <img src=""images/map23_managua_scaleDef_orientDef_090.png"" style= ""width:200px""alt=""img"">
                            </div>
                        </div>","-14","","0","","","","images/map23_managua_scaleDef_orientDef_090.png","sad","1","23","23","managua","orientDef","scaleDef","090","",""
"","","","","","html-slider-response","64","245667","0.0-60.0","yj0x00k5xl","54","NaN","<div style=""width:500px;"">
                            <p style=""font-size:50px; font-weight:bold;""
                            >sad</p>
                            <div style=""width:240px; margin: auto;"">
                                <img src=""images/map05_YlOrRd_scaleRev_orientDef_180.png"" style= ""width:200px""alt=""img"">
                            </div>
                        </div>","-90","","0","","","","images/map05_YlOrRd_scaleRev_orientDef_180.png","sad","1","05","05","YlOrRd","orientDef","scaleRev","180","",""
"","","","","","html-slider-response","65","247381","0.0-61.0","yj0x00k5xl","54","NaN","<div style=""width:500px;"">
                            <p style=""font-size:50px; font-weight:bold;""
                            >sad</p>
                            <div style=""width:240px; margin: auto;"">
                                <img src=""images/map13_RdBu_scaleDef_orientDef_090.png"" style= ""width:200px""alt=""img"">
                            </div>
                        </div>","10","","0","","","","images/map13_RdBu_scaleDef_orientDef_090.png","sad","1","13","13","RdBu","orientDef","scaleDef","090","",""
"","","","","","html-slider-response","66","249252","0.0-62.0","yj0x00k5xl","54","NaN","<div style=""width:500px;"">
                            <p style=""font-size:50px; font-weight:bold;""
                            >sad</p>
                            <div style=""width:240px; margin: auto;"">
                                <img src=""images/map10_YlGnBu_scaleRev_orientDef_000.png"" style= ""width:200px""alt=""img"">
                            </div>
                        </div>","92","","0","","","","images/map10_YlGnBu_scaleRev_orientDef_000.png","sad","1","10","10","YlGnBu","orientDef","scaleRev","000","",""
"","","","","","html-slider-response","67","251561","0.0-63.0","yj0x00k5xl","54","NaN","<div style=""width:500px;"">
                            <p style=""font-size:50px; font-weight:bold;""
                            >sad</p>
                            <div style=""width:240px; margin: auto;"">
                                <img src=""images/map23_vanimo_scaleDef_orientDef_270.png"" style= ""width:200px""alt=""img"">
                            </div>
                        </div>","44","","0","","","","images/map23_vanimo_scaleDef_orientDef_270.png","sad","1","23","23","vanimo","orientDef","scaleDef","270","",""
"","","","","","html-slider-response","68","253267","0.0-64.0","yj0x00k5xl","54","NaN","<div style=""width:500px;"">
                            <p style=""font-size:50px; font-weight:bold;""
                            >sad</p>
                            <div style=""width:240px; margin: auto;"">
                                <img src=""images/map13_RdYlGn_scaleDef_orientMir_090.png"" style= ""width:200px""alt=""img"">
                            </div>
                        </div>","-117","","0","","","","images/map13_RdYlGn_scaleDef_orientMir_090.png","sad","1","13","13","RdYlGn","orientMir","scaleDef","090","",""
"","","","","","html-slider-response","69","255294","0.0-65.0","yj0x00k5xl","54","NaN","<div style=""width:500px;"">
                            <p style=""font-size:50px; font-weight:bold;""
                            >sad</p>
                            <div style=""width:240px; margin: auto;"">
                                <img src=""images/map05_YlOrRd_scaleDef_orientDef_090.png"" style= ""width:200px""alt=""img"">
                            </div>
                        </div>","-178","","0","","","","images/map05_YlOrRd_scaleDef_orientDef_090.png","sad","1","05","05","YlOrRd","orientDef","scaleDef","090","",""
"","","","","","html-slider-response","70","256982","0.0-66.0","yj0x00k5xl","54","NaN","<div style=""width:500px;"">
                            <p style=""font-size:50px; font-weight:bold;""
                            >sad</p>
                            <div style=""width:240px; margin: auto;"">
                                <img src=""images/map23_vanimo_scaleRev_orientMir_000.png"" style= ""width:200px""alt=""img"">
                            </div>
                        </div>","25","","0","","","","images/map23_vanimo_scaleRev_orientMir_000.png","sad","1","23","23","vanimo","orientMir","scaleRev","000","",""
"","","","","","html-slider-response","71","258908","0.0-67.0","yj0x00k5xl","54","NaN","<div style=""width:500px;"">
                            <p style=""font-size:50px; font-weight:bold;""
                            >sad</p>
                            <div style=""width:240px; margin: auto;"">
                                <img src=""images/map07_BuPu_scaleDef_orientDef_090.png"" style= ""width:200px""alt=""img"">
                            </div>
                        </div>","72","","0","","","","images/map07_BuPu_scaleDef_orientDef_090.png","sad","1","07","07","BuPu","orientDef","scaleDef","090","",""
"","","","","","html-slider-response","72","260643","0.0-68.0","yj0x00k5xl","54","NaN","<div style=""width:500px;"">
                            <p style=""font-size:50px; font-weight:bold;""
                            >sad</p>
                            <div style=""width:240px; margin: auto;"">
                                <img src=""images/map12_BrBG_scaleDef_orientDef_270.png"" style= ""width:200px""alt=""img"">
                            </div>
                        </div>","8","","0","","","","images/map12_BrBG_scaleDef_orientDef_270.png","sad","1","12","12","BrBG","orientDef","scaleDef","270","",""
"","","","","","html-slider-response","73","262142","0.0-69.0","yj0x00k5xl","54","NaN","<div style=""width:500px;"">
                            <p style=""font-size:50px; font-weight:bold;""
                            >sad</p>
                            <div style=""width:240px; margin: auto;"">
                                <img src=""images/map15_bwr_scaleRev_orientMir_000.png"" style= ""width:200px""alt=""img"">
                            </div>
                        </div>","-13","","0","","","","images/map15_bwr_scaleRev_orientMir_000.png","sad","1","15","15","bwr","orientMir","scaleRev","000","",""
"","","","","","html-slider-response","74","263639","0.0-70.0","yj0x00k5xl","54","NaN","<div style=""width:500px;"">
                            <p style=""font-size:50px; font-weight:bold;""
                            >sad</p>
                            <div style=""width:240px; margin: auto;"">
                                <img src=""images/map02_Oranges_scaleRev_orientMir_000.png"" style= ""width:200px""alt=""img"">
                            </div>
                        </div>","-87","","0","","","","images/map02_Oranges_scaleRev_orientMir_000.png","sad","1","02","02","Oranges","orientMir","scaleRev","000","",""
"","","","","","html-slider-response","75","265195","0.0-71.0","yj0x00k5xl","54","NaN","<div style=""width:500px;"">
                            <p style=""font-size:50px; font-weight:bold;""
                            >sad</p>
                            <div style=""width:240px; margin: auto;"">
                                <img src=""images/map02_Greens_scaleDef_orientDef_090.png"" style= ""width:200px""alt=""img"">
                            </div>
                        </div>","-31","","0","","","","images/map02_Greens_scaleDef_orientDef_090.png","sad","1","02","02","Greens","orientDef","scaleDef","090","",""
"","","","","","html-slider-response","76","266310","0.0-72.0","yj0x00k5xl","54","NaN","<div style=""width:500px;"">
                            <p style=""font-size:50px; font-weight:bold;""
                            >sad</p>
                            <div style=""width:240px; margin: auto;"">
                                <img src=""images/map10_YlGn_scaleRev_orientMir_180.png"" style= ""width:200px""alt=""img"">
                            </div>
                        </div>","-65","","0","","","","images/map10_YlGn_scaleRev_orientMir_180.png","sad","1","10","10","YlGn","orientMir","scaleRev","180","",""
"","","","","","html-slider-response","77","267977","0.0-73.0","yj0x00k5xl","54","NaN","<div style=""width:500px;"">
                            <p style=""font-size:50px; font-weight:bold;""
                            >sad</p>
                            <div style=""width:240px; margin: auto;"">
                                <img src=""images/map12_PiYG_scaleRev_orientDef_000.png"" style= ""width:200px""alt=""img"">
                            </div>
                        </div>","-90","","0","","","","images/map12_PiYG_scaleRev_orientDef_000.png","sad","1","12","12","PiYG","orientDef","scaleRev","000","",""
"","","","","","html-slider-response","78","269574","0.0-74.0","yj0x00k5xl","54","NaN","<div style=""width:500px;"">
                            <p style=""font-size:50px; font-weight:bold;""
                            >sad</p>
                            <div style=""width:240px; margin: auto;"">
                                <img src=""images/map05_OrRd_scaleDef_orientDef_270.png"" style= ""width:200px""alt=""img"">
                            </div>
                        </div>","-138","","0","","","","images/map05_OrRd_scaleDef_orientDef_270.png","sad","1","05","05","OrRd","orientDef","scaleDef","270","",""
"","","","","","html-slider-response","79","271315","0.0-75.0","yj0x00k5xl","54","NaN","<div style=""width:500px;"">
                            <p style=""font-size:50px; font-weight:bold;""
                            >sad</p>
                            <div style=""width:240px; margin: auto;"">
                                <img src=""images/map13_RdYlBu_scaleRev_orientMir_000.png"" style= ""width:200px""alt=""img"">
                            </div>
                        </div>","18","","0","","","","images/map13_RdYlBu_scaleRev_orientMir_000.png","sad","1","13","13","RdYlBu","orientMir","scaleRev","000","",""
"","","","","","html-slider-response","80","272755","0.0-76.0","yj0x00k5xl","54","NaN","<div style=""width:500px;"">
                            <p style=""font-size:50px; font-weight:bold;""
                            >sad</p>
                            <div style=""width:240px; margin: auto;"">
                                <img src=""images/map15_seismic_scaleRev_orientMir_180.png"" style= ""width:200px""alt=""img"">
                            </div>
                        </div>","40","","0","","","","images/map15_seismic_scaleRev_orientMir_180.png","sad","1","15","15","seismic","orientMir","scaleRev","180","",""
"","","","","","html-slider-response","81","274458","0.0-77.0","yj0x00k5xl","54","NaN","<div style=""width:500px;"">
                            <p style=""font-size:50px; font-weight:bold;""
                            >sad</p>
                            <div style=""width:240px; margin: auto;"">
                                <img src=""images/map23_gist_earth_scaleDef_orientMir_090.png"" style= ""width:200px""alt=""img"">
                            </div>
                        </div>","-47","","0","","","","images/map23_gist_earth_scaleDef_orientMir_090.png","sad","1","23","23","gist","scaleDef","earth","orientMir","",""
"","","","","","html-slider-response","82","275982","0.0-78.0","yj0x00k5xl","54","NaN","<div style=""width:500px;"">
                            <p style=""font-size:50px; font-weight:bold;""
                            >sad</p>
                            <div style=""width:240px; margin: auto;"">
                                <img src=""images/map13_RdBu_scaleRev_orientDef_180.png"" style= ""width:200px""alt=""img"">
                            </div>
                        </div>","38","","0","","","","images/map13_RdBu_scaleRev_orientDef_180.png","sad","1","13","13","RdBu","orientDef","scaleRev","180","",""
"","","","","","html-slider-response","83","277791","0.0-79.0","yj0x00k5xl","54","NaN","<div style=""width:500px;"">
                            <p style=""font-size:50px; font-weight:bold;""
                            >sad</p>
                            <div style=""width:240px; margin: auto;"">
                                <img src=""images/map07_PuBu_scaleRev_orientMir_180.png"" style= ""width:200px""alt=""img"">
                            </div>
                        </div>","138","","0","","","","images/map07_PuBu_scaleRev_orientMir_180.png","sad","1","07","07","PuBu","orientMir","scaleRev","180","",""
"","","","","","html-slider-response","84","279419","0.0-80.0","yj0x00k5xl","54","NaN","<div style=""width:500px;"">
                            <p style=""font-size:50px; font-weight:bold;""
                            >sad</p>
                            <div style=""width:240px; margin: auto;"">
                                <img src=""images/map27_cividis_scaleRev_orientDef_180.png"" style= ""width:200px""alt=""img"">
                            </div>
                        </div>","106","","0","","","","images/map27_cividis_scaleRev_orientDef_180.png","sad","1","27","27","cividis","orientDef","scaleRev","180","",""
"","","","","","html-slider-response","85","280954","0.0-81.0","yj0x00k5xl","54","NaN","<div style=""width:500px;"">
                            <p style=""font-size:50px; font-weight:bold;""
                            >sad</p>
                            <div style=""width:240px; margin: auto;"">
                                <img src=""images/map26_inferno_scaleRev_orientMir_180.png"" style= ""width:200px""alt=""img"">
                            </div>
                        </div>","-66","","0","","","","images/map26_inferno_scaleRev_orientMir_180.png","sad","1","26","26","inferno","orientMir","scaleRev","180","",""
"","","","","","html-slider-response","86","282310","0.0-82.0","yj0x00k5xl","54","NaN","<div style=""width:500px;"">
                            <p style=""font-size:50px; font-weight:bold;""
                            >sad</p>
                            <div style=""width:240px; margin: auto;"">
                                <img src=""images/map23_gist_earth_scaleRev_orientMir_180.png"" style= ""width:200px""alt=""img"">
                            </div>
                        </div>","-87","","0","","","","images/map23_gist_earth_scaleRev_orientMir_180.png","sad","1","23","23","gist","scaleRev","earth","orientMir","",""
"","","","","","html-slider-response","87","283849","0.0-83.0","yj0x00k5xl","54","NaN","<div style=""width:500px;"">
                            <p style=""font-size:50px; font-weight:bold;""
                            >sad</p>
                            <div style=""width:240px; margin: auto;"">
                                <img src=""images/map12_PRGn_scaleRev_orientDef_180.png"" style= ""width:200px""alt=""img"">
                            </div>
                        </div>","-82","","0","","","","images/map12_PRGn_scaleRev_orientDef_180.png","sad","1","12","12","PRGn","orientDef","scaleRev","180","",""
"","","","","","html-slider-response","88","285143","0.0-84.0","yj0x00k5xl","54","NaN","<div style=""width:500px;"">
                            <p style=""font-size:50px; font-weight:bold;""
                            >sad</p>
                            <div style=""width:240px; margin: auto;"">
                                <img src=""images/map02_Reds_scaleRev_orientMir_180.png"" style= ""width:200px""alt=""img"">
                            </div>
                        </div>","-100","","0","","","","images/map02_Reds_scaleRev_orientMir_180.png","sad","1","02","02","Reds","orientMir","scaleRev","180","",""
"","","","","","html-slider-response","89","286997","0.0-85.0","yj0x00k5xl","54","NaN","<div style=""width:500px;"">
                            <p style=""font-size:50px; font-weight:bold;""
                            >sad</p>
                            <div style=""width:240px; margin: auto;"">
                                <img src=""images/map27_cividis_scaleDef_orientDef_090.png"" style= ""width:200px""alt=""img"">
                            </div>
                        </div>","72","","0","","","","images/map27_cividis_scaleDef_orientDef_090.png","sad","1","27","27","cividis","orientDef","scaleDef","090","",""
"","","","","","html-slider-response","90","288467","0.0-86.0","yj0x00k5xl","54","NaN","<div style=""width:500px;"">
                            <p style=""font-size:50px; font-weight:bold;""
                            >sad</p>
                            <div style=""width:240px; margin: auto;"">
                                <img src=""images/map12_BrBG_scaleRev_orientMir_000.png"" style= ""width:200px""alt=""img"">
                            </div>
                        </div>","21","","0","","","","images/map12_BrBG_scaleRev_orientMir_000.png","sad","1","12","12","BrBG","orientMir","scaleRev","000","",""
"","","","","","html-slider-response","91","289783","0.0-87.0","yj0x00k5xl","54","NaN","<div style=""width:500px;"">
                            <p style=""font-size:50px; font-weight:bold;""
                            >sad</p>
                            <div style=""width:240px; margin: auto;"">
                                <img src=""images/map12_PuOr_scaleRev_orientMir_180.png"" style= ""width:200px""alt=""img"">
                            </div>
                        </div>","21","","0","","","","images/map12_PuOr_scaleRev_orientMir_180.png","sad","1","12","12","PuOr","orientMir","scaleRev","180","",""
"","","","","","html-slider-response","92","291491","0.0-88.0","yj0x00k5xl","54","NaN","<div style=""width:500px;"">
                            <p style=""font-size:50px; font-weight:bold;""
                            >sad</p>
                            <div style=""width:240px; margin: auto;"">
                                <img src=""images/map02_Greens_scaleRev_orientDef_180.png"" style= ""width:200px""alt=""img"">
                            </div>
                        </div>","-75","","0","","","","images/map02_Greens_scaleRev_orientDef_180.png","sad","1","02","02","Greens","orientDef","scaleRev","180","",""
"","","","","","html-slider-response","93","292960","0.0-89.0","yj0x00k5xl","54","NaN","<div style=""width:500px;"">
                            <p style=""font-size:50px; font-weight:bold;""
                            >sad</p>
                            <div style=""width:240px; margin: auto;"">
                                <img src=""images/map26_inferno_scaleDef_orientMir_090.png"" style= ""width:200px""alt=""img"">
                            </div>
                        </div>","-70","","0","","","","images/map26_inferno_scaleDef_orientMir_090.png","sad","1","26","26","inferno","orientMir","scaleDef","090","",""
"","","","","","html-slider-response","94","294132","0.0-90.0","yj0x00k5xl","54","NaN","<div style=""width:500px;"">
                            <p style=""font-size:50px; font-weight:bold;""
                            >sad</p>
                            <div style=""width:240px; margin: auto;"">
                                <img src=""images/map05_YlOrBr_scaleRev_orientDef_000.png"" style= ""width:200px""alt=""img"">
                            </div>
                        </div>","-70","","0","","","","images/map05_YlOrBr_scaleRev_orientDef_000.png","sad","1","05","05","YlOrBr","orientDef","scaleRev","000","",""
"","","","","","html-slider-response","95","295434","0.0-91.0","yj0x00k5xl","54","NaN","<div style=""width:500px;"">
                            <p style=""font-size:50px; font-weight:bold;""
                            >sad</p>
                            <div style=""width:240px; margin: auto;"">
                                <img src=""images/map10_YlGn_scaleDef_orientMir_090.png"" style= ""width:200px""alt=""img"">
                            </div>
                        </div>","-119","","0","","","","images/map10_YlGn_scaleDef_orientMir_090.png","sad","1","10","10","YlGn","orientMir","scaleDef","090","",""
"","","","","","html-slider-response","96","296765","0.0-92.0","yj0x00k5xl","54","NaN","<div style=""width:500px;"">
                            <p style=""font-size:50px; font-weight:bold;""
                            >sad</p>
                            <div style=""width:240px; margin: auto;"">
                                <img src=""images/map05_PuRd_scaleRev_orientMir_180.png"" style= ""width:200px""alt=""img"">
                            </div>
                        </div>","-93","","0","","","","images/map05_PuRd_scaleRev_orientMir_180.png","sad","1","05","05","PuRd","orientMir","scaleRev","180","",""
"","","","","","html-slider-response","97","298063","0.0-93.0","yj0x00k5xl","54","NaN","<div style=""width:500px;"">
                            <p style=""font-size:50px; font-weight:bold;""
                            >sad</p>
                            <div style=""width:240px; margin: auto;"">
                                <img src=""images/map10_PiYG_scaleDef_orientMir_270.png"" style= ""width:200px""alt=""img"">
                            </div>
                        </div>","-93","","0","","","","images/map10_PiYG_scaleDef_orientMir_270.png","sad","1","10","10","PiYG","orientMir","scaleDef","270","",""
"","","","","","html-slider-response","98","299785","0.0-94.0","yj0x00k5xl","54","NaN","<div style=""width:500px;"">
                            <p style=""font-size:50px; font-weight:bold;""
                            >sad</p>
                            <div style=""width:240px; margin: auto;"">
                                <img src=""images/map15_coolwarm_scaleDef_orientDef_090.png"" style= ""width:200px""alt=""img"">
                            </div>
                        </div>","-50","","0","","","","images/map15_coolwarm_scaleDef_orientDef_090.png","sad","1","15","15","coolwarm","orientDef","scaleDef","090","",""
"","","","","","html-button-response","99","302575","0.0-95.0","yj0x00k5xl","54","2275","<p>Great Job! You've finished block 1.<br></br> You have 4 block(s) left to go.<br></br></p>","0","","","","","","","","","","","","","","","",""
"","","","","","html-button-response","100","305275","0.0-96.0","yj0x00k5xl","54","2697","<p>In this block of trials, you will be asked to rate how much you associate each map with:</p > <p style = 'font-size:150%; font-weight: bold'>happy</p><br></br>","0","","","","","","","","","","","","","","","",""
"","","","","","html-slider-response","101","306533","0.0-97.0","yj0x00k5xl","54","NaN","<div style=""width:500px;"">
                            <p style=""font-size:50px; font-weight:bold;""
                            >happy</p>
                            <div style=""width:240px; margin: auto;"">
                                <img src=""images/map23_managua_scaleDef_orientDef_090.png"" style= ""width:200px""alt=""img"">
                            </div>
                        </div>","26","","0","","","","images/map23_managua_scaleDef_orientDef_090.png","happy","1","23","23","managua","orientDef","scaleDef","090","",""
"","","","","","html-slider-response","102","308345","0.0-98.0","yj0x00k5xl","54","NaN","<div style=""width:500px;"">
                            <p style=""font-size:50px; font-weight:bold;""
                            >happy</p>
                            <div style=""width:240px; margin: auto;"">
                                <img src=""images/map23_vanimo_scaleDef_orientDef_270.png"" style= ""width:200px""alt=""img"">
                            </div>
                        </div>","-74","","0","","","","images/map23_vanimo_scaleDef_orientDef_270.png","happy","1","23","23","vanimo","orientDef","scaleDef","270","",""
"","","","","","html-slider-response","103","309866","0.0-99.0","yj0x00k5xl","54","NaN","<div style=""width:500px;"">
                            <p style=""font-size:50px; font-weight:bold;""
                            >happy</p>
                            <div style=""width:240px; margin: auto;"">
                                <img src=""images/map13_RdYlGn_scaleDef_orientMir_090.png"" style= ""width:200px""alt=""img"">
                            </div>
                        </div>","-65","","0","","","","images/map13_RdYlGn_scaleDef_orientMir_090.png","happy","1","13","13","RdYlGn","orientMir","scaleDef","090","",""
"","","","","","html-slider-response","104","311309","0.0-100.0","yj0x00k5xl","54","NaN","<div style=""width:500px;"">
                            <p style=""font-size:50px; font-weight:bold;""
                            >happy</p>
                            <div style=""width:240px; margin: auto;"">
                                <img src=""images/map15_seismic_scaleRev_orientMir_180.png"" style= ""width:200px""alt=""img"">
                            </div>
                        </div>","-54","","0","","","","images/map15_seismic_scaleRev_orientMir_180.png","happy","1","15","15","seismic","orientMir","scaleRev","180","",""
"","","","","","html-slider-response","105","312902","0.0-101.0","yj0x00k5xl","54","NaN","<div style=""width:500px;"">
                            <p style=""font-size:50px; font-weight:bold;""
                            >happy</p>
                            <div style=""width:240px; margin: auto;"">
                                <img src=""images/map27_cividis_scaleDef_orientDef_090.png"" style= ""width:200px""alt=""img"">
                            </div>
                        </div>","-110","","0","","","","images/map27_cividis_scaleDef_orientDef_090.png","happy","1","27","27","cividis","orientDef","scaleDef","090","",""
"","","","","","html-slider-response","106","314542","0.0-102.0","yj0x00k5xl","54","NaN","<div style=""width:500px;"">
                            <p style=""font-size:50px; font-weight:bold;""
                            >happy</p>
                            <div style=""width:240px; margin: auto;"">
                                <img src=""images/map05_PuRd_scaleDef_orientMir_090.png"" style= ""width:200px""alt=""img"">
                            </div>
                        </div>","23","","0","","","","images/map05_PuRd_scaleDef_orientMir_090.png","happy","1","05","05","PuRd","orientMir","scaleDef","090","",""
"","","","","","html-slider-response","107","315713","0.0-103.0","yj0x00k5xl","54","NaN","<div style=""width:500px;"">
                            <p style=""font-size:50px; font-weight:bold;""
                            >happy</p>
                            <div style=""width:240px; margin: auto;"">
                                <img src=""images/map05_RdPu_scaleDef_orientMir_270.png"" style= ""width:200px""alt=""img"">
                            </div>
                        </div>","48","","0","","","","images/map05_RdPu_scaleDef_orientMir_270.png","happy","1","05","05","RdPu","orientMir","scaleDef","270","",""
"","","","","","html-slider-response","108","317926","0.0-104.0","yj0x00k5xl","54","NaN","<div style=""width:500px;"">
                            <p style=""font-size:50px; font-weight:bold;""
                            >happy</p>
                            <div style=""width:240px; margin: auto;"">
                                <img src=""images/map23_turbo_scaleDef_orientMir_270.png"" style= ""width:200px""alt=""img"">
                            </div>
                        </div>","43","","0","","","","images/map23_turbo_scaleDef_orientMir_270.png","happy","1","23","23","turbo","orientMir","scaleDef","270","",""
"","","","","","html-slider-response","109","319755","0.0-105.0","yj0x00k5xl","54","NaN","<div style=""width:500px;"">
                            <p style=""font-size:50px; font-weight:bold;""
                            >happy</p>
                            <div style=""width:240px; margin: auto;"">
                                <img src=""images/map07_YlGnBu_scaleDef_orientMir_270.png"" style= ""width:200px""alt=""img"">
                            </div>
                        </div>","-115","","0","","","","images/map07_YlGnBu_scaleDef_orientMir_270.png","happy","1","07","07","YlGnBu","orientMir","scaleDef","270","",""
"","","","","","html-slider-response","110","321262","0.0-106.0","yj0x00k5xl","54","NaN","<div style=""width:500px;"">
                            <p style=""font-size:50px; font-weight:bold;""
                            >happy</p>
                            <div style=""width:240px; margin: auto;"">
                                <img src=""images/map07_BuPu_scaleRev_orientDef_180.png"" style= ""width:200px""alt=""img"">
                            </div>
                        </div>","-118","","0","","","","images/map07_BuPu_scaleRev_orientDef_180.png","happy","1","07","07","BuPu","orientDef","scaleRev","180","",""
"","","","","","html-slider-response","111","323930","0.0-107.0","yj0x00k5xl","54","NaN","<div style=""width:500px;"">
                            <p style=""font-size:50px; font-weight:bold;""
                            >happy</p>
                            <div style=""width:240px; margin: auto;"">
                                <img src=""images/map10_YlGn_scaleDef_orientMir_090.png"" style= ""width:200px""alt=""img"">
                            </div>
                        </div>","14","","0","","","","images/map10_YlGn_scaleDef_orientMir_090.png","happy","1","10","10","YlGn","orientMir","scaleDef","090","",""
"","","","","","html-slider-response","112","325996","0.0-108.0","yj0x00k5xl","54","NaN","<div style=""width:500px;"">
                            <p style=""font-size:50px; font-weight:bold;""
                            >happy</p>
                            <div style=""width:240px; margin: auto;"">
                                <img src=""images/map27_Purples_scaleRev_orientMir_180.png"" style= ""width:200px""alt=""img"">
                            </div>
                        </div>","-106","","0","","","","images/map27_Purples_scaleRev_orientMir_180.png","happy","1","27","27","Purples","orientMir","scaleRev","180","",""
"","","","","","html-slider-response","113","327592","0.0-109.0","yj0x00k5xl","54","NaN","<div style=""width:500px;"">
                            <p style=""font-size:50px; font-weight:bold;""
                            >happy</p>
                            <div style=""width:240px; margin: auto;"">
                                <img src=""images/map05_YlOrBr_scaleRev_orientDef_000.png"" style= ""width:200px""alt=""img"">
                            </div>
                        </div>","143","","0","","","","images/map05_YlOrBr_scaleRev_orientDef_000.png","happy","1","05","05","YlOrBr","orientDef","scaleRev","000","",""
"","","","","","html-slider-response","114","329163","0.0-110.0","yj0x00k5xl","54","NaN","<div style=""width:500px;"">
                            <p style=""font-size:50px; font-weight:bold;""
                            >happy</p>
                            <div style=""width:240px; margin: auto;"">
                                <img src=""images/map13_RdBu_scaleRev_orientDef_180.png"" style= ""width:200px""alt=""img"">
                            </div>
                        </div>","108","","0","","","","images/map13_RdBu_scaleRev_orientDef_180.png","happy","1","13","13","RdBu","orientDef","scaleRev","180","",""
"","","","","","html-slider-response","115","330635","0.0-111.0","yj0x00k5xl","54","NaN","<div style=""width:500px;"">
                            <p style=""font-size:50px; font-weight:bold;""
                            >happy</p>
                            <div style=""width:240px; margin: auto;"">
                                <img src=""images/map10_BuGn_scaleRev_orientMir_000.png"" style= ""width:200px""alt=""img"">
                            </div>
                        </div>","74","","0","","","","images/map10_BuGn_scaleRev_orientMir_000.png","happy","1","10","10","BuGn","orientMir","scaleRev","000","",""
"","","","","","html-slider-response","116","332516","0.0-112.0","yj0x00k5xl","54","NaN","<div style=""width:500px;"">
                            <p style=""font-size:50px; font-weight:bold;""
                            >happy</p>
                            <div style=""width:240px; margin: auto;"">
                                <img src=""images/map12_PuOr_scaleRev_orientMir_180.png"" style= ""width:200px""alt=""img"">
                            </div>
                        </div>","3","","0","","","","images/map12_PuOr_scaleRev_orientMir_180.png","happy","1","12","12","PuOr","orientMir","scaleRev","180","",""
"","","","","","html-slider-response","117","333921","0.0-113.0","yj0x00k5xl","54","NaN","<div style=""width:500px;"">
                            <p style=""font-size:50px; font-weight:bold;""
                            >happy</p>
                            <div style=""width:240px; margin: auto;"">
                                <img src=""images/map02_Greens_scaleRev_orientDef_180.png"" style= ""width:200px""alt=""img"">
                            </div>
                        </div>","-49","","0","","","","images/map02_Greens_scaleRev_orientDef_180.png","happy","1","02","02","Greens","orientDef","scaleRev","180","",""
"","","","","","html-slider-response","118","335417","0.0-114.0","yj0x00k5xl","54","NaN","<div style=""width:500px;"">
                            <p style=""font-size:50px; font-weight:bold;""
                            >happy</p>
                            <div style=""width:240px; margin: auto;"">
                                <img src=""images/map10_PuBuGn_scaleRev_orientDef_180.png"" style= ""width:200px""alt=""img"">
                            </div>
                        </div>","-42","","0","","","","images/map10_PuBuGn_scaleRev_orientDef_180.png","happy","1","10","10","PuBuGn","orientDef","scaleRev","180","",""
"","","","","","html-slider-response","119","337464","0.0-115.0","yj0x00k5xl","54","NaN","<div style=""width:500px;"">
                            <p style=""font-size:50px; font-weight:bold;""
                            >happy</p>
                            <div style=""width:240px; margin: auto;"">
                                <img src=""images/map26_plasma_scaleRev_orientMir_000.png"" style= ""width:200px""alt=""img"">
                            </div>
                        </div>","-42","","0","","","","images/map26_plasma_scaleRev_orientMir_000.png","happy","1","26","26","plasma","orientMir","scaleRev","000","",""
"","","","","","html-slider-response","120","339033","0.0-116.0","yj0x00k5xl","54","NaN","<div style=""width:500px;"">
                            <p style=""font-size:50px; font-weight:bold;""
                            >happy</p>
                            <div style=""width:240px; margin: auto;"">
                                <img src=""images/map13_RdYlBu_scaleRev_orientMir_000.png"" style= ""width:200px""alt=""img"">
                            </div>
                        </div>","-68","","0","","","","images/map13_RdYlBu_scaleRev_orientMir_000.png","happy","1","13","13","RdYlBu","orientMir","scaleRev","000","",""
"","","","","","html-slider-response","121","341401","0.0-117.0","yj0x00k5xl","54","NaN","<div style=""width:500px;"">
                            <p style=""font-size:50px; font-weight:bold;""
                            >happy</p>
                            <div style=""width:240px; margin: auto;"">
                                <img src=""images/map13_RdYlBu_scaleDef_orientDef_270.png"" style= ""width:200px""alt=""img"">
                            </div>
                        </div>","52","","0","","","","images/map13_RdYlBu_scaleDef_orientDef_270.png","happy","1","13","13","RdYlBu","orientDef","scaleDef","270","",""
"","","","","","html-slider-response","122","343683","0.0-118.0","yj0x00k5xl","54","NaN","<div style=""width:500px;"">
                            <p style=""font-size:50px; font-weight:bold;""
                            >happy</p>
                            <div style=""width:240px; margin: auto;"">
                                <img src=""images/map13_RdGy_scaleRev_orientDef_000.png"" style= ""width:200px""alt=""img"">
                            </div>
                        </div>","-30","","0","","","","images/map13_RdGy_scaleRev_orientDef_000.png","happy","1","13","13","RdGy","orientDef","scaleRev","000","",""
"","","","","","html-slider-response","123","345149","0.0-119.0","yj0x00k5xl","54","NaN","<div style=""width:500px;"">
                            <p style=""font-size:50px; font-weight:bold;""
                            >happy</p>
                            <div style=""width:240px; margin: auto;"">
                                <img src=""images/map13_RdBu_scaleDef_orientDef_090.png"" style= ""width:200px""alt=""img"">
                            </div>
                        </div>","-63","","0","","","","images/map13_RdBu_scaleDef_orientDef_090.png","happy","1","13","13","RdBu","orientDef","scaleDef","090","",""
"","","","","","html-slider-response","124","346737","0.0-120.0","yj0x00k5xl","54","NaN","<div style=""width:500px;"">
                            <p style=""font-size:50px; font-weight:bold;""
                            >happy</p>
                            <div style=""width:240px; margin: auto;"">
                                <img src=""images/map12_BrBG_scaleDef_orientDef_270.png"" style= ""width:200px""alt=""img"">
                            </div>
                        </div>","-97","","0","","","","images/map12_BrBG_scaleDef_orientDef_270.png","happy","1","12","12","BrBG","orientDef","scaleDef","270","",""
"","","","","","html-slider-response","125","348412","0.0-121.0","yj0x00k5xl","54","NaN","<div style=""width:500px;"">
                            <p style=""font-size:50px; font-weight:bold;""
                            >happy</p>
                            <div style=""width:240px; margin: auto;"">
                                <img src=""images/map23_berlin_scaleRev_orientDef_000.png"" style= ""width:200px""alt=""img"">
                            </div>
                        </div>","-81","","0","","","","images/map23_berlin_scaleRev_orientDef_000.png","happy","1","23","23","berlin","orientDef","scaleRev","000","",""
"","","","","","html-slider-response","126","349946","0.0-122.0","yj0x00k5xl","54","NaN","<div style=""width:500px;"">
                            <p style=""font-size:50px; font-weight:bold;""
                            >happy</p>
                            <div style=""width:240px; margin: auto;"">
                                <img src=""images/map27_Purples_scaleDef_orientMir_090.png"" style= ""width:200px""alt=""img"">
                            </div>
                        </div>","-96","","0","","","","images/map27_Purples_scaleDef_orientMir_090.png","happy","1","27","27","Purples","orientMir","scaleDef","090","",""
"","","","","","html-slider-response","127","351580","0.0-123.0","yj0x00k5xl","54","NaN","<div style=""width:500px;"">
                            <p style=""font-size:50px; font-weight:bold;""
                            >happy</p>
                            <div style=""width:240px; margin: auto;"">
                                <img src=""images/map23_gist_earth_scaleRev_orientMir_180.png"" style= ""width:200px""alt=""img"">
                            </div>
                        </div>","-77","","0","","","","images/map23_gist_earth_scaleRev_orientMir_180.png","happy","1","23","23","gist","scaleRev","earth","orientMir","",""
"","","","","","html-slider-response","128","353012","0.0-124.0","yj0x00k5xl","54","NaN","<div style=""width:500px;"">
                            <p style=""font-size:50px; font-weight:bold;""
                            >happy</p>
                            <div style=""width:240px; margin: auto;"">
                                <img src=""images/map15_seismic_scaleDef_orientMir_090.png"" style= ""width:200px""alt=""img"">
                            </div>
                        </div>","-63","","0","","","","images/map15_seismic_scaleDef_orientMir_090.png","happy","1","15","15","seismic","orientMir","scaleDef","090","",""
"","","","","","html-slider-response","129","355187","0.0-125.0","yj0x00k5xl","54","NaN","<div style=""width:500px;"">
                            <p style=""font-size:50px; font-weight:bold;""
                            >happy</p>
                            <div style=""width:240px; margin: auto;"">
                                <img src=""images/map23_gist_earth_scaleDef_orientMir_090.png"" style= ""width:200px""alt=""img"">
                            </div>
                        </div>","-60","","0","","","","images/map23_gist_earth_scaleDef_orientMir_090.png","happy","1","23","23","gist","scaleDef","earth","orientMir","",""
"","","","","","html-slider-response","130","356938","0.0-126.0","yj0x00k5xl","54","NaN","<div style=""width:500px;"">
                            <p style=""font-size:50px; font-weight:bold;""
                            >happy</p>
                            <div style=""width:240px; margin: auto;"">
                                <img src=""images/map07_PuBu_scaleDef_orientMir_090.png"" style= ""width:200px""alt=""img"">
                            </div>
                        </div>","-84","","0","","","","images/map07_PuBu_scaleDef_orientMir_090.png","happy","1","07","07","PuBu","orientMir","scaleDef","090","",""
"","","","","","html-slider-response","131","361105","0.0-127.0","yj0x00k5xl","54","NaN","<div style=""width:500px;"">
                            <p style=""font-size:50px; font-weight:bold;""
                            >happy</p>
                            <div style=""width:240px; margin: auto;"">
                                <img src=""images/map26_plasma_scaleDef_orientDef_270.png"" style= ""width:200px""alt=""img"">
                            </div>
                        </div>","-96","","0","","","","images/map26_plasma_scaleDef_orientDef_270.png","happy","1","26","26","plasma","orientDef","scaleDef","270","",""
"","","","","","html-slider-response","132","362888","0.0-128.0","yj0x00k5xl","54","NaN","<div style=""width:500px;"">
                            <p style=""font-size:50px; font-weight:bold;""
                            >happy</p>
                            <div style=""width:240px; margin: auto;"">
                                <img src=""images/map02_Blues_scaleRev_orientDef_000.png"" style= ""width:200px""alt=""img"">
                            </div>
                        </div>","-93","","0","","","","images/map02_Blues_scaleRev_orientDef_000.png","happy","1","02","02","Blues","orientDef","scaleRev","000","",""
"","","","","","html-slider-response","133","364245","0.0-129.0","yj0x00k5xl","54","NaN","<div style=""width:500px;"">
                            <p style=""font-size:50px; font-weight:bold;""
                            >happy</p>
                            <div style=""width:240px; margin: auto;"">
                                <img src=""images/map27_Blues_scaleDef_orientMir_270.png"" style= ""width:200px""alt=""img"">
                            </div>
                        </div>","-93","","0","","","","images/map27_Blues_scaleDef_orientMir_270.png","happy","1","27","27","Blues","orientMir","scaleDef","270","",""
"","","","","","html-slider-response","134","365825","0.0-130.0","yj0x00k5xl","54","NaN","<div style=""width:500px;"">
                            <p style=""font-size:50px; font-weight:bold;""
                            >happy</p>
                            <div style=""width:240px; margin: auto;"">
                                <img src=""images/map12_PiYG_scaleRev_orientDef_000.png"" style= ""width:200px""alt=""img"">
                            </div>
                        </div>","56","","0","","","","images/map12_PiYG_scaleRev_orientDef_000.png","happy","1","12","12","PiYG","orientDef","scaleRev","000","",""
"","","","","","html-slider-response","135","367407","0.0-131.0","yj0x00k5xl","54","NaN","<div style=""width:500px;"">
                            <p style=""font-size:50px; font-weight:bold;""
                            >happy</p>
                            <div style=""width:240px; margin: auto;"">
                                <img src=""images/map27_Greys_scaleRev_orientMir_000.png"" style= ""width:200px""alt=""img"">
                            </div>
                        </div>","-72","","0","","","","images/map27_Greys_scaleRev_orientMir_000.png","happy","1","27","27","Greys","orientMir","scaleRev","000","",""
"","","","","","html-slider-response","136","370035","0.0-132.0","yj0x00k5xl","54","NaN","<div style=""width:500px;"">
                            <p style=""font-size:50px; font-weight:bold;""
                            >happy</p>
                            <div style=""width:240px; margin: auto;"">
                                <img src=""images/map12_PRGn_scaleDef_orientDef_090.png"" style= ""width:200px""alt=""img"">
                            </div>
                        </div>","11","","0","","","","images/map12_PRGn_scaleDef_orientDef_090.png","happy","1","12","12","PRGn","orientDef","scaleDef","090","",""
"","","","","","html-slider-response","137","371833","0.0-133.0","yj0x00k5xl","54","NaN","<div style=""width:500px;"">
                            <p style=""font-size:50px; font-weight:bold;""
                            >happy</p>
                            <div style=""width:240px; margin: auto;"">
                                <img src=""images/map23_managua_scaleRev_orientDef_180.png"" style= ""width:200px""alt=""img"">
                            </div>
                        </div>","-75","","0","","","","images/map23_managua_scaleRev_orientDef_180.png","happy","1","23","23","managua","orientDef","scaleRev","180","",""
"","","","","","html-slider-response","138","373797","0.0-134.0","yj0x00k5xl","54","NaN","<div style=""width:500px;"">
                            <p style=""font-size:50px; font-weight:bold;""
                            >happy</p>
                            <div style=""width:240px; margin: auto;"">
                                <img src=""images/map12_PuOr_scaleDef_orientMir_090.png"" style= ""width:200px""alt=""img"">
                            </div>
                        </div>","29","","0","","","","images/map12_PuOr_scaleDef_orientMir_090.png","happy","1","12","12","PuOr","orientMir","scaleDef","090","",""
"","","","","","html-slider-response","139","375167","0.0-135.0","yj0x00k5xl","54","NaN","<div style=""width:500px;"">
                            <p style=""font-size:50px; font-weight:bold;""
                            >happy</p>
                            <div style=""width:240px; margin: auto;"">
                                <img src=""images/map15_berlin_scaleDef_orientMir_270.png"" style= ""width:200px""alt=""img"">
                            </div>
                        </div>","-112","","0","","","","images/map15_berlin_scaleDef_orientMir_270.png","happy","1","15","15","berlin","orientMir","scaleDef","270","",""
"","","","","","html-slider-response","140","376297","0.0-136.0","yj0x00k5xl","54","NaN","<div style=""width:500px;"">
                            <p style=""font-size:50px; font-weight:bold;""
                            >happy</p>
                            <div style=""width:240px; margin: auto;"">
                                <img src=""images/map07_GnBu_scaleRev_orientMir_000.png"" style= ""width:200px""alt=""img"">
                            </div>
                        </div>","-74","","0","","","","images/map07_GnBu_scaleRev_orientMir_000.png","happy","1","07","07","GnBu","orientMir","scaleRev","000","",""
"","","","","","html-button-response","141","378119","0.0-137.0","yj0x00k5xl","54","1320","<p>You are doing great!<br></br> You are halway done with the current block. When you are ready to continue, click the 'Continue' button.</p>","0","","","","","","","","","","","","","","","",""
"","","","","","html-slider-response","142","379698","0.0-138.0","yj0x00k5xl","54","NaN","<div style=""width:500px;"">
                            <p style=""font-size:50px; font-weight:bold;""
                            >happy</p>
                            <div style=""width:240px; margin: auto;"">
                                <img src=""images/map10_YlGn_scaleRev_orientMir_180.png"" style= ""width:200px""alt=""img"">
                            </div>
                        </div>","38","","0","","","","images/map10_YlGn_scaleRev_orientMir_180.png","happy","1","10","10","YlGn","orientMir","scaleRev","180","",""
"","","","","","html-slider-response","143","381313","0.0-139.0","yj0x00k5xl","54","NaN","<div style=""width:500px;"">
                            <p style=""font-size:50px; font-weight:bold;""
                            >happy</p>
                            <div style=""width:240px; margin: auto;"">
                                <img src=""images/map07_BuPu_scaleDef_orientDef_090.png"" style= ""width:200px""alt=""img"">
                            </div>
                        </div>","-86","","0","","","","images/map07_BuPu_scaleDef_orientDef_090.png","happy","1","07","07","BuPu","orientDef","scaleDef","090","",""
"","","","","","html-slider-response","144","383246","0.0-140.0","yj0x00k5xl","54","NaN","<div style=""width:500px;"">
                            <p style=""font-size:50px; font-weight:bold;""
                            >happy</p>
                            <div style=""width:240px; margin: auto;"">
                                <img src=""images/map05_PuRd_scaleRev_orientMir_180.png"" style= ""width:200px""alt=""img"">
                            </div>
                        </div>","59","","0","","","","images/map05_PuRd_scaleRev_orientMir_180.png","happy","1","05","05","PuRd","orientMir","scaleRev","180","",""
"","","","","","html-slider-response","145","385380","0.0-141.0","yj0x00k5xl","54","NaN","<div style=""width:500px;"">
                            <p style=""font-size:50px; font-weight:bold;""
                            >happy</p>
                            <div style=""width:240px; margin: auto;"">
                                <img src=""images/map26_inferno_scaleDef_orientMir_090.png"" style= ""width:200px""alt=""img"">
                            </div>
                        </div>","22","","0","","","","images/map26_inferno_scaleDef_orientMir_090.png","happy","1","26","26","inferno","orientMir","scaleDef","090","",""
"","","","","","html-slider-response","146","387984","0.0-142.0","yj0x00k5xl","54","NaN","<div style=""width:500px;"">
                            <p style=""font-size:50px; font-weight:bold;""
                            >happy</p>
                            <div style=""width:240px; margin: auto;"">
                                <img src=""images/map05_OrRd_scaleDef_orientDef_270.png"" style= ""width:200px""alt=""img"">
                            </div>
                        </div>","69","","0","","","","images/map05_OrRd_scaleDef_orientDef_270.png","happy","1","05","05","OrRd","orientDef","scaleDef","270","",""
"","","","","","html-slider-response","147","389704","0.0-143.0","yj0x00k5xl","54","NaN","<div style=""width:500px;"">
                            <p style=""font-size:50px; font-weight:bold;""
                            >happy</p>
                            <div style=""width:240px; margin: auto;"">
                                <img src=""images/map23_vanimo_scaleRev_orientMir_000.png"" style= ""width:200px""alt=""img"">
                            </div>
                        </div>","-70","","0","","","","images/map23_vanimo_scaleRev_orientMir_000.png","happy","1","23","23","vanimo","orientMir","scaleRev","000","",""
"","","","","","html-slider-response","148","392083","0.0-144.0","yj0x00k5xl","54","NaN","<div style=""width:500px;"">
                            <p style=""font-size:50px; font-weight:bold;""
                            >happy</p>
                            <div style=""width:240px; margin: auto;"">
                                <img src=""images/map02_Oranges_scaleDef_orientDef_270.png"" style= ""width:200px""alt=""img"">
                            </div>
                        </div>","46","","0","","","","images/map02_Oranges_scaleDef_orientDef_270.png","happy","1","02","02","Oranges","orientDef","scaleDef","270","",""
"","","","","","html-slider-response","149","393634","0.0-145.0","yj0x00k5xl","54","NaN","<div style=""width:500px;"">
                            <p style=""font-size:50px; font-weight:bold;""
                            >happy</p>
                            <div style=""width:240px; margin: auto;"">
                                <img src=""images/map07_PuBu_scaleRev_orientMir_180.png"" style= ""width:200px""alt=""img"">
                            </div>
                        </div>","-66","","0","","","","images/map07_PuBu_scaleRev_orientMir_180.png","happy","1","07","07","PuBu","orientMir","scaleRev","180","",""
"","","","","","html-slider-response","150","394978","0.0-146.0","yj0x00k5xl","54","NaN","<div style=""width:500px;"">
                            <p style=""font-size:50px; font-weight:bold;""
                            >happy</p>
                            <div style=""width:240px; margin: auto;"">
                                <img src=""images/map02_Greens_scaleDef_orientDef_090.png"" style= ""width:200px""alt=""img"">
                            </div>
                        </div>","-70","","0","","","","images/map02_Greens_scaleDef_orientDef_090.png","happy","1","02","02","Greens","orientDef","scaleDef","090","",""
"","","","","","html-slider-response","151","396333","0.0-147.0","yj0x00k5xl","54","NaN","<div style=""width:500px;"">
                            <p style=""font-size:50px; font-weight:bold;""
                            >happy</p>
                            <div style=""width:240px; margin: auto;"">
                                <img src=""images/map07_GnBu_scaleDef_orientDef_270.png"" style= ""width:200px""alt=""img"">
                            </div>
                        </div>","-70","","0","","","","images/map07_GnBu_scaleDef_orientDef_270.png","happy","1","07","07","GnBu","orientDef","scaleDef","270","",""
"","","","","","html-slider-response","152","397574","0.0-148.0","yj0x00k5xl","54","NaN","<div style=""width:500px;"">
                            <p style=""font-size:50px; font-weight:bold;""
                            >happy</p>
                            <div style=""width:240px; margin: auto;"">
                                <img src=""images/map10_YlGnBu_scaleRev_orientDef_000.png"" style= ""width:200px""alt=""img"">
                            </div>
                        </div>","-80","","0","","","","images/map10_YlGnBu_scaleRev_orientDef_000.png","happy","1","10","10","YlGnBu","orientDef","scaleRev","000","",""
"","","","","","html-slider-response","153","399333","0.0-149.0","yj0x00k5xl","54","NaN","<div style=""width:500px;"">
                            <p style=""font-size:50px; font-weight:bold;""
                            >happy</p>
                            <div style=""width:240px; margin: auto;"">
                                <img src=""images/map12_PRGn_scaleRev_orientDef_180.png"" style= ""width:200px""alt=""img"">
                            </div>
                        </div>","-93","","0","","","","images/map12_PRGn_scaleRev_orientDef_180.png","happy","1","12","12","PRGn","orientDef","scaleRev","180","",""
"","","","","","html-slider-response","154","400997","0.0-150.0","yj0x00k5xl","54","NaN","<div style=""width:500px;"">
                            <p style=""font-size:50px; font-weight:bold;""
                            >happy</p>
                            <div style=""width:240px; margin: auto;"">
                                <img src=""images/map15_coolwarm_scaleRev_orientDef_180.png"" style= ""width:200px""alt=""img"">
                            </div>
                        </div>","42","","0","","","","images/map15_coolwarm_scaleRev_orientDef_180.png","happy","1","15","15","coolwarm","orientDef","scaleRev","180","",""
"","","","","","html-slider-response","155","402644","0.0-151.0","yj0x00k5xl","54","NaN","<div style=""width:500px;"">
                            <p style=""font-size:50px; font-weight:bold;""
                            >happy</p>
                            <div style=""width:240px; margin: auto;"">
                                <img src=""images/map15_Spectral_scaleRev_orientDef_000.png"" style= ""width:200px""alt=""img"">
                            </div>
                        </div>","58","","0","","","","images/map15_Spectral_scaleRev_orientDef_000.png","happy","1","15","15","Spectral","orientDef","scaleRev","000","",""
"","","","","","html-slider-response","156","404214","0.0-152.0","yj0x00k5xl","54","NaN","<div style=""width:500px;"">
                            <p style=""font-size:50px; font-weight:bold;""
                            >happy</p>
                            <div style=""width:240px; margin: auto;"">
                                <img src=""images/map07_RdPu_scaleRev_orientDef_000.png"" style= ""width:200px""alt=""img"">
                            </div>
                        </div>","-70","","0","","","","images/map07_RdPu_scaleRev_orientDef_000.png","happy","1","07","07","RdPu","orientDef","scaleRev","000","",""
"","","","","","html-slider-response","157","405766","0.0-153.0","yj0x00k5xl","54","NaN","<div style=""width:500px;"">
                            <p style=""font-size:50px; font-weight:bold;""
                            >happy</p>
                            <div style=""width:240px; margin: auto;"">
                                <img src=""images/map26_inferno_scaleRev_orientMir_180.png"" style= ""width:200px""alt=""img"">
                            </div>
                        </div>","-88","","0","","","","images/map26_inferno_scaleRev_orientMir_180.png","happy","1","26","26","inferno","orientMir","scaleRev","180","",""
"","","","","","html-slider-response","158","407747","0.0-154.0","yj0x00k5xl","54","NaN","<div style=""width:500px;"">
                            <p style=""font-size:50px; font-weight:bold;""
                            >happy</p>
                            <div style=""width:240px; margin: auto;"">
                                <img src=""images/map02_Reds_scaleRev_orientMir_180.png"" style= ""width:200px""alt=""img"">
