"success","timeout","failed_images","failed_audio","failed_video","trial_type","trial_index","time_elapsed","internal_node_id","subject_id","condition_num","rt","stimulus","response","question_order","slider_start","practiceTrial","practiceTrialNum","correct","image_path","concept","repetition","map_id","map_num","scale_name","orientation_code","mapping_code","rotation_code","ishihara_plate","correct_response"
"true","false","[]","[]","[]","preload","0","690","0.0-0.0","zddhc2frys","8","","","","","","","","","","","","","","","","","","",""
"","","","","","html-button-response","1","56544","0.0-1.0","zddhc2frys","8","55852","Welcome to our experiment!<p>At the bottom of this screen, you will see a button that says ""Begin Experiment"".<br>Please only click that button when you are ready to complete the 30 minute experiment in one sitting.</p><p> Once you click that button, it will not be possible to restart the experiment.","0","","","","","","","","","","","","","","","",""
"true","","","","","fullscreen","2","59628","0.0-2.0","zddhc2frys","8","2081","","","","","","","","","","","","","","","","","",""
"","","","","","survey-multi-select","3","92461","0.0-3.0","zddhc2frys","8","32829","","{""Consent"":[""<strong>I consent</strong>""]}","[0]","","","","","","","","","","","","","","",""
"","","","","","html-button-response","4","94491","0.0-4.0","zddhc2frys","8","2029","Welcome! <p> This experiment involves two parts: demographic information, followed by the experimental task.<p> It will take about 30 minutes to complete both parts.","0","","","","","","","","","","","","","","","",""
"","","","","","survey-text","5","117976","0.0-5.0","zddhc2frys","8","23482","","{""Age"":""18"",""Gender"":""Female"",""Race/ethnicity"":""White"",""Languages"":""English""}","","","","","","","","","","","","","","","",""
"","","","","","html-slider-response","6","208376","0.0-6.0","zddhc2frys","8","90397","<div style='text-align:left; font-size:20px; line-height:25px; width: 1000px;'>
                                During this experiment you will be asked to rate how much you associate maps with                    different concepts.<br> Below, you can see some examples of the maps you will be asked to rate. Above the maps
                    is the list of concepts.<br>You will be asked                    to rate how much you associate each map with each concept on a scale from 'not at all' to 'very much' like the
                    one below. <br><br>
                    Now, please look at the list of concepts and maps. For each concept, think about the map you associate 'very
                    much' with the concept.<br>                     When you see that map during the experiment, please rate it near the 'very much' endpoint of the
                    scale.<br>Now, please think about which map you associate 'not at all'                     with each concept. When you see that map during the experiment, please rate it near the 'not at all' endpoint
                    of the scale.<br>
                    Please use the full range of the scale. That is, if a map is somewhat associated with the concept, you would
                    click partway between the middle point and right side of the scale.                    You will be asked to rate each map for a given concept before moving on to the next concept.<br>Press the
                    'Continue' button for instructions on how to use the slider.                    <br>
                </div>

                <div style=""width: 500px; margin: 0 auto;"">
                    <!-- Centered text paragraphs -->
                    <div style=""text-align: center; width: 500px;"">
                        <p style=""font-size:25px; line-height:15px;"">
                            angry&nbsp;&nbsp;&nbsp;&nbsp;
                            disgust&nbsp;&nbsp;&nbsp;&nbsp;
                            happy&nbsp;&nbsp;&nbsp;&nbsp;
                            fearful&nbsp;&nbsp;&nbsp;&nbsp;
                            sad
                        </p>
                        <!-- <p style=""font-size:20px; line-height:15px;"">disgust</p>
                        <p style=""font-size:20px;line-height:15px;"">happy</p>
                        <p style=""font-size:20px;line-height:15px;"">fearful</p>
                        <p style=""font-size:20px;line-height:15px;"">sad</p> -->
                    </div>
            

                    <!-- Grid section -->
                   <div style=""display: flex; justify-content: center; padding-top: 15px;"">
                    <div style=""display: grid; grid-template-columns: repeat(10, 55px); grid-gap: 5px; width: auto;"">
                        <img src=""images/map23_RdGy_scaleDef_orientMir_180.png"" alt=""map"" style=""width: 100%;""><img src=""images/map07_Blues_scaleDef_orientMir_180.png"" alt=""map"" style=""width: 100%;""><img src=""images/map13_BuPu_scaleRev_orientDef_090.png"" alt=""map"" style=""width: 100%;""><img src=""images/map05_viridis_scaleRev_orientDef_090.png"" alt=""map"" style=""width: 100%;""><img src=""images/map07_Greys_scaleRev_orientDef_270.png"" alt=""map"" style=""width: 100%;""><img src=""images/map26_RdYlGn_scaleDef_orientMir_000.png"" alt=""map"" style=""width: 100%;""><img src=""images/map02_vanimo_scaleDef_orientDef_180.png"" alt=""map"" style=""width: 100%;""><img src=""images/map15_BuGn_scaleDef_orientDef_180.png"" alt=""map"" style=""width: 100%;""><img src=""images/map05_plasma_scaleRev_orientDef_270.png"" alt=""map"" style=""width: 100%;""><img src=""images/map12_PuRd_scaleRev_orientMir_090.png"" alt=""map"" style=""width: 100%;""><img src=""images/map13_YlGnBu_scaleRev_orientMir_270.png"" alt=""map"" style=""width: 100%;""><img src=""images/map07_Purples_scaleDef_orientMir_000.png"" alt=""map"" style=""width: 100%;""><img src=""images/map10_YlOrBr_scaleRev_orientMir_270.png"" alt=""map"" style=""width: 100%;""><img src=""images/map15_YlGn_scaleRev_orientMir_090.png"" alt=""map"" style=""width: 100%;""><img src=""images/map05_inferno_scaleDef_orientMir_000.png"" alt=""map"" style=""width: 100%;""><img src=""images/map02_gist_earth_scaleDef_orientMir_000.png"" alt=""map"" style=""width: 100%;""><img src=""images/map12_OrRd_scaleRev_orientDef_270.png"" alt=""map"" style=""width: 100%;""><img src=""images/map23_PuOr_scaleDef_orientMir_000.png"" alt=""map"" style=""width: 100%;""><img src=""images/map15_PuBuGn_scaleDef_orientDef_000.png"" alt=""map"" style=""width: 100%;""><img src=""images/map02_turbo_scaleDef_orientMir_180.png"" alt=""map"" style=""width: 100%;""><img src=""images/map27_berlin_scaleRev_orientMir_270.png"" alt=""map"" style=""width: 100%;""><img src=""images/map12_RdPu_scaleDef_orientMir_180.png"" alt=""map"" style=""width: 100%;""><img src=""images/map05_magma_scaleRev_orientMir_270.png"" alt=""map"" style=""width: 100%;""><img src=""images/map27_coolwarm_scaleRev_orientDef_090.png"" alt=""map"" style=""width: 100%;""><img src=""images/map10_Oranges_scaleDef_orientDef_180.png"" alt=""map"" style=""width: 100%;""><img src=""images/map27_bwr_scaleRev_orientDef_270.png"" alt=""map"" style=""width: 100%;""><img src=""images/map26_RdYlBu_scaleDef_orientDef_180.png"" alt=""map"" style=""width: 100%;""><img src=""images/map27_seismic_scaleDef_orientMir_000.png"" alt=""map"" style=""width: 100%;""><img src=""images/map07_cividis_scaleDef_orientDef_000.png"" alt=""map"" style=""width: 100%;""><img src=""images/map26_RdBu_scaleDef_orientDef_000.png"" alt=""map"" style=""width: 100%;""><img src=""images/map12_YlOrRd_scaleRev_orientDef_090.png"" alt=""map"" style=""width: 100%;""><img src=""images/map26_Spectral_scaleRev_orientMir_270.png"" alt=""map"" style=""width: 100%;""><img src=""images/map15_PiYG_scaleRev_orientMir_270.png"" alt=""map"" style=""width: 100%;""><img src=""images/map02_managua_scaleRev_orientDef_090.png"" alt=""map"" style=""width: 100%;""><img src=""images/map10_Reds_scaleDef_orientMir_000.png"" alt=""map"" style=""width: 100%;""><img src=""images/map23_PRGn_scaleRev_orientDef_090.png"" alt=""map"" style=""width: 100%;""><img src=""images/map10_Greens_scaleDef_orientDef_000.png"" alt=""map"" style=""width: 100%;""><img src=""images/map13_GnBu_scaleDef_orientDef_180.png"" alt=""map"" style=""width: 100%;""><img src=""images/map23_BrBG_scaleDef_orientDef_180.png"" alt=""map"" style=""width: 100%;""><img src=""images/map13_PuBu_scaleRev_orientMir_090.png"" alt=""map"" style=""width: 100%;"">
                    </div>
                </div>

                    <!-- Clear floats -->
                    <div style=""clear: both;""></div>
                </div>
                            ","null","","0","true","","","","","","","","","","","","",""
"","","","","","html-button-response","7","231625","0.0-7.0","zddhc2frys","8","23248","<div style=""width:800px;""><p style=""text-align:left"">To move the slider, click and drag your cursor to the location of the scale where you would like to make your rating and then let go. When you let go of the slider, your response will be recorded and the next trial will begin. <br>
                    We are interested in your initial impressions of each map for the given concept, so please go with your first intuition. <br>
                    Before you begin the experiment, there will be four training trials for you to practice using the scale. <br>
                     When you are ready to start the training trials, please click ""Continue"".</p><br></div>","0","","","","","","","","","","","","","","","",""
"","","","","","html-slider-response","8","235870","0.0-8.0-0.0","zddhc2frys","8","NaN","<div style=""width:500px;"">
                                    <p style=""font-size:25px;"">Please move the slider all the way to the <br> right endpoint of the scale</p>

                                    </div>
                                </div>","200","","0","true","0","true","","","","","","","","","","",""
"","","","","","html-button-response","9","237425","0.0-8.0-1.0","zddhc2frys","8","1052","<p align='center'><b>Good job!</b> Click on 'Continue' to proceed.</p>","0","","","","","","","","","","","","","","","",""
"","","","","","html-slider-response","10","239920","0.0-9.0-0.0","zddhc2frys","8","NaN","<div style=""width:500px;"">
                                    <p style=""font-size:25px;"">Please move the slider all the way to the <br> left endpoint of the scale</p>

                                    </div>
                                </div>","-200","","0","true","1","true","","","","","","","","","","",""
"","","","","","html-button-response","11","241358","0.0-9.0-1.0","zddhc2frys","8","936","<p align='center'><b>Good job!</b> Click on 'Continue' to proceed.</p>","0","","","","","","","","","","","","","","","",""
"","","","","","html-slider-response","12","244653","0.0-10.0-0.0","zddhc2frys","8","NaN","<div style=""width:500px;"">
                                    <p style=""font-size:25px;"">Please move the slider halfway between the center and right endpoint of the scale</p>

                                    </div>
                                </div>","1","","0","true","2","false","","","","","","","","","","",""
"","","","","","html-button-response","13","247708","0.0-10.0-1.0","zddhc2frys","8","2552","<p align='center'><b>Not quite!</b> The slider was not placed near the instructed located. Click on 'Continue' to try again. </p>","0","","","","","","","","","","","","","","","",""
"","","","","","html-slider-response","14","255318","0.0-10.1-0.1","zddhc2frys","8","NaN","<div style=""width:500px;"">
                                    <p style=""font-size:25px;"">Please move the slider halfway between the center and right endpoint of the scale</p>

                                    </div>
                                </div>","100","","0","true","2","true","","","","","","","","","","",""
"","","","","","html-button-response","15","257125","0.0-10.1-1.1","zddhc2frys","8","1304","<p align='center'><b>Good job!</b> Click on 'Continue' to proceed.</p>","0","","","","","","","","","","","","","","","",""
"","","","","","html-slider-response","16","262302","0.0-11.0-0.0","zddhc2frys","8","NaN","<div style=""width:500px;"">
                                    <p style=""font-size:25px;"">Please move the slider halfway between the center and left endpoint of the scale</p>

                                    </div>
                                </div>","-118","","0","true","3","false","","","","","","","","","","",""
"","","","","","html-button-response","17","263725","0.0-11.0-1.0","zddhc2frys","8","921","<p align='center'><b>Not quite!</b> The slider was not placed near the instructed located. Click on 'Continue' to try again. </p>","0","","","","","","","","","","","","","","","",""
"","","","","","html-slider-response","18","273787","0.0-11.1-0.1","zddhc2frys","8","NaN","<div style=""width:500px;"">
                                    <p style=""font-size:25px;"">Please move the slider halfway between the center and left endpoint of the scale</p>

                                    </div>
                                </div>","-102","","0","true","3","true","","","","","","","","","","",""
"","","","","","html-button-response","19","275692","0.0-11.1-1.1","zddhc2frys","8","1403","<p align='center'><b>Good job!</b> Click on 'Continue' to proceed.</p>","0","","","","","","","","","","","","","","","",""
"","","","","","html-button-response","20","276956","0.0-12.0","zddhc2frys","8","1264","<p>Great job! You've completed the practice trials. Now you will begin the main task.</p>","0","","","","","","","","","","","","","","","",""
"","","","","","html-button-response","21","279591","0.0-13.0","zddhc2frys","8","2634","<p>In this block of trials, you will be asked to rate how much you associate each map with:</p > <p style = 'font-size:150%; font-weight: bold'>angry</p><br></br>","0","","","","","","","","","","","","","","","",""
"","","","","","html-slider-response","22","284719","0.0-14.0","zddhc2frys","8","NaN","<div style=""width:500px;"">
                            <p style=""font-size:50px; font-weight:bold;""
                            >angry</p>
                            <div style=""width:240px; margin: auto;"">
                                <img src=""images/map12_YlOrRd_scaleRev_orientDef_090.png"" style= ""width:200px""alt=""img"">
                            </div>
                        </div>","165","","0","","","","images/map12_YlOrRd_scaleRev_orientDef_090.png","angry","1","12","12","YlOrRd","orientDef","scaleRev","090","",""
"","","","","","html-slider-response","23","293121","0.0-15.0","zddhc2frys","8","NaN","<div style=""width:500px;"">
                            <p style=""font-size:50px; font-weight:bold;""
                            >angry</p>
                            <div style=""width:240px; margin: auto;"">
                                <img src=""images/map02_gist_earth_scaleDef_orientMir_000.png"" style= ""width:200px""alt=""img"">
                            </div>
                        </div>","-144","","0","","","","images/map02_gist_earth_scaleDef_orientMir_000.png","angry","1","02","02","gist","scaleDef","earth","orientMir","",""
"","","","","","html-slider-response","24","295538","0.0-16.0","zddhc2frys","8","NaN","<div style=""width:500px;"">
                            <p style=""font-size:50px; font-weight:bold;""
                            >angry</p>
                            <div style=""width:240px; margin: auto;"">
                                <img src=""images/map12_OrRd_scaleDef_orientDef_180.png"" style= ""width:200px""alt=""img"">
                            </div>
                        </div>","200","","0","","","","images/map12_OrRd_scaleDef_orientDef_180.png","angry","1","12","12","OrRd","orientDef","scaleDef","180","",""
"","","","","","html-slider-response","25","298536","0.0-17.0","zddhc2frys","8","NaN","<div style=""width:500px;"">
                            <p style=""font-size:50px; font-weight:bold;""
                            >angry</p>
                            <div style=""width:240px; margin: auto;"">
                                <img src=""images/map10_Greens_scaleDef_orientDef_000.png"" style= ""width:200px""alt=""img"">
                            </div>
                        </div>","-158","","0","","","","images/map10_Greens_scaleDef_orientDef_000.png","angry","1","10","10","Greens","orientDef","scaleDef","000","",""
"","","","","","html-slider-response","26","301319","0.0-18.0","zddhc2frys","8","NaN","<div style=""width:500px;"">
                            <p style=""font-size:50px; font-weight:bold;""
                            >angry</p>
                            <div style=""width:240px; margin: auto;"">
                                <img src=""images/map05_viridis_scaleDef_orientDef_000.png"" style= ""width:200px""alt=""img"">
                            </div>
                        </div>","-76","","0","","","","images/map05_viridis_scaleDef_orientDef_000.png","angry","1","05","05","viridis","orientDef","scaleDef","000","",""
"","","","","","html-slider-response","27","304120","0.0-19.0","zddhc2frys","8","NaN","<div style=""width:500px;"">
                            <p style=""font-size:50px; font-weight:bold;""
                            >angry</p>
                            <div style=""width:240px; margin: auto;"">
                                <img src=""images/map05_magma_scaleDef_orientMir_180.png"" style= ""width:200px""alt=""img"">
                            </div>
                        </div>","200","","0","","","","images/map05_magma_scaleDef_orientMir_180.png","angry","1","05","05","magma","orientMir","scaleDef","180","",""
"","","","","","html-slider-response","28","307318","0.0-20.0","zddhc2frys","8","NaN","<div style=""width:500px;"">
                            <p style=""font-size:50px; font-weight:bold;""
                            >angry</p>
                            <div style=""width:240px; margin: auto;"">
                                <img src=""images/map23_BrBG_scaleRev_orientDef_270.png"" style= ""width:200px""alt=""img"">
                            </div>
                        </div>","-30","","0","","","","images/map23_BrBG_scaleRev_orientDef_270.png","angry","1","23","23","BrBG","orientDef","scaleRev","270","",""
"","","","","","html-slider-response","29","309702","0.0-21.0","zddhc2frys","8","NaN","<div style=""width:500px;"">
                            <p style=""font-size:50px; font-weight:bold;""
                            >angry</p>
                            <div style=""width:240px; margin: auto;"">
                                <img src=""images/map10_Reds_scaleDef_orientMir_000.png"" style= ""width:200px""alt=""img"">
                            </div>
                        </div>","200","","0","","","","images/map10_Reds_scaleDef_orientMir_000.png","angry","1","10","10","Reds","orientMir","scaleDef","000","",""
"","","","","","html-slider-response","30","312620","0.0-22.0","zddhc2frys","8","NaN","<div style=""width:500px;"">
                            <p style=""font-size:50px; font-weight:bold;""
                            >angry</p>
                            <div style=""width:240px; margin: auto;"">
                                <img src=""images/map12_YlOrRd_scaleDef_orientDef_000.png"" style= ""width:200px""alt=""img"">
                            </div>
                        </div>","186","","0","","","","images/map12_YlOrRd_scaleDef_orientDef_000.png","angry","1","12","12","YlOrRd","orientDef","scaleDef","000","",""
"","","","","","html-slider-response","31","315919","0.0-23.0","zddhc2frys","8","NaN","<div style=""width:500px;"">
                            <p style=""font-size:50px; font-weight:bold;""
                            >angry</p>
                            <div style=""width:240px; margin: auto;"">
                                <img src=""images/map23_BrBG_scaleDef_orientDef_180.png"" style= ""width:200px""alt=""img"">
                            </div>
                        </div>","-140","","0","","","","images/map23_BrBG_scaleDef_orientDef_180.png","angry","1","23","23","BrBG","orientDef","scaleDef","180","",""
"","","","","","html-slider-response","32","318135","0.0-24.0","zddhc2frys","8","NaN","<div style=""width:500px;"">
                            <p style=""font-size:50px; font-weight:bold;""
                            >angry</p>
                            <div style=""width:240px; margin: auto;"">
                                <img src=""images/map23_PRGn_scaleRev_orientDef_090.png"" style= ""width:200px""alt=""img"">
                            </div>
                        </div>","-200","","0","","","","images/map23_PRGn_scaleRev_orientDef_090.png","angry","1","23","23","PRGn","orientDef","scaleRev","090","",""
"","","","","","html-slider-response","33","322552","0.0-25.0","zddhc2frys","8","NaN","<div style=""width:500px;"">
                            <p style=""font-size:50px; font-weight:bold;""
                            >angry</p>
                            <div style=""width:240px; margin: auto;"">
                                <img src=""images/map27_berlin_scaleDef_orientMir_180.png"" style= ""width:200px""alt=""img"">
                            </div>
                        </div>","-27","","0","","","","images/map27_berlin_scaleDef_orientMir_180.png","angry","1","27","27","berlin","orientMir","scaleDef","180","",""
"","","","","","html-slider-response","34","325154","0.0-26.0","zddhc2frys","8","NaN","<div style=""width:500px;"">
                            <p style=""font-size:50px; font-weight:bold;""
                            >angry</p>
                            <div style=""width:240px; margin: auto;"">
                                <img src=""images/map27_coolwarm_scaleRev_orientDef_090.png"" style= ""width:200px""alt=""img"">
                            </div>
                        </div>","-72","","0","","","","images/map27_coolwarm_scaleRev_orientDef_090.png","angry","1","27","27","coolwarm","orientDef","scaleRev","090","",""
"","","","","","html-slider-response","35","329269","0.0-27.0","zddhc2frys","8","NaN","<div style=""width:500px;"">
                            <p style=""font-size:50px; font-weight:bold;""
                            >angry</p>
                            <div style=""width:240px; margin: auto;"">
                                <img src=""images/map26_RdYlGn_scaleRev_orientMir_090.png"" style= ""width:200px""alt=""img"">
                            </div>
                        </div>","71","","0","","","","images/map26_RdYlGn_scaleRev_orientMir_090.png","angry","1","26","26","RdYlGn","orientMir","scaleRev","090","",""
"","","","","","html-slider-response","36","332169","0.0-28.0","zddhc2frys","8","NaN","<div style=""width:500px;"">
                            <p style=""font-size:50px; font-weight:bold;""
                            >angry</p>
                            <div style=""width:240px; margin: auto;"">
                                <img src=""images/map26_RdBu_scaleDef_orientDef_000.png"" style= ""width:200px""alt=""img"">
                            </div>
                        </div>","16","","0","","","","images/map26_RdBu_scaleDef_orientDef_000.png","angry","1","26","26","RdBu","orientDef","scaleDef","000","",""
"","","","","","html-slider-response","37","336085","0.0-29.0","zddhc2frys","8","NaN","<div style=""width:500px;"">
                            <p style=""font-size:50px; font-weight:bold;""
                            >angry</p>
                            <div style=""width:240px; margin: auto;"">
                                <img src=""images/map26_RdBu_scaleRev_orientDef_090.png"" style= ""width:200px""alt=""img"">
                            </div>
                        </div>","-14","","0","","","","images/map26_RdBu_scaleRev_orientDef_090.png","angry","1","26","26","RdBu","orientDef","scaleRev","090","",""
"","","","","","html-slider-response","38","339301","0.0-30.0","zddhc2frys","8","NaN","<div style=""width:500px;"">
                            <p style=""font-size:50px; font-weight:bold;""
                            >angry</p>
                            <div style=""width:240px; margin: auto;"">
                                <img src=""images/map02_turbo_scaleDef_orientMir_180.png"" style= ""width:200px""alt=""img"">
                            </div>
                        </div>","-163","","0","","","","images/map02_turbo_scaleDef_orientMir_180.png","angry","1","02","02","turbo","orientMir","scaleDef","180","",""
"","","","","","html-slider-response","39","341452","0.0-31.0","zddhc2frys","8","NaN","<div style=""width:500px;"">
                            <p style=""font-size:50px; font-weight:bold;""
                            >angry</p>
                            <div style=""width:240px; margin: auto;"">
                                <img src=""images/map13_BuPu_scaleDef_orientDef_000.png"" style= ""width:200px""alt=""img"">
                            </div>
                        </div>","-200","","0","","","","images/map13_BuPu_scaleDef_orientDef_000.png","angry","1","13","13","BuPu","orientDef","scaleDef","000","",""
"","","","","","html-slider-response","40","343368","0.0-32.0","zddhc2frys","8","NaN","<div style=""width:500px;"">
                            <p style=""font-size:50px; font-weight:bold;""
                            >angry</p>
                            <div style=""width:240px; margin: auto;"">
                                <img src=""images/map07_Purples_scaleRev_orientMir_090.png"" style= ""width:200px""alt=""img"">
                            </div>
                        </div>","-200","","0","","","","images/map07_Purples_scaleRev_orientMir_090.png","angry","1","07","07","Purples","orientMir","scaleRev","090","",""
"","","","","","html-slider-response","41","347102","0.0-33.0","zddhc2frys","8","NaN","<div style=""width:500px;"">
                            <p style=""font-size:50px; font-weight:bold;""
                            >angry</p>
                            <div style=""width:240px; margin: auto;"">
                                <img src=""images/map02_vanimo_scaleDef_orientDef_180.png"" style= ""width:200px""alt=""img"">
                            </div>
                        </div>","-175","","0","","","","images/map02_vanimo_scaleDef_orientDef_180.png","angry","1","02","02","vanimo","orientDef","scaleDef","180","",""
"","","","","","html-slider-response","42","349236","0.0-34.0","zddhc2frys","8","NaN","<div style=""width:500px;"">
                            <p style=""font-size:50px; font-weight:bold;""
                            >angry</p>
                            <div style=""width:240px; margin: auto;"">
                                <img src=""images/map05_inferno_scaleDef_orientMir_000.png"" style= ""width:200px""alt=""img"">
                            </div>
                        </div>","200","","0","","","","images/map05_inferno_scaleDef_orientMir_000.png","angry","1","05","05","inferno","orientMir","scaleDef","000","",""
"","","","","","html-slider-response","43","352118","0.0-35.0","zddhc2frys","8","NaN","<div style=""width:500px;"">
                            <p style=""font-size:50px; font-weight:bold;""
                            >angry</p>
                            <div style=""width:240px; margin: auto;"">
                                <img src=""images/map07_Greys_scaleDef_orientDef_180.png"" style= ""width:200px""alt=""img"">
                            </div>
                        </div>","-160","","0","","","","images/map07_Greys_scaleDef_orientDef_180.png","angry","1","07","07","Greys","orientDef","scaleDef","180","",""
"","","","","","html-slider-response","44","354819","0.0-36.0","zddhc2frys","8","NaN","<div style=""width:500px;"">
                            <p style=""font-size:50px; font-weight:bold;""
                            >angry</p>
                            <div style=""width:240px; margin: auto;"">
                                <img src=""images/map07_cividis_scaleDef_orientDef_000.png"" style= ""width:200px""alt=""img"">
                            </div>
                        </div>","-200","","0","","","","images/map07_cividis_scaleDef_orientDef_000.png","angry","1","07","07","cividis","orientDef","scaleDef","000","",""
"","","","","","html-slider-response","45","357301","0.0-37.0","zddhc2frys","8","NaN","<div style=""width:500px;"">
                            <p style=""font-size:50px; font-weight:bold;""
                            >angry</p>
                            <div style=""width:240px; margin: auto;"">
                                <img src=""images/map05_magma_scaleRev_orientMir_270.png"" style= ""width:200px""alt=""img"">
                            </div>
                        </div>","200","","0","","","","images/map05_magma_scaleRev_orientMir_270.png","angry","1","05","05","magma","orientMir","scaleRev","270","",""
"","","","","","html-slider-response","46","359752","0.0-38.0","zddhc2frys","8","NaN","<div style=""width:500px;"">
                            <p style=""font-size:50px; font-weight:bold;""
                            >angry</p>
                            <div style=""width:240px; margin: auto;"">
                                <img src=""images/map26_RdYlBu_scaleDef_orientDef_180.png"" style= ""width:200px""alt=""img"">
                            </div>
                        </div>","22","","0","","","","images/map26_RdYlBu_scaleDef_orientDef_180.png","angry","1","26","26","RdYlBu","orientDef","scaleDef","180","",""
"","","","","","html-slider-response","47","364317","0.0-39.0","zddhc2frys","8","NaN","<div style=""width:500px;"">
                            <p style=""font-size:50px; font-weight:bold;""
                            >angry</p>
                            <div style=""width:240px; margin: auto;"">
                                <img src=""images/map05_plasma_scaleDef_orientDef_180.png"" style= ""width:200px""alt=""img"">
                            </div>
                        </div>","-18","","0","","","","images/map05_plasma_scaleDef_orientDef_180.png","angry","1","05","05","plasma","orientDef","scaleDef","180","",""
"","","","","","html-slider-response","48","367269","0.0-40.0","zddhc2frys","8","NaN","<div style=""width:500px;"">
                            <p style=""font-size:50px; font-weight:bold;""
                            >angry</p>
                            <div style=""width:240px; margin: auto;"">
                                <img src=""images/map15_PiYG_scaleRev_orientMir_270.png"" style= ""width:200px""alt=""img"">
                            </div>
                        </div>","38","","0","","","","images/map15_PiYG_scaleRev_orientMir_270.png","angry","1","15","15","PiYG","orientMir","scaleRev","270","",""
"","","","","","html-slider-response","49","369985","0.0-41.0","zddhc2frys","8","NaN","<div style=""width:500px;"">
                            <p style=""font-size:50px; font-weight:bold;""
                            >angry</p>
                            <div style=""width:240px; margin: auto;"">
                                <img src=""images/map10_Oranges_scaleDef_orientDef_180.png"" style= ""width:200px""alt=""img"">
                            </div>
                        </div>","68","","0","","","","images/map10_Oranges_scaleDef_orientDef_180.png","angry","1","10","10","Oranges","orientDef","scaleDef","180","",""
"","","","","","html-slider-response","50","372854","0.0-42.0","zddhc2frys","8","NaN","<div style=""width:500px;"">
                            <p style=""font-size:50px; font-weight:bold;""
                            >angry</p>
                            <div style=""width:240px; margin: auto;"">
                                <img src=""images/map10_Reds_scaleRev_orientMir_090.png"" style= ""width:200px""alt=""img"">
                            </div>
                        </div>","200","","0","","","","images/map10_Reds_scaleRev_orientMir_090.png","angry","1","10","10","Reds","orientMir","scaleRev","090","",""
"","","","","","html-slider-response","51","378452","0.0-43.0","zddhc2frys","8","NaN","<div style=""width:500px;"">
                            <p style=""font-size:50px; font-weight:bold;""
                            >angry</p>
                            <div style=""width:240px; margin: auto;"">
                                <img src=""images/map12_RdPu_scaleRev_orientMir_270.png"" style= ""width:200px""alt=""img"">
                            </div>
                        </div>","-74","","0","","","","images/map12_RdPu_scaleRev_orientMir_270.png","angry","1","12","12","RdPu","orientMir","scaleRev","270","",""
"","","","","","html-slider-response","52","380301","0.0-44.0","zddhc2frys","8","NaN","<div style=""width:500px;"">
                            <p style=""font-size:50px; font-weight:bold;""
                            >angry</p>
                            <div style=""width:240px; margin: auto;"">
                                <img src=""images/map12_OrRd_scaleRev_orientDef_270.png"" style= ""width:200px""alt=""img"">
                            </div>
                        </div>","200","","0","","","","images/map12_OrRd_scaleRev_orientDef_270.png","angry","1","12","12","OrRd","orientDef","scaleRev","270","",""
"","","","","","html-slider-response","53","382569","0.0-45.0","zddhc2frys","8","NaN","<div style=""width:500px;"">
                            <p style=""font-size:50px; font-weight:bold;""
                            >angry</p>
                            <div style=""width:240px; margin: auto;"">
                                <img src=""images/map07_Greys_scaleRev_orientDef_270.png"" style= ""width:200px""alt=""img"">
                            </div>
                        </div>","-200","","0","","","","images/map07_Greys_scaleRev_orientDef_270.png","angry","1","07","07","Greys","orientDef","scaleRev","270","",""
"","","","","","html-slider-response","54","385069","0.0-46.0","zddhc2frys","8","NaN","<div style=""width:500px;"">
                            <p style=""font-size:50px; font-weight:bold;""
                            >angry</p>
                            <div style=""width:240px; margin: auto;"">
                                <img src=""images/map26_RdYlBu_scaleRev_orientDef_270.png"" style= ""width:200px""alt=""img"">
                            </div>
                        </div>","62","","0","","","","images/map26_RdYlBu_scaleRev_orientDef_270.png","angry","1","26","26","RdYlBu","orientDef","scaleRev","270","",""
"","","","","","html-slider-response","55","389434","0.0-47.0","zddhc2frys","8","NaN","<div style=""width:500px;"">
                            <p style=""font-size:50px; font-weight:bold;""
                            >angry</p>
                            <div style=""width:240px; margin: auto;"">
                                <img src=""images/map26_Spectral_scaleDef_orientMir_180.png"" style= ""width:200px""alt=""img"">
                            </div>
                        </div>","53","","0","","","","images/map26_Spectral_scaleDef_orientMir_180.png","angry","1","26","26","Spectral","orientMir","scaleDef","180","",""
"","","","","","html-slider-response","56","393034","0.0-48.0","zddhc2frys","8","NaN","<div style=""width:500px;"">
                            <p style=""font-size:50px; font-weight:bold;""
                            >angry</p>
                            <div style=""width:240px; margin: auto;"">
                                <img src=""images/map15_PiYG_scaleDef_orientMir_180.png"" style= ""width:200px""alt=""img"">
                            </div>
                        </div>","30","","0","","","","images/map15_PiYG_scaleDef_orientMir_180.png","angry","1","15","15","PiYG","orientMir","scaleDef","180","",""
"","","","","","html-slider-response","57","396485","0.0-49.0","zddhc2frys","8","NaN","<div style=""width:500px;"">
                            <p style=""font-size:50px; font-weight:bold;""
                            >angry</p>
                            <div style=""width:240px; margin: auto;"">
                                <img src=""images/map27_coolwarm_scaleDef_orientDef_000.png"" style= ""width:200px""alt=""img"">
                            </div>
                        </div>","67","","0","","","","images/map27_coolwarm_scaleDef_orientDef_000.png","angry","1","27","27","coolwarm","orientDef","scaleDef","000","",""
"","","","","","html-slider-response","58","399384","0.0-50.0","zddhc2frys","8","NaN","<div style=""width:500px;"">
                            <p style=""font-size:50px; font-weight:bold;""
                            >angry</p>
                            <div style=""width:240px; margin: auto;"">
                                <img src=""images/map26_RdYlGn_scaleDef_orientMir_000.png"" style= ""width:200px""alt=""img"">
                            </div>
                        </div>","113","","0","","","","images/map26_RdYlGn_scaleDef_orientMir_000.png","angry","1","26","26","RdYlGn","orientMir","scaleDef","000","",""
"","","","","","html-slider-response","59","401452","0.0-51.0","zddhc2frys","8","NaN","<div style=""width:500px;"">
                            <p style=""font-size:50px; font-weight:bold;""
                            >angry</p>
                            <div style=""width:240px; margin: auto;"">
                                <img src=""images/map07_Blues_scaleRev_orientMir_270.png"" style= ""width:200px""alt=""img"">
                            </div>
                        </div>","-200","","0","","","","images/map07_Blues_scaleRev_orientMir_270.png","angry","1","07","07","Blues","orientMir","scaleRev","270","",""
"","","","","","html-slider-response","60","404868","0.0-52.0","zddhc2frys","8","NaN","<div style=""width:500px;"">
                            <p style=""font-size:50px; font-weight:bold;""
                            >angry</p>
                            <div style=""width:240px; margin: auto;"">
                                <img src=""images/map10_YlOrBr_scaleRev_orientMir_270.png"" style= ""width:200px""alt=""img"">
                            </div>
                        </div>","-106","","0","","","","images/map10_YlOrBr_scaleRev_orientMir_270.png","angry","1","10","10","YlOrBr","orientMir","scaleRev","270","",""
"","","","","","html-slider-response","61","413235","0.0-53.0","zddhc2frys","8","NaN","<div style=""width:500px;"">
                            <p style=""font-size:50px; font-weight:bold;""
                            >angry</p>
                            <div style=""width:240px; margin: auto;"">
                                <img src=""images/map13_PuBu_scaleDef_orientMir_000.png"" style= ""width:200px""alt=""img"">
                            </div>
                        </div>","-200","","0","","","","images/map13_PuBu_scaleDef_orientMir_000.png","angry","1","13","13","PuBu","orientMir","scaleDef","000","",""
"","","","","","html-button-response","62","415341","0.0-54.0","zddhc2frys","8","1603","<p>You are doing great!<br></br> You are halway done with the current block. When you are ready to continue, click the 'Continue' button.</p>","0","","","","","","","","","","","","","","","",""
"","","","","","html-slider-response","63","420335","0.0-55.0","zddhc2frys","8","NaN","<div style=""width:500px;"">
                            <p style=""font-size:50px; font-weight:bold;""
                            >angry</p>
                            <div style=""width:240px; margin: auto;"">
                                <img src=""images/map10_YlOrBr_scaleDef_orientMir_180.png"" style= ""width:200px""alt=""img"">
                            </div>
                        </div>","27","","0","","","","images/map10_YlOrBr_scaleDef_orientMir_180.png","angry","1","10","10","YlOrBr","orientMir","scaleDef","180","",""
"","","","","","html-slider-response","64","422651","0.0-56.0","zddhc2frys","8","NaN","<div style=""width:500px;"">
                            <p style=""font-size:50px; font-weight:bold;""
                            >angry</p>
                            <div style=""width:240px; margin: auto;"">
                                <img src=""images/map02_managua_scaleDef_orientDef_000.png"" style= ""width:200px""alt=""img"">
                            </div>
                        </div>","74","","0","","","","images/map02_managua_scaleDef_orientDef_000.png","angry","1","02","02","managua","orientDef","scaleDef","000","",""
"","","","","","html-slider-response","65","424953","0.0-57.0","zddhc2frys","8","NaN","<div style=""width:500px;"">
                            <p style=""font-size:50px; font-weight:bold;""
                            >angry</p>
                            <div style=""width:240px; margin: auto;"">
                                <img src=""images/map13_YlGnBu_scaleRev_orientMir_270.png"" style= ""width:200px""alt=""img"">
                            </div>
                        </div>","-200","","0","","","","images/map13_YlGnBu_scaleRev_orientMir_270.png","angry","1","13","13","YlGnBu","orientMir","scaleRev","270","",""
"","","","","","html-slider-response","66","426785","0.0-58.0","zddhc2frys","8","NaN","<div style=""width:500px;"">
                            <p style=""font-size:50px; font-weight:bold;""
                            >angry</p>
                            <div style=""width:240px; margin: auto;"">
                                <img src=""images/map07_Blues_scaleDef_orientMir_180.png"" style= ""width:200px""alt=""img"">
                            </div>
                        </div>","-200","","0","","","","images/map07_Blues_scaleDef_orientMir_180.png","angry","1","07","07","Blues","orientMir","scaleDef","180","",""
"","","","","","html-slider-response","67","428918","0.0-59.0","zddhc2frys","8","NaN","<div style=""width:500px;"">
                            <p style=""font-size:50px; font-weight:bold;""
                            >angry</p>
                            <div style=""width:240px; margin: auto;"">
                                <img src=""images/map15_BuGn_scaleRev_orientDef_270.png"" style= ""width:200px""alt=""img"">
                            </div>
                        </div>","-200","","0","","","","images/map15_BuGn_scaleRev_orientDef_270.png","angry","1","15","15","BuGn","orientDef","scaleRev","270","",""
"","","","","","html-slider-response","68","432351","0.0-60.0","zddhc2frys","8","NaN","<div style=""width:500px;"">
                            <p style=""font-size:50px; font-weight:bold;""
                            >angry</p>
                            <div style=""width:240px; margin: auto;"">
                                <img src=""images/map12_PuRd_scaleDef_orientMir_000.png"" style= ""width:200px""alt=""img"">
                            </div>
                        </div>","-146","","0","","","","images/map12_PuRd_scaleDef_orientMir_000.png","angry","1","12","12","PuRd","orientMir","scaleDef","000","",""
"","","","","","html-slider-response","69","435385","0.0-61.0","zddhc2frys","8","NaN","<div style=""width:500px;"">
                            <p style=""font-size:50px; font-weight:bold;""
                            >angry</p>
                            <div style=""width:240px; margin: auto;"">
                                <img src=""images/map27_berlin_scaleRev_orientMir_270.png"" style= ""width:200px""alt=""img"">
                            </div>
                        </div>","133","","0","","","","images/map27_berlin_scaleRev_orientMir_270.png","angry","1","27","27","berlin","orientMir","scaleRev","270","",""
"","","","","","html-slider-response","70","437968","0.0-62.0","zddhc2frys","8","NaN","<div style=""width:500px;"">
                            <p style=""font-size:50px; font-weight:bold;""
                            >angry</p>
                            <div style=""width:240px; margin: auto;"">
                                <img src=""images/map02_vanimo_scaleRev_orientDef_270.png"" style= ""width:200px""alt=""img"">
                            </div>
                        </div>","46","","0","","","","images/map02_vanimo_scaleRev_orientDef_270.png","angry","1","02","02","vanimo","orientDef","scaleRev","270","",""
"","","","","","html-slider-response","71","440201","0.0-63.0","zddhc2frys","8","NaN","<div style=""width:500px;"">
                            <p style=""font-size:50px; font-weight:bold;""
                            >angry</p>
                            <div style=""width:240px; margin: auto;"">
                                <img src=""images/map27_bwr_scaleRev_orientDef_270.png"" style= ""width:200px""alt=""img"">
                            </div>
                        </div>","106","","0","","","","images/map27_bwr_scaleRev_orientDef_270.png","angry","1","27","27","bwr","orientDef","scaleRev","270","",""
"","","","","","html-slider-response","72","443885","0.0-64.0","zddhc2frys","8","NaN","<div style=""width:500px;"">
                            <p style=""font-size:50px; font-weight:bold;""
                            >angry</p>
                            <div style=""width:240px; margin: auto;"">
                                <img src=""images/map23_RdGy_scaleRev_orientMir_270.png"" style= ""width:200px""alt=""img"">
                            </div>
                        </div>","200","","0","","","","images/map23_RdGy_scaleRev_orientMir_270.png","angry","1","23","23","RdGy","orientMir","scaleRev","270","",""
"","","","","","html-slider-response","73","449567","0.0-65.0","zddhc2frys","8","NaN","<div style=""width:500px;"">
                            <p style=""font-size:50px; font-weight:bold;""
                            >angry</p>
                            <div style=""width:240px; margin: auto;"">
                                <img src=""images/map12_RdPu_scaleDef_orientMir_180.png"" style= ""width:200px""alt=""img"">
                            </div>
                        </div>","54","","0","","","","images/map12_RdPu_scaleDef_orientMir_180.png","angry","1","12","12","RdPu","orientMir","scaleDef","180","",""
"","","","","","html-slider-response","74","451452","0.0-66.0","zddhc2frys","8","NaN","<div style=""width:500px;"">
                            <p style=""font-size:50px; font-weight:bold;""
                            >angry</p>
                            <div style=""width:240px; margin: auto;"">
                                <img src=""images/map10_Greens_scaleRev_orientDef_090.png"" style= ""width:200px""alt=""img"">
                            </div>
                        </div>","-200","","0","","","","images/map10_Greens_scaleRev_orientDef_090.png","angry","1","10","10","Greens","orientDef","scaleRev","090","",""
"","","","","","html-slider-response","75","453767","0.0-67.0","zddhc2frys","8","NaN","<div style=""width:500px;"">
                            <p style=""font-size:50px; font-weight:bold;""
                            >angry</p>
                            <div style=""width:240px; margin: auto;"">
                                <img src=""images/map13_PuBu_scaleRev_orientMir_090.png"" style= ""width:200px""alt=""img"">
                            </div>
                        </div>","-200","","0","","","","images/map13_PuBu_scaleRev_orientMir_090.png","angry","1","13","13","PuBu","orientMir","scaleRev","090","",""
"","","","","","html-slider-response","76","455767","0.0-68.0","zddhc2frys","8","NaN","<div style=""width:500px;"">
                            <p style=""font-size:50px; font-weight:bold;""
                            >angry</p>
                            <div style=""width:240px; margin: auto;"">
                                <img src=""images/map13_GnBu_scaleRev_orientDef_270.png"" style= ""width:200px""alt=""img"">
                            </div>
                        </div>","-200","","0","","","","images/map13_GnBu_scaleRev_orientDef_270.png","angry","1","13","13","GnBu","orientDef","scaleRev","270","",""
"","","","","","html-slider-response","77","458802","0.0-69.0","zddhc2frys","8","NaN","<div style=""width:500px;"">
                            <p style=""font-size:50px; font-weight:bold;""
                            >angry</p>
                            <div style=""width:240px; margin: auto;"">
                                <img src=""images/map05_inferno_scaleRev_orientMir_090.png"" style= ""width:200px""alt=""img"">
                            </div>
                        </div>","173","","0","","","","images/map05_inferno_scaleRev_orientMir_090.png","angry","1","05","05","inferno","orientMir","scaleRev","090","",""
"","","","","","html-slider-response","78","461835","0.0-70.0","zddhc2frys","8","NaN","<div style=""width:500px;"">
                            <p style=""font-size:50px; font-weight:bold;""
                            >angry</p>
                            <div style=""width:240px; margin: auto;"">
                                <img src=""images/map26_Spectral_scaleRev_orientMir_270.png"" style= ""width:200px""alt=""img"">
                            </div>
                        </div>","137","","0","","","","images/map26_Spectral_scaleRev_orientMir_270.png","angry","1","26","26","Spectral","orientMir","scaleRev","270","",""
"","","","","","html-slider-response","79","463901","0.0-71.0","zddhc2frys","8","NaN","<div style=""width:500px;"">
                            <p style=""font-size:50px; font-weight:bold;""
                            >angry</p>
                            <div style=""width:240px; margin: auto;"">
                                <img src=""images/map27_seismic_scaleDef_orientMir_000.png"" style= ""width:200px""alt=""img"">
                            </div>
                        </div>","200","","0","","","","images/map27_seismic_scaleDef_orientMir_000.png","angry","1","27","27","seismic","orientMir","scaleDef","000","",""
"","","","","","html-slider-response","80","466385","0.0-72.0","zddhc2frys","8","NaN","<div style=""width:500px;"">
                            <p style=""font-size:50px; font-weight:bold;""
                            >angry</p>
                            <div style=""width:240px; margin: auto;"">
                                <img src=""images/map27_seismic_scaleRev_orientMir_090.png"" style= ""width:200px""alt=""img"">
                            </div>
                        </div>","200","","0","","","","images/map27_seismic_scaleRev_orientMir_090.png","angry","1","27","27","seismic","orientMir","scaleRev","090","",""
"","","","","","html-slider-response","81","469884","0.0-73.0","zddhc2frys","8","NaN","<div style=""width:500px;"">
                            <p style=""font-size:50px; font-weight:bold;""
                            >angry</p>
                            <div style=""width:240px; margin: auto;"">
                                <img src=""images/map02_turbo_scaleRev_orientMir_270.png"" style= ""width:200px""alt=""img"">
                            </div>
                        </div>","-77","","0","","","","images/map02_turbo_scaleRev_orientMir_270.png","angry","1","02","02","turbo","orientMir","scaleRev","270","",""
"","","","","","html-slider-response","82","471968","0.0-74.0","zddhc2frys","8","NaN","<div style=""width:500px;"">
                            <p style=""font-size:50px; font-weight:bold;""
                            >angry</p>
                            <div style=""width:240px; margin: auto;"">
                                <img src=""images/map13_BuPu_scaleRev_orientDef_090.png"" style= ""width:200px""alt=""img"">
                            </div>
                        </div>","-200","","0","","","","images/map13_BuPu_scaleRev_orientDef_090.png","angry","1","13","13","BuPu","orientDef","scaleRev","090","",""
"","","","","","html-slider-response","83","473901","0.0-75.0","zddhc2frys","8","NaN","<div style=""width:500px;"">
                            <p style=""font-size:50px; font-weight:bold;""
                            >angry</p>
                            <div style=""width:240px; margin: auto;"">
                                <img src=""images/map15_BuGn_scaleDef_orientDef_180.png"" style= ""width:200px""alt=""img"">
                            </div>
                        </div>","-200","","0","","","","images/map15_BuGn_scaleDef_orientDef_180.png","angry","1","15","15","BuGn","orientDef","scaleDef","180","",""
"","","","","","html-slider-response","84","477118","0.0-76.0","zddhc2frys","8","NaN","<div style=""width:500px;"">
                            <p style=""font-size:50px; font-weight:bold;""
                            >angry</p>
                            <div style=""width:240px; margin: auto;"">
                                <img src=""images/map15_YlGn_scaleDef_orientMir_000.png"" style= ""width:200px""alt=""img"">
                            </div>
                        </div>","-155","","0","","","","images/map15_YlGn_scaleDef_orientMir_000.png","angry","1","15","15","YlGn","orientMir","scaleDef","000","",""
"","","","","","html-slider-response","85","479817","0.0-77.0","zddhc2frys","8","NaN","<div style=""width:500px;"">
                            <p style=""font-size:50px; font-weight:bold;""
                            >angry</p>
                            <div style=""width:240px; margin: auto;"">
                                <img src=""images/map07_cividis_scaleRev_orientDef_090.png"" style= ""width:200px""alt=""img"">
                            </div>
                        </div>","-200","","0","","","","images/map07_cividis_scaleRev_orientDef_090.png","angry","1","07","07","cividis","orientDef","scaleRev","090","",""
"","","","","","html-slider-response","86","481768","0.0-78.0","zddhc2frys","8","NaN","<div style=""width:500px;"">
                            <p style=""font-size:50px; font-weight:bold;""
                            >angry</p>
                            <div style=""width:240px; margin: auto;"">
                                <img src=""images/map15_PuBuGn_scaleRev_orientDef_090.png"" style= ""width:200px""alt=""img"">
                            </div>
                        </div>","-200","","0","","","","images/map15_PuBuGn_scaleRev_orientDef_090.png","angry","1","15","15","PuBuGn","orientDef","scaleRev","090","",""
"","","","","","html-slider-response","87","485486","0.0-79.0","zddhc2frys","8","NaN","<div style=""width:500px;"">
                            <p style=""font-size:50px; font-weight:bold;""
                            >angry</p>
                            <div style=""width:240px; margin: auto;"">
                                <img src=""images/map02_managua_scaleRev_orientDef_090.png"" style= ""width:200px""alt=""img"">
                            </div>
                        </div>","-61","","0","","","","images/map02_managua_scaleRev_orientDef_090.png","angry","1","02","02","managua","orientDef","scaleRev","090","",""
"","","","","","html-slider-response","88","488519","0.0-80.0","zddhc2frys","8","NaN","<div style=""width:500px;"">
                            <p style=""font-size:50px; font-weight:bold;""
                            >angry</p>
                            <div style=""width:240px; margin: auto;"">
                                <img src=""images/map05_viridis_scaleRev_orientDef_090.png"" style= ""width:200px""alt=""img"">
                            </div>
                        </div>","-200","","0","","","","images/map05_viridis_scaleRev_orientDef_090.png","angry","1","05","05","viridis","orientDef","scaleRev","090","",""
"","","","","","html-slider-response","89","490468","0.0-81.0","zddhc2frys","8","NaN","<div style=""width:500px;"">
                            <p style=""font-size:50px; font-weight:bold;""
                            >angry</p>
                            <div style=""width:240px; margin: auto;"">
                                <img src=""images/map15_YlGn_scaleRev_orientMir_090.png"" style= ""width:200px""alt=""img"">
                            </div>
                        </div>","-200","","0","","","","images/map15_YlGn_scaleRev_orientMir_090.png","angry","1","15","15","YlGn","orientMir","scaleRev","090","",""
"","","","","","html-slider-response","90","493584","0.0-82.0","zddhc2frys","8","NaN","<div style=""width:500px;"">
                            <p style=""font-size:50px; font-weight:bold;""
                            >angry</p>
                            <div style=""width:240px; margin: auto;"">
                                <img src=""images/map23_PuOr_scaleDef_orientMir_000.png"" style= ""width:200px""alt=""img"">
                            </div>
                        </div>","-44","","0","","","","images/map23_PuOr_scaleDef_orientMir_000.png","angry","1","23","23","PuOr","orientMir","scaleDef","000","",""
"","","","","","html-slider-response","91","496267","0.0-83.0","zddhc2frys","8","NaN","<div style=""width:500px;"">
                            <p style=""font-size:50px; font-weight:bold;""
                            >angry</p>
                            <div style=""width:240px; margin: auto;"">
                                <img src=""images/map13_YlGnBu_scaleDef_orientMir_180.png"" style= ""width:200px""alt=""img"">
                            </div>
                        </div>","-200","","0","","","","images/map13_YlGnBu_scaleDef_orientMir_180.png","angry","1","13","13","YlGnBu","orientMir","scaleDef","180","",""
"","","","","","html-slider-response","92","497951","0.0-84.0","zddhc2frys","8","NaN","<div style=""width:500px;"">
                            <p style=""font-size:50px; font-weight:bold;""
                            >angry</p>
                            <div style=""width:240px; margin: auto;"">
                                <img src=""images/map07_Purples_scaleDef_orientMir_000.png"" style= ""width:200px""alt=""img"">
                            </div>
                        </div>","-200","","0","","","","images/map07_Purples_scaleDef_orientMir_000.png","angry","1","07","07","Purples","orientMir","scaleDef","000","",""
"","","","","","html-slider-response","93","499869","0.0-85.0","zddhc2frys","8","NaN","<div style=""width:500px;"">
                            <p style=""font-size:50px; font-weight:bold;""
                            >angry</p>
                            <div style=""width:240px; margin: auto;"">
                                <img src=""images/map23_RdGy_scaleDef_orientMir_180.png"" style= ""width:200px""alt=""img"">
                            </div>
                        </div>","200","","0","","","","images/map23_RdGy_scaleDef_orientMir_180.png","angry","1","23","23","RdGy","orientMir","scaleDef","180","",""
"","","","","","html-slider-response","94","502502","0.0-86.0","zddhc2frys","8","NaN","<div style=""width:500px;"">
                            <p style=""font-size:50px; font-weight:bold;""
                            >angry</p>
                            <div style=""width:240px; margin: auto;"">
                                <img src=""images/map15_PuBuGn_scaleDef_orientDef_000.png"" style= ""width:200px""alt=""img"">
                            </div>
                        </div>","-200","","0","","","","images/map15_PuBuGn_scaleDef_orientDef_000.png","angry","1","15","15","PuBuGn","orientDef","scaleDef","000","",""
"","","","","","html-slider-response","95","505101","0.0-87.0","zddhc2frys","8","NaN","<div style=""width:500px;"">
                            <p style=""font-size:50px; font-weight:bold;""
                            >angry</p>
                            <div style=""width:240px; margin: auto;"">
                                <img src=""images/map13_GnBu_scaleDef_orientDef_180.png"" style= ""width:200px""alt=""img"">
                            </div>
                        </div>","-165","","0","","","","images/map13_GnBu_scaleDef_orientDef_180.png","angry","1","13","13","GnBu","orientDef","scaleDef","180","",""
"","","","","","html-slider-response","96","508584","0.0-88.0","zddhc2frys","8","NaN","<div style=""width:500px;"">
                            <p style=""font-size:50px; font-weight:bold;""
                            >angry</p>
                            <div style=""width:240px; margin: auto;"">
                                <img src=""images/map23_PuOr_scaleRev_orientMir_090.png"" style= ""width:200px""alt=""img"">
                            </div>
                        </div>","94","","0","","","","images/map23_PuOr_scaleRev_orientMir_090.png","angry","1","23","23","PuOr","orientMir","scaleRev","090","",""
"","","","","","html-slider-response","97","510918","0.0-89.0","zddhc2frys","8","NaN","<div style=""width:500px;"">
                            <p style=""font-size:50px; font-weight:bold;""
                            >angry</p>
                            <div style=""width:240px; margin: auto;"">
                                <img src=""images/map12_PuRd_scaleRev_orientMir_090.png"" style= ""width:200px""alt=""img"">
                            </div>
                        </div>","41","","0","","","","images/map12_PuRd_scaleRev_orientMir_090.png","angry","1","12","12","PuRd","orientMir","scaleRev","090","",""
"","","","","","html-slider-response","98","515301","0.0-90.0","zddhc2frys","8","NaN","<div style=""width:500px;"">
                            <p style=""font-size:50px; font-weight:bold;""
                            >angry</p>
                            <div style=""width:240px; margin: auto;"">
                                <img src=""images/map23_PRGn_scaleDef_orientDef_000.png"" style= ""width:200px""alt=""img"">
                            </div>
                        </div>","-64","","0","","","","images/map23_PRGn_scaleDef_orientDef_000.png","angry","1","23","23","PRGn","orientDef","scaleDef","000","",""
"","","","","","html-slider-response","99","518870","0.0-91.0","zddhc2frys","8","NaN","<div style=""width:500px;"">
                            <p style=""font-size:50px; font-weight:bold;""
                            >angry</p>
                            <div style=""width:240px; margin: auto;"">
                                <img src=""images/map02_gist_earth_scaleRev_orientMir_090.png"" style= ""width:200px""alt=""img"">
                            </div>
                        </div>","-200","","0","","","","images/map02_gist_earth_scaleRev_orientMir_090.png","angry","1","02","02","gist","scaleRev","earth","orientMir","",""
"","","","","","html-slider-response","100","522435","0.0-92.0","zddhc2frys","8","NaN","<div style=""width:500px;"">
                            <p style=""font-size:50px; font-weight:bold;""
                            >angry</p>
                            <div style=""width:240px; margin: auto;"">
                                <img src=""images/map10_Oranges_scaleRev_orientDef_270.png"" style= ""width:200px""alt=""img"">
                            </div>
                        </div>","130","","0","","","","images/map10_Oranges_scaleRev_orientDef_270.png","angry","1","10","10","Oranges","orientDef","scaleRev","270","",""
"","","","","","html-slider-response","101","524485","0.0-93.0","zddhc2frys","8","NaN","<div style=""width:500px;"">
                            <p style=""font-size:50px; font-weight:bold;""
                            >angry</p>
                            <div style=""width:240px; margin: auto;"">
                                <img src=""images/map05_plasma_scaleRev_orientDef_270.png"" style= ""width:200px""alt=""img"">
                            </div>
                        </div>","200","","0","","","","images/map05_plasma_scaleRev_orientDef_270.png","angry","1","05","05","plasma","orientDef","scaleRev","270","",""
"","","","","","html-slider-response","102","526267","0.0-94.0","zddhc2frys","8","NaN","<div style=""width:500px;"">
                            <p style=""font-size:50px; font-weight:bold;""
                            >angry</p>
                            <div style=""width:240px; margin: auto;"">
                                <img src=""images/map27_bwr_scaleDef_orientDef_180.png"" style= ""width:200px""alt=""img"">
                            </div>
                        </div>","200","","0","","","","images/map27_bwr_scaleDef_orientDef_180.png","angry","1","27","27","bwr","orientDef","scaleDef","180","",""
"","","","","","html-button-response","103","528707","0.0-95.0","zddhc2frys","8","1937","<p>Great Job! You've finished block 1.<br></br> You have 4 block(s) left to go.<br></br></p>","0","","","","","","","","","","","","","","","",""
"","","","","","html-button-response","104","530356","0.0-96.0","zddhc2frys","8","1649","<p>In this block of trials, you will be asked to rate how much you associate each map with:</p > <p style = 'font-size:150%; font-weight: bold'>disgust</p><br></br>","0","","","","","","","","","","","","","","","",""
"","","","","","html-slider-response","105","534269","0.0-97.0","zddhc2frys","8","NaN","<div style=""width:500px;"">
                            <p style=""font-size:50px; font-weight:bold;""
                            >disgust</p>
                            <div style=""width:240px; margin: auto;"">
                                <img src=""images/map23_RdGy_scaleDef_orientMir_180.png"" style= ""width:200px""alt=""img"">
                            </div>
                        </div>","-103","","0","","","","images/map23_RdGy_scaleDef_orientMir_180.png","disgust","1","23","23","RdGy","orientMir","scaleDef","180","",""
"","","","","","html-slider-response","106","539033","0.0-98.0","zddhc2frys","8","NaN","<div style=""width:500px;"">
                            <p style=""font-size:50px; font-weight:bold;""
                            >disgust</p>
                            <div style=""width:240px; margin: auto;"">
                                <img src=""images/map23_RdGy_scaleRev_orientMir_270.png"" style= ""width:200px""alt=""img"">
                            </div>
                        </div>","-43","","0","","","","images/map23_RdGy_scaleRev_orientMir_270.png","disgust","1","23","23","RdGy","orientMir","scaleRev","270","",""
"","","","","","html-slider-response","107","542768","0.0-99.0","zddhc2frys","8","NaN","<div style=""width:500px;"">
                            <p style=""font-size:50px; font-weight:bold;""
                            >disgust</p>
                            <div style=""width:240px; margin: auto;"">
                                <img src=""images/map05_plasma_scaleDef_orientDef_180.png"" style= ""width:200px""alt=""img"">
                            </div>
                        </div>","42","","0","","","","images/map05_plasma_scaleDef_orientDef_180.png","disgust","1","05","05","plasma","orientDef","scaleDef","180","",""
"","","","","","html-slider-response","108","547751","0.0-100.0","zddhc2frys","8","NaN","<div style=""width:500px;"">
                            <p style=""font-size:50px; font-weight:bold;""
                            >disgust</p>
                            <div style=""width:240px; margin: auto;"">
                                <img src=""images/map02_managua_scaleDef_orientDef_000.png"" style= ""width:200px""alt=""img"">
                            </div>
                        </div>","-200","","0","","","","images/map02_managua_scaleDef_orientDef_000.png","disgust","1","02","02","managua","orientDef","scaleDef","000","",""
"","","","","","html-slider-response","109","550317","0.0-101.0","zddhc2frys","8","NaN","<div style=""width:500px;"">
                            <p style=""font-size:50px; font-weight:bold;""
                            >disgust</p>
                            <div style=""width:240px; margin: auto;"">
                                <img src=""images/map02_turbo_scaleDef_orientMir_180.png"" style= ""width:200px""alt=""img"">
                            </div>
                        </div>","-200","","0","","","","images/map02_turbo_scaleDef_orientMir_180.png","disgust","1","02","02","turbo","orientMir","scaleDef","180","",""
"","","","","","html-slider-response","110","555435","0.0-102.0","zddhc2frys","8","NaN","<div style=""width:500px;"">
                            <p style=""font-size:50px; font-weight:bold;""
                            >disgust</p>
                            <div style=""width:240px; margin: auto;"">
                                <img src=""images/map05_magma_scaleDef_orientMir_180.png"" style= ""width:200px""alt=""img"">
                            </div>
                        </div>","-100","","0","","","","images/map05_magma_scaleDef_orientMir_180.png","disgust","1","05","05","magma","orientMir","scaleDef","180","",""
"","","","","","html-slider-response","111","558850","0.0-103.0","zddhc2frys","8","NaN","<div style=""width:500px;"">
                            <p style=""font-size:50px; font-weight:bold;""
                            >disgust</p>
                            <div style=""width:240px; margin: auto;"">
                                <img src=""images/map10_Reds_scaleRev_orientMir_090.png"" style= ""width:200px""alt=""img"">
                            </div>
                        </div>","-200","","0","","","","images/map10_Reds_scaleRev_orientMir_090.png","disgust","1","10","10","Reds","orientMir","scaleRev","090","",""
"","","","","","html-slider-response","112","561401","0.0-104.0","zddhc2frys","8","NaN","<div style=""width:500px;"">
                            <p style=""font-size:50px; font-weight:bold;""
                            >disgust</p>
                            <div style=""width:240px; margin: auto;"">
                                <img src=""images/map12_OrRd_scaleDef_orientDef_180.png"" style= ""width:200px""alt=""img"">
                            </div>
                        </div>","-158","","0","","","","images/map12_OrRd_scaleDef_orientDef_180.png","disgust","1","12","12","OrRd","orientDef","scaleDef","180","",""
"","","","","","html-slider-response","113","563935","0.0-105.0","zddhc2frys","8","NaN","<div style=""width:500px;"">
                            <p style=""font-size:50px; font-weight:bold;""
                            >disgust</p>
                            <div style=""width:240px; margin: auto;"">
                                <img src=""images/map27_coolwarm_scaleRev_orientDef_090.png"" style= ""width:200px""alt=""img"">
                            </div>
                        </div>","-200","","0","","","","images/map27_coolwarm_scaleRev_orientDef_090.png","disgust","1","27","27","coolwarm","orientDef","scaleRev","090","",""
"","","","","","html-slider-response","114","565684","0.0-106.0","zddhc2frys","8","NaN","<div style=""width:500px;"">
                            <p style=""font-size:50px; font-weight:bold;""
                            >disgust</p>
                            <div style=""width:240px; margin: auto;"">
                                <img src=""images/map10_Reds_scaleDef_orientMir_000.png"" style= ""width:200px""alt=""img"">
                            </div>
                        </div>","-200","","0","","","","images/map10_Reds_scaleDef_orientMir_000.png","disgust","1","10","10","Reds","orientMir","scaleDef","000","",""
"","","","","","html-slider-response","115","567768","0.0-107.0","zddhc2frys","8","NaN","<div style=""width:500px;"">
                            <p style=""font-size:50px; font-weight:bold;""
                            >disgust</p>
                            <div style=""width:240px; margin: auto;"">
                                <img src=""images/map05_viridis_scaleDef_orientDef_000.png"" style= ""width:200px""alt=""img"">
                            </div>
                        </div>","200","","0","","","","images/map05_viridis_scaleDef_orientDef_000.png","disgust","1","05","05","viridis","orientDef","scaleDef","000","",""
"","","","","","html-slider-response","116","569767","0.0-108.0","zddhc2frys","8","NaN","<div style=""width:500px;"">
                            <p style=""font-size:50px; font-weight:bold;""
                            >disgust</p>
                            <div style=""width:240px; margin: auto;"">
                                <img src=""images/map02_gist_earth_scaleDef_orientMir_000.png"" style= ""width:200px""alt=""img"">
                            </div>
                        </div>","200","","0","","","","images/map02_gist_earth_scaleDef_orientMir_000.png","disgust","1","02","02","gist","scaleDef","earth","orientMir","",""
"","","","","","html-slider-response","117","573051","0.0-109.0","zddhc2frys","8","NaN","<div style=""width:500px;"">
                            <p style=""font-size:50px; font-weight:bold;""
                            >disgust</p>
                            <div style=""width:240px; margin: auto;"">
                                <img src=""images/map02_managua_scaleRev_orientDef_090.png"" style= ""width:200px""alt=""img"">
                            </div>
                        </div>","-146","","0","","","","images/map02_managua_scaleRev_orientDef_090.png","disgust","1","02","02","managua","orientDef","scaleRev","090","",""
"","","","","","html-slider-response","118","576883","0.0-110.0","zddhc2frys","8","NaN","<div style=""width:500px;"">
                            <p style=""font-size:50px; font-weight:bold;""
                            >disgust</p>
                            <div style=""width:240px; margin: auto;"">
                                <img src=""images/map07_Greys_scaleDef_orientDef_180.png"" style= ""width:200px""alt=""img"">
                            </div>
                        </div>","-98","","0","","","","images/map07_Greys_scaleDef_orientDef_180.png","disgust","1","07","07","Greys","orientDef","scaleDef","180","",""
"","","","","","html-slider-response","119","580101","0.0-111.0","zddhc2frys","8","NaN","<div style=""width:500px;"">
                            <p style=""font-size:50px; font-weight:bold;""
                            >disgust</p>
                            <div style=""width:240px; margin: auto;"">
                                <img src=""images/map13_BuPu_scaleRev_orientDef_090.png"" style= ""width:200px""alt=""img"">
                            </div>
                        </div>","-81","","0","","","","images/map13_BuPu_scaleRev_orientDef_090.png","disgust","1","13","13","BuPu","orientDef","scaleRev","090","",""
"","","","","","html-slider-response","120","583550","0.0-112.0","zddhc2frys","8","NaN","<div style=""width:500px;"">
                            <p style=""font-size:50px; font-weight:bold;""
                            >disgust</p>
                            <div style=""width:240px; margin: auto;"">
                                <img src=""images/map05_inferno_scaleDef_orientMir_000.png"" style= ""width:200px""alt=""img"">
                            </div>
                        </div>","14","","0","","","","images/map05_inferno_scaleDef_orientMir_000.png","disgust","1","05","05","inferno","orientMir","scaleDef","000","",""
"","","","","","html-slider-response","121","591533","0.0-113.0","zddhc2frys","8","NaN","<div style=""width:500px;"">
                            <p style=""font-size:50px; font-weight:bold;""
                            >disgust</p>
                            <div style=""width:240px; margin: auto;"">
                                <img src=""images/map12_OrRd_scaleRev_orientDef_270.png"" style= ""width:200px""alt=""img"">
                            </div>
                        </div>","-200","","0","","","","images/map12_OrRd_scaleRev_orientDef_270.png","disgust","1","12","12","OrRd","orientDef","scaleRev","270","",""
"","","","","","html-slider-response","122","595084","0.0-114.0","zddhc2frys","8","NaN","<div style=""width:500px;"">
                            <p style=""font-size:50px; font-weight:bold;""
                            >disgust</p>
                            <div style=""width:240px; margin: auto;"">
                                <img src=""images/map13_YlGnBu_scaleRev_orientMir_270.png"" style= ""width:200px""alt=""img"">
                            </div>
                        </div>","-82","","0","","","","images/map13_YlGnBu_scaleRev_orientMir_270.png","disgust","1","13","13","YlGnBu","orientMir","scaleRev","270","",""
"","","","","","html-slider-response","123","598236","0.0-115.0","zddhc2frys","8","NaN","<div style=""width:500px;"">
                            <p style=""font-size:50px; font-weight:bold;""
                            >disgust</p>
                            <div style=""width:240px; margin: auto;"">
                                <img src=""images/map27_bwr_scaleDef_orientDef_180.png"" style= ""width:200px""alt=""img"">
                            </div>
                        </div>","-117","","0","","","","images/map27_bwr_scaleDef_orientDef_180.png","disgust","1","27","27","bwr","orientDef","scaleDef","180","",""
"","","","","","html-slider-response","124","601399","0.0-116.0","zddhc2frys","8","NaN","<div style=""width:500px;"">
                            <p style=""font-size:50px; font-weight:bold;""
                            >disgust</p>
                            <div style=""width:240px; margin: auto;"">
                                <img src=""images/map15_PiYG_scaleDef_orientMir_180.png"" style= ""width:200px""alt=""img"">
                            </div>
                        </div>","200","","0","","","","images/map15_PiYG_scaleDef_orientMir_180.png","disgust","1","15","15","PiYG","orientMir","scaleDef","180","",""
"","","","","","html-slider-response","125","604383","0.0-117.0","zddhc2frys","8","NaN","<div style=""width:500px;"">
                            <p style=""font-size:50px; font-weight:bold;""
                            >disgust</p>
                            <div style=""width:240px; margin: auto;"">
                                <img src=""images/map13_BuPu_scaleDef_orientDef_000.png"" style= ""width:200px""alt=""img"">
                            </div>
                        </div>","-200","","0","","","","images/map13_BuPu_scaleDef_orientDef_000.png","disgust","1","13","13","BuPu","orientDef","scaleDef","000","",""
"","","","","","html-slider-response","126","606218","0.0-118.0","zddhc2frys","8","NaN","<div style=""width:500px;"">
                            <p style=""font-size:50px; font-weight:bold;""
                            >disgust</p>
                            <div style=""width:240px; margin: auto;"">
                                <img src=""images/map10_Oranges_scaleDef_orientDef_180.png"" style= ""width:200px""alt=""img"">
                            </div>
                        </div>","-200","","0","","","","images/map10_Oranges_scaleDef_orientDef_180.png","disgust","1","10","10","Oranges","orientDef","scaleDef","180","",""
"","","","","","html-slider-response","127","608584","0.0-119.0","zddhc2frys","8","NaN","<div style=""width:500px;"">
                            <p style=""font-size:50px; font-weight:bold;""
                            >disgust</p>
                            <div style=""width:240px; margin: auto;"">
                                <img src=""images/map13_PuBu_scaleDef_orientMir_000.png"" style= ""width:200px""alt=""img"">
                            </div>
                        </div>","-118","","0","","","","images/map13_PuBu_scaleDef_orientMir_000.png","disgust","1","13","13","PuBu","orientMir","scaleDef","000","",""
"","","","","","html-slider-response","128","612067","0.0-120.0","zddhc2frys","8","NaN","<div style=""width:500px;"">
                            <p style=""font-size:50px; font-weight:bold;""
                            >disgust</p>
                            <div style=""width:240px; margin: auto;"">
                                <img src=""images/map27_berlin_scaleDef_orientMir_180.png"" style= ""width:200px""alt=""img"">
                            </div>
                        </div>","-130","","0","","","","images/map27_berlin_scaleDef_orientMir_180.png","disgust","1","27","27","berlin","orientMir","scaleDef","180","",""
"","","","","","html-slider-response","129","613867","0.0-121.0","zddhc2frys","8","NaN","<div style=""width:500px;"">
                            <p style=""font-size:50px; font-weight:bold;""
                            >disgust</p>
                            <div style=""width:240px; margin: auto;"">
                                <img src=""images/map15_YlGn_scaleRev_orientMir_090.png"" style= ""width:200px""alt=""img"">
                            </div>
                        </div>","200","","0","","","","images/map15_YlGn_scaleRev_orientMir_090.png","disgust","1","15","15","YlGn","orientMir","scaleRev","090","",""
"","","","","","html-slider-response","130","616268","0.0-122.0","zddhc2frys","8","NaN","<div style=""width:500px;"">
                            <p style=""font-size:50px; font-weight:bold;""
                            >disgust</p>
                            <div style=""width:240px; margin: auto;"">
                                <img src=""images/map10_YlOrBr_scaleRev_orientMir_270.png"" style= ""width:200px""alt=""img"">
                            </div>
                        </div>","-200","","0","","","","images/map10_YlOrBr_scaleRev_orientMir_270.png","disgust","1","10","10","YlOrBr","orientMir","scaleRev","270","",""
"","","","","","html-slider-response","131","619035","0.0-123.0","zddhc2frys","8","NaN","<div style=""width:500px;"">
                            <p style=""font-size:50px; font-weight:bold;""
                            >disgust</p>
                            <div style=""width:240px; margin: auto;"">
                                <img src=""images/map27_bwr_scaleRev_orientDef_270.png"" style= ""width:200px""alt=""img"">
                            </div>
                        </div>","-86","","0","","","","images/map27_bwr_scaleRev_orientDef_270.png","disgust","1","27","27","bwr","orientDef","scaleRev","270","",""
"","","","","","html-slider-response","132","621317","0.0-124.0","zddhc2frys","8","NaN","<div style=""width:500px;"">
                            <p style=""font-size:50px; font-weight:bold;""
                            >disgust</p>
                            <div style=""width:240px; margin: auto;"">
                                <img src=""images/map23_PuOr_scaleRev_orientMir_090.png"" style= ""width:200px""alt=""img"">
                            </div>
                        </div>","94","","0","","","","images/map23_PuOr_scaleRev_orientMir_090.png","disgust","1","23","23","PuOr","orientMir","scaleRev","090","",""
"","","","","","html-slider-response","133","626283","0.0-125.0","zddhc2frys","8","NaN","<div style=""width:500px;"">
                            <p style=""font-size:50px; font-weight:bold;""
                            >disgust</p>
                            <div style=""width:240px; margin: auto;"">
                                <img src=""images/map10_YlOrBr_scaleDef_orientMir_180.png"" style= ""width:200px""alt=""img"">
                            </div>
                        </div>","2","","0","","","","images/map10_YlOrBr_scaleDef_orientMir_180.png","disgust","1","10","10","YlOrBr","orientMir","scaleDef","180","",""
"","","","","","html-slider-response","134","636601","0.0-126.0","zddhc2frys","8","NaN","<div style=""width:500px;"">
                            <p style=""font-size:50px; font-weight:bold;""
                            >disgust</p>
                            <div style=""width:240px; margin: auto;"">
                                <img src=""images/map05_magma_scaleRev_orientMir_270.png"" style= ""width:200px""alt=""img"">
                            </div>
                        </div>","58","","0","","","","images/map05_magma_scaleRev_orientMir_270.png","disgust","1","05","05","magma","orientMir","scaleRev","270","",""
"","","","","","html-slider-response","135","641268","0.0-127.0","zddhc2frys","8","NaN","<div style=""width:500px;"">
                            <p style=""font-size:50px; font-weight:bold;""
                            >disgust</p>
                            <div style=""width:240px; margin: auto;"">
                                <img src=""images/map07_Purples_scaleDef_orientMir_000.png"" style= ""width:200px""alt=""img"">
                            </div>
                        </div>","-200","","0","","","","images/map07_Purples_scaleDef_orientMir_000.png","disgust","1","07","07","Purples","orientMir","scaleDef","000","",""
"","","","","","html-slider-response","136","643718","0.0-128.0","zddhc2frys","8","NaN","<div style=""width:500px;"">
                            <p style=""font-size:50px; font-weight:bold;""
                            >disgust</p>
                            <div style=""width:240px; margin: auto;"">
                                <img src=""images/map05_inferno_scaleRev_orientMir_090.png"" style= ""width:200px""alt=""img"">
                            </div>
                        </div>","65","","0","","","","images/map05_inferno_scaleRev_orientMir_090.png","disgust","1","05","05","inferno","orientMir","scaleRev","090","",""
"","","","","","html-slider-response","137","645967","0.0-129.0","zddhc2frys","8","NaN","<div style=""width:500px;"">
                            <p style=""font-size:50px; font-weight:bold;""
                            >disgust</p>
                            <div style=""width:240px; margin: auto;"">
                                <img src=""images/map23_BrBG_scaleDef_orientDef_180.png"" style= ""width:200px""alt=""img"">
                            </div>
                        </div>","200","","0","","","","images/map23_BrBG_scaleDef_orientDef_180.png","disgust","1","23","23","BrBG","orientDef","scaleDef","180","",""
"","","","","","html-slider-response","138","649218","0.0-130.0","zddhc2frys","8","NaN","<div style=""width:500px;"">
                            <p style=""font-size:50px; font-weight:bold;""
                            >disgust</p>
                            <div style=""width:240px; margin: auto;"">
                                <img src=""images/map05_plasma_scaleRev_orientDef_270.png"" style= ""width:200px""alt=""img"">
                            </div>
                        </div>","-52","","0","","","","images/map05_plasma_scaleRev_orientDef_270.png","disgust","1","05","05","plasma","orientDef","scaleRev","270","",""
"","","","","","html-slider-response","139","651783","0.0-131.0","zddhc2frys","8","NaN","<div style=""width:500px;"">
                            <p style=""font-size:50px; font-weight:bold;""
                            >disgust</p>
                            <div style=""width:240px; margin: auto;"">
                                <img src=""images/map15_PuBuGn_scaleRev_orientDef_090.png"" style= ""width:200px""alt=""img"">
                            </div>
                        </div>","-200","","0","","","","images/map15_PuBuGn_scaleRev_orientDef_090.png","disgust","1","15","15","PuBuGn","orientDef","scaleRev","090","",""
"","","","","","html-slider-response","140","653767","0.0-132.0","zddhc2frys","8","NaN","<div style=""width:500px;"">
                            <p style=""font-size:50px; font-weight:bold;""
                            >disgust</p>
                            <div style=""width:240px; margin: auto;"">
                                <img src=""images/map07_Blues_scaleRev_orientMir_270.png"" style= ""width:200px""alt=""img"">
                            </div>
                        </div>","-200","","0","","","","images/map07_Blues_scaleRev_orientMir_270.png","disgust","1","07","07","Blues","orientMir","scaleRev","270","",""
"","","","","","html-slider-response","141","658417","0.0-133.0","zddhc2frys","8","NaN","<div style=""width:500px;"">
                            <p style=""font-size:50px; font-weight:bold;""
                            >disgust</p>
                            <div style=""width:240px; margin: auto;"">
                                <img src=""images/map02_turbo_scaleRev_orientMir_270.png"" style= ""width:200px""alt=""img"">
                            </div>
                        </div>","-2","","0","","","","images/map02_turbo_scaleRev_orientMir_270.png","disgust","1","02","02","turbo","orientMir","scaleRev","270","",""
"","","","","","html-slider-response","142","660217","0.0-134.0","zddhc2frys","8","NaN","<div style=""width:500px;"">
                            <p style=""font-size:50px; font-weight:bold;""
                            >disgust</p>
                            <div style=""width:240px; margin: auto;"">
                                <img src=""images/map02_vanimo_scaleRev_orientDef_270.png"" style= ""width:200px""alt=""img"">
                            </div>
                        </div>","200","","0","","","","images/map02_vanimo_scaleRev_orientDef_270.png","disgust","1","02","02","vanimo","orientDef","scaleRev","270","",""
"","","","","","html-slider-response","143","662117","0.0-135.0","zddhc2frys","8","NaN","<div style=""width:500px;"">
                            <p style=""font-size:50px; font-weight:bold;""
                            >disgust</p>
                            <div style=""width:240px; margin: auto;"">
                                <img src=""images/map15_PiYG_scaleRev_orientMir_270.png"" style= ""width:200px""alt=""img"">
                            </div>
                        </div>","200","","0","","","","images/map15_PiYG_scaleRev_orientMir_270.png","disgust","1","15","15","PiYG","orientMir","scaleRev","270","",""
"","","","","","html-slider-response","144","664167","0.0-136.0","zddhc2frys","8","NaN","<div style=""width:500px;"">
                            <p style=""font-size:50px; font-weight:bold;""
                            >disgust</p>
                            <div style=""width:240px; margin: auto;"">
                                <img src=""images/map02_vanimo_scaleDef_orientDef_180.png"" style= ""width:200px""alt=""img"">
                            </div>
                        </div>","200","","0","","","","images/map02_vanimo_scaleDef_orientDef_180.png","disgust","1","02","02","vanimo","orientDef","scaleDef","180","",""
"","","","","","html-button-response","145","665689","0.0-137.0","zddhc2frys","8","1019","<p>You are doing great!<br></br> You are halway done with the current block. When you are ready to continue, click the 'Continue' button.</p>","0","","","","","","","","","","","","","","","",""
"","","","","","html-slider-response","146","668250","0.0-138.0","zddhc2frys","8","NaN","<div style=""width:500px;"">
                            <p style=""font-size:50px; font-weight:bold;""
                            >disgust</p>
                            <div style=""width:240px; margin: auto;"">
                                <img src=""images/map26_RdBu_scaleDef_orientDef_000.png"" style= ""width:200px""alt=""img"">
                            </div>
                        </div>","-103","","0","","","","images/map26_RdBu_scaleDef_orientDef_000.png","disgust","1","26","26","RdBu","orientDef","scaleDef","000","",""
"","","","","","html-slider-response","147","670068","0.0-139.0","zddhc2frys","8","NaN","<div style=""width:500px;"">
                            <p style=""font-size:50px; font-weight:bold;""
                            >disgust</p>
                            <div style=""width:240px; margin: auto;"">
                                <img src=""images/map27_coolwarm_scaleDef_orientDef_000.png"" style= ""width:200px""alt=""img"">
                            </div>
                        </div>","-102","","0","","","","images/map27_coolwarm_scaleDef_orientDef_000.png","disgust","1","27","27","coolwarm","orientDef","scaleDef","000","",""
"","","","","","html-slider-response","148","672100","0.0-140.0","zddhc2frys","8","NaN","<div style=""width:500px;"">
                            <p style=""font-size:50px; font-weight:bold;""
                            >disgust</p>
                            <div style=""width:240px; margin: auto;"">
                                <img src=""images/map07_Blues_scaleDef_orientMir_180.png"" style= ""width:200px""alt=""img"">
                            </div>
                        </div>","-200","","0","","","","images/map07_Blues_scaleDef_orientMir_180.png","disgust","1","07","07","Blues","orientMir","scaleDef","180","",""
"","","","","","html-slider-response","149","673885","0.0-141.0","zddhc2frys","8","NaN","<div style=""width:500px;"">
                            <p style=""font-size:50px; font-weight:bold;""
                            >disgust</p>
                            <div style=""width:240px; margin: auto;"">
                                <img src=""images/map13_YlGnBu_scaleDef_orientMir_180.png"" style= ""width:200px""alt=""img"">
                            </div>
                        </div>","-200","","0","","","","images/map13_YlGnBu_scaleDef_orientMir_180.png","disgust","1","13","13","YlGnBu","orientMir","scaleDef","180","",""
"","","","","","html-slider-response","150","675801","0.0-142.0","zddhc2frys","8","NaN","<div style=""width:500px;"">
                            <p style=""font-size:50px; font-weight:bold;""
                            >disgust</p>
                            <div style=""width:240px; margin: auto;"">
                                <img src=""images/map05_viridis_scaleRev_orientDef_090.png"" style= ""width:200px""alt=""img"">
                            </div>
                        </div>","200","","0","","","","images/map05_viridis_scaleRev_orientDef_090.png","disgust","1","05","05","viridis","orientDef","scaleRev","090","",""
"","","","","","html-slider-response","151","678534","0.0-143.0","zddhc2frys","8","NaN","<div style=""width:500px;"">
                            <p style=""font-size:50px; font-weight:bold;""
                            >disgust</p>
                            <div style=""width:240px; margin: auto;"">
                                <img src=""images/map26_RdYlBu_scaleRev_orientDef_270.png"" style= ""width:200px""alt=""img"">
                            </div>
                        </div>","-98","","0","","","","images/map26_RdYlBu_scaleRev_orientDef_270.png","disgust","1","26","26","RdYlBu","orientDef","scaleRev","270","",""
"","","","","","html-slider-response","152","681086","0.0-144.0","zddhc2frys","8","NaN","<div style=""width:500px;"">
                            <p style=""font-size:50px; font-weight:bold;""
                            >disgust</p>
                            <div style=""width:240px; margin: auto;"">
                                <img src=""images/map26_Spectral_scaleDef_orientMir_180.png"" style= ""width:200px""alt=""img"">
                            </div>
                        </div>","-29","","0","","","","images/map26_Spectral_scaleDef_orientMir_180.png","disgust","1","26","26","Spectral","orientMir","scaleDef","180","",""
"","","","","","html-slider-response","153","684800","0.0-145.0","zddhc2frys","8","NaN","<div style=""width:500px;"">
                            <p style=""font-size:50px; font-weight:bold;""
                            >disgust</p>
                            <div style=""width:240px; margin: auto;"">
                                <img src=""images/map12_PuRd_scaleRev_orientMir_090.png"" style= ""width:200px""alt=""img"">
                            </div>
                        </div>","-103","","0","","","","images/map12_PuRd_scaleRev_orientMir_090.png","disgust","1","12","12","PuRd","orientMir","scaleRev","090","",""
"","","","","","html-slider-response","154","688332","0.0-146.0","zddhc2frys","8","NaN","<div style=""width:500px;"">
                            <p style=""font-size:50px; font-weight:bold;""
                            >disgust</p>
                            <div style=""width:240px; margin: auto;"">
                                <img src=""images/map23_PuOr_scaleDef_orientMir_000.png"" style= ""width:200px""alt=""img"">
                            </div>
                        </div>","54","","0","","","","images/map23_PuOr_scaleDef_orientMir_000.png","disgust","1","23","23","PuOr","orientMir","scaleDef","000","",""
"","","","","","html-slider-response","155","692149","0.0-147.0","zddhc2frys","8","NaN","<div style=""width:500px;"">
                            <p style=""font-size:50px; font-weight:bold;""
                            >disgust</p>
                            <div style=""width:240px; margin: auto;"">
                                <img src=""images/map26_RdYlGn_scaleDef_orientMir_000.png"" style= ""width:200px""alt=""img"">
                            </div>
                        </div>","55","","0","","","","images/map26_RdYlGn_scaleDef_orientMir_000.png","disgust","1","26","26","RdYlGn","orientMir","scaleDef","000","",""
"","","","","","html-slider-response","156","695352","0.0-148.0","zddhc2frys","8","NaN","<div style=""width:500px;"">
                            <p style=""font-size:50px; font-weight:bold;""
                            >disgust</p>
                            <div style=""width:240px; margin: auto;"">
                                <img src=""images/map27_berlin_scaleRev_orientMir_270.png"" style= ""width:200px""alt=""img"">
                            </div>
                        </div>","-89","","0","","","","images/map27_berlin_scaleRev_orientMir_270.png","disgust","1","27","27","berlin","orientMir","scaleRev","270","",""
"","","","","","html-slider-response","157","696932","0.0-149.0","zddhc2frys","8","NaN","<div style=""width:500px;"">
                            <p style=""font-size:50px; font-weight:bold;""
                            >disgust</p>
                            <div style=""width:240px; margin: auto;"">
                                <img src=""images/map13_GnBu_scaleDef_orientDef_180.png"" style= ""width:200px""alt=""img"">
                            </div>
                        </div>","-200","","0","","","","images/map13_GnBu_scaleDef_orientDef_180.png","disgust","1","13","13","GnBu","orientDef","scaleDef","180","",""
"","","","","","html-slider-response","158","699133","0.0-150.0","zddhc2frys","8","NaN","<div style=""width:500px;"">
                            <p style=""font-size:50px; font-weight:bold;""
                            >disgust</p>
                            <div style=""width:240px; margin: auto;"">
                                <img src=""images/map12_PuRd_scaleDef_orientMir_000.png"" style= ""width:200px""alt=""img"">
                            </div>
                        </div>","-72","","0","","","","images/map12_PuRd_scaleDef_orientMir_000.png","disgust","1","12","12","PuRd","orientMir","scaleDef","000","",""
"","","","","","html-slider-response","159","700918","0.0-151.0","zddhc2frys","8","NaN","<div style=""width:500px;"">
                            <p style=""font-size:50px; font-weight:bold;""
                            >disgust</p>
                            <div style=""width:240px; margin: auto;"">
                                <img src=""images/map10_Greens_scaleDef_orientDef_000.png"" style= ""width:200px""alt=""img"">
                            </div>
