"success","timeout","failed_images","failed_audio","failed_video","trial_type","trial_index","time_elapsed","internal_node_id","subject_id","condition_num","rt","stimulus","response","question_order","slider_start","practiceTrial","practiceTrialNum","correct","image_path","concept","repetition","map_id","map_num","scale_name","orientation_code","mapping_code","rotation_code","ishihara_plate","correct_response"
"true","false","[]","[]","[]","preload","0","366","0.0-0.0","zpg331sldp","75","","","","","","","","","","","","","","","","","","",""
"","","","","","html-button-response","1","2801","0.0-1.0","zpg331sldp","75","2433","Welcome to our experiment!<p>At the bottom of this screen, you will see a button that says ""Begin Experiment"".<br>Please only click that button when you are ready to complete the 30 minute experiment in one sitting.</p><p> Once you click that button, it will not be possible to restart the experiment.","0","","","","","","","","","","","","","","","",""
"true","","","","","fullscreen","2","4852","0.0-2.0","zpg331sldp","75","1048","","","","","","","","","","","","","","","","","",""
"","","","","","survey-multi-select","3","12084","0.0-3.0","zpg331sldp","75","7228","","{""Consent"":[""<strong>I consent</strong>""]}","[0]","","","","","","","","","","","","","","",""
"","","","","","html-button-response","4","19132","0.0-4.0","zpg331sldp","75","7046","Welcome! <p> This experiment involves two parts: demographic information, followed by the experimental task.<p> It will take about 30 minutes to complete both parts.","0","","","","","","","","","","","","","","","",""
"","","","","","survey-text","5","32602","0.0-5.0","zpg331sldp","75","13463","","{""Age"":""21"",""Gender"":""Female"",""Race/ethnicity"":""White"",""Languages"":""English""}","","","","","","","","","","","","","","","",""
"","","","","","html-slider-response","6","58482","0.0-6.0","zpg331sldp","75","25877","<div style='text-align:left; font-size:20px; line-height:25px; width: 1000px;'>
                                During this experiment you will be asked to rate how much you associate maps with                    different concepts.<br> Below, you can see some examples of the maps you will be asked to rate. Above the maps
                    is the list of concepts.<br>You will be asked                    to rate how much you associate each map with each concept on a scale from 'not at all' to 'very much' like the
                    one below. <br><br>
                    Now, please look at the list of concepts and maps. For each concept, think about the map you associate 'very
                    much' with the concept.<br>                     When you see that map during the experiment, please rate it near the 'very much' endpoint of the
                    scale.<br>Now, please think about which map you associate 'not at all'                     with each concept. When you see that map during the experiment, please rate it near the 'not at all' endpoint
                    of the scale.<br>
                    Please use the full range of the scale. That is, if a map is somewhat associated with the concept, you would
                    click partway between the middle point and right side of the scale.                    You will be asked to rate each map for a given concept before moving on to the next concept.<br>Press the
                    'Continue' button for instructions on how to use the slider.                    <br>
                </div>

                <div style=""width: 500px; margin: 0 auto;"">
                    <!-- Centered text paragraphs -->
                    <div style=""text-align: center; width: 500px;"">
                        <p style=""font-size:25px; line-height:15px;"">
                            sad&nbsp;&nbsp;&nbsp;&nbsp;
                            fearful&nbsp;&nbsp;&nbsp;&nbsp;
                            disgust&nbsp;&nbsp;&nbsp;&nbsp;
                            happy&nbsp;&nbsp;&nbsp;&nbsp;
                            angry
                        </p>
                        <!-- <p style=""font-size:20px; line-height:15px;"">fearful</p>
                        <p style=""font-size:20px;line-height:15px;"">disgust</p>
                        <p style=""font-size:20px;line-height:15px;"">happy</p>
                        <p style=""font-size:20px;line-height:15px;"">angry</p> -->
                    </div>
            

                    <!-- Grid section -->
                   <div style=""display: flex; justify-content: center; padding-top: 15px;"">
                    <div style=""display: grid; grid-template-columns: repeat(10, 55px); grid-gap: 5px; width: auto;"">
                        <img src=""images/map23_bwr_scaleRev_orientMir_180.png"" alt=""map"" style=""width: 100%;""><img src=""images/map07_OrRd_scaleRev_orientMir_180.png"" alt=""map"" style=""width: 100%;""><img src=""images/map13_PuOr_scaleDef_orientMir_270.png"" alt=""map"" style=""width: 100%;""><img src=""images/map05_Blues_scaleRev_orientDef_180.png"" alt=""map"" style=""width: 100%;""><img src=""images/map10_GnBu_scaleRev_orientMir_180.png"" alt=""map"" style=""width: 100%;""><img src=""images/map23_Spectral_scaleRev_orientDef_180.png"" alt=""map"" style=""width: 100%;""><img src=""images/map13_PiYG_scaleRev_orientDef_180.png"" alt=""map"" style=""width: 100%;""><img src=""images/map15_RdYlBu_scaleDef_orientMir_090.png"" alt=""map"" style=""width: 100%;""><img src=""images/map27_viridis_scaleRev_orientMir_000.png"" alt=""map"" style=""width: 100%;""><img src=""images/map12_PuBuGn_scaleRev_orientMir_000.png"" alt=""map"" style=""width: 100%;""><img src=""images/map27_inferno_scaleDef_orientMir_270.png"" alt=""map"" style=""width: 100%;""><img src=""images/map10_RdPu_scaleRev_orientDef_180.png"" alt=""map"" style=""width: 100%;""><img src=""images/map10_PuRd_scaleRev_orientDef_000.png"" alt=""map"" style=""width: 100%;""><img src=""images/map23_seismic_scaleDef_orientMir_270.png"" alt=""map"" style=""width: 100%;""><img src=""images/map12_YlGnBu_scaleDef_orientDef_090.png"" alt=""map"" style=""width: 100%;""><img src=""images/map23_coolwarm_scaleRev_orientMir_000.png"" alt=""map"" style=""width: 100%;""><img src=""images/map27_plasma_scaleDef_orientMir_090.png"" alt=""map"" style=""width: 100%;""><img src=""images/map13_PRGn_scaleRev_orientMir_000.png"" alt=""map"" style=""width: 100%;""><img src=""images/map26_vanimo_scaleDef_orientMir_090.png"" alt=""map"" style=""width: 100%;""><img src=""images/map05_Greens_scaleDef_orientDef_270.png"" alt=""map"" style=""width: 100%;""><img src=""images/map15_RdBu_scaleRev_orientMir_000.png"" alt=""map"" style=""width: 100%;""><img src=""images/map26_managua_scaleDef_orientDef_270.png"" alt=""map"" style=""width: 100%;""><img src=""images/map02_Greys_scaleDef_orientMir_090.png"" alt=""map"" style=""width: 100%;""><img src=""images/map13_BrBG_scaleDef_orientMir_090.png"" alt=""map"" style=""width: 100%;""><img src=""images/map10_BuPu_scaleDef_orientDef_270.png"" alt=""map"" style=""width: 100%;""><img src=""images/map10_PuBu_scaleDef_orientMir_270.png"" alt=""map"" style=""width: 100%;""><img src=""images/map12_YlGn_scaleDef_orientMir_270.png"" alt=""map"" style=""width: 100%;""><img src=""images/map15_RdYlGn_scaleDef_orientMir_270.png"" alt=""map"" style=""width: 100%;""><img src=""images/map12_BuGn_scaleDef_orientMir_090.png"" alt=""map"" style=""width: 100%;""><img src=""images/map02_cividis_scaleDef_orientDef_270.png"" alt=""map"" style=""width: 100%;""><img src=""images/map05_Oranges_scaleRev_orientMir_180.png"" alt=""map"" style=""width: 100%;""><img src=""images/map05_Purples_scaleRev_orientDef_000.png"" alt=""map"" style=""width: 100%;""><img src=""images/map02_magma_scaleRev_orientDef_180.png"" alt=""map"" style=""width: 100%;""><img src=""images/map07_YlOrRd_scaleDef_orientDef_270.png"" alt=""map"" style=""width: 100%;""><img src=""images/map26_gist_earth_scaleDef_orientMir_270.png"" alt=""map"" style=""width: 100%;""><img src=""images/map27_turbo_scaleDef_orientDef_090.png"" alt=""map"" style=""width: 100%;""><img src=""images/map07_YlOrBr_scaleRev_orientDef_180.png"" alt=""map"" style=""width: 100%;""><img src=""images/map07_Reds_scaleRev_orientDef_000.png"" alt=""map"" style=""width: 100%;""><img src=""images/map26_berlin_scaleDef_orientDef_090.png"" alt=""map"" style=""width: 100%;""><img src=""images/map15_RdGy_scaleRev_orientDef_180.png"" alt=""map"" style=""width: 100%;"">
                    </div>
                </div>

                    <!-- Clear floats -->
                    <div style=""clear: both;""></div>
                </div>
                            ","1","","0","true","","","","","","","","","","","","",""
"","","","","","html-button-response","7","59849","0.0-7.0","zpg331sldp","75","1366","<div style=""width:800px;""><p style=""text-align:left"">To move the slider, click and drag your cursor to the location of the scale where you would like to make your rating and then let go. When you let go of the slider, your response will be recorded and the next trial will begin. <br>
                    We are interested in your initial impressions of each map for the given concept, so please go with your first intuition. <br>
                    Before you begin the experiment, there will be four training trials for you to practice using the scale. <br>
                     When you are ready to start the training trials, please click ""Continue"".</p><br></div>","0","","","","","","","","","","","","","","","",""
"","","","","","html-slider-response","8","63593","0.0-8.0-0.0","zpg331sldp","75","NaN","<div style=""width:500px;"">
                                    <p style=""font-size:25px;"">Please move the slider all the way to the <br> right endpoint of the scale</p>

                                    </div>
                                </div>","200","","0","true","0","true","","","","","","","","","","",""
"","","","","","html-button-response","9","65032","0.0-8.0-1.0","zpg331sldp","75","937","<p align='center'><b>Good job!</b> Click on 'Continue' to proceed.</p>","0","","","","","","","","","","","","","","","",""
"","","","","","html-slider-response","10","66810","0.0-9.0-0.0","zpg331sldp","75","NaN","<div style=""width:500px;"">
                                    <p style=""font-size:25px;"">Please move the slider all the way to the <br> left endpoint of the scale</p>

                                    </div>
                                </div>","-196","","0","true","1","true","","","","","","","","","","",""
"","","","","","html-button-response","11","68332","0.0-9.0-1.0","zpg331sldp","75","1020","<p align='center'><b>Good job!</b> Click on 'Continue' to proceed.</p>","0","","","","","","","","","","","","","","","",""
"","","","","","html-slider-response","12","72861","0.0-10.0-0.0","zpg331sldp","75","NaN","<div style=""width:500px;"">
                                    <p style=""font-size:25px;"">Please move the slider halfway between the center and right endpoint of the scale</p>

                                    </div>
                                </div>","100","","0","true","2","true","","","","","","","","","","",""
"","","","","","html-button-response","13","74048","0.0-10.0-1.0","zpg331sldp","75","685","<p align='center'><b>Good job!</b> Click on 'Continue' to proceed.</p>","0","","","","","","","","","","","","","","","",""
"","","","","","html-slider-response","14","75727","0.0-11.0-0.0","zpg331sldp","75","NaN","<div style=""width:500px;"">
                                    <p style=""font-size:25px;"">Please move the slider halfway between the center and left endpoint of the scale</p>

                                    </div>
                                </div>","-91","","0","true","3","true","","","","","","","","","","",""
"","","","","","html-button-response","15","77032","0.0-11.0-1.0","zpg331sldp","75","802","<p align='center'><b>Good job!</b> Click on 'Continue' to proceed.</p>","0","","","","","","","","","","","","","","","",""
"","","","","","html-button-response","16","77882","0.0-12.0","zpg331sldp","75","850","<p>Great job! You've completed the practice trials. Now you will begin the main task.</p>","0","","","","","","","","","","","","","","","",""
"","","","","","html-button-response","17","79782","0.0-13.0","zpg331sldp","75","1899","<p>In this block of trials, you will be asked to rate how much you associate each map with:</p > <p style = 'font-size:150%; font-weight: bold'>sad</p><br></br>","0","","","","","","","","","","","","","","","",""
"","","","","","html-slider-response","18","87426","0.0-14.0","zpg331sldp","75","NaN","<div style=""width:500px;"">
                            <p style=""font-size:50px; font-weight:bold;""
                            >sad</p>
                            <div style=""width:240px; margin: auto;"">
                                <img src=""images/map13_PRGn_scaleRev_orientMir_000.png"" style= ""width:200px""alt=""img"">
                            </div>
                        </div>","-176","","0","","","","images/map13_PRGn_scaleRev_orientMir_000.png","sad","1","13","13","PRGn","orientMir","scaleRev","000","",""
"","","","","","html-slider-response","19","92293","0.0-15.0","zpg331sldp","75","NaN","<div style=""width:500px;"">
                            <p style=""font-size:50px; font-weight:bold;""
                            >sad</p>
                            <div style=""width:240px; margin: auto;"">
                                <img src=""images/map05_Purples_scaleRev_orientDef_000.png"" style= ""width:200px""alt=""img"">
                            </div>
                        </div>","52","","0","","","","images/map05_Purples_scaleRev_orientDef_000.png","sad","1","05","05","Purples","orientDef","scaleRev","000","",""
"","","","","","html-slider-response","20","95076","0.0-16.0","zpg331sldp","75","NaN","<div style=""width:500px;"">
                            <p style=""font-size:50px; font-weight:bold;""
                            >sad</p>
                            <div style=""width:240px; margin: auto;"">
                                <img src=""images/map07_YlOrBr_scaleRev_orientDef_180.png"" style= ""width:200px""alt=""img"">
                            </div>
                        </div>","-197","","0","","","","images/map07_YlOrBr_scaleRev_orientDef_180.png","sad","1","07","07","YlOrBr","orientDef","scaleRev","180","",""
"","","","","","html-slider-response","21","96543","0.0-17.0","zpg331sldp","75","NaN","<div style=""width:500px;"">
                            <p style=""font-size:50px; font-weight:bold;""
                            >sad</p>
                            <div style=""width:240px; margin: auto;"">
                                <img src=""images/map05_Oranges_scaleRev_orientMir_180.png"" style= ""width:200px""alt=""img"">
                            </div>
                        </div>","-197","","0","","","","images/map05_Oranges_scaleRev_orientMir_180.png","sad","1","05","05","Oranges","orientMir","scaleRev","180","",""
"","","","","","html-slider-response","22","98726","0.0-18.0","zpg331sldp","75","NaN","<div style=""width:500px;"">
                            <p style=""font-size:50px; font-weight:bold;""
                            >sad</p>
                            <div style=""width:240px; margin: auto;"">
                                <img src=""images/map27_turbo_scaleDef_orientDef_090.png"" style= ""width:200px""alt=""img"">
                            </div>
                        </div>","-195","","0","","","","images/map27_turbo_scaleDef_orientDef_090.png","sad","1","27","27","turbo","orientDef","scaleDef","090","",""
"","","","","","html-slider-response","23","100726","0.0-19.0","zpg331sldp","75","NaN","<div style=""width:500px;"">
                            <p style=""font-size:50px; font-weight:bold;""
                            >sad</p>
                            <div style=""width:240px; margin: auto;"">
                                <img src=""images/map10_GnBu_scaleRev_orientMir_180.png"" style= ""width:200px""alt=""img"">
                            </div>
                        </div>","129","","0","","","","images/map10_GnBu_scaleRev_orientMir_180.png","sad","1","10","10","GnBu","orientMir","scaleRev","180","",""
"","","","","","html-slider-response","24","104192","0.0-20.0","zpg331sldp","75","NaN","<div style=""width:500px;"">
                            <p style=""font-size:50px; font-weight:bold;""
                            >sad</p>
                            <div style=""width:240px; margin: auto;"">
                                <img src=""images/map07_YlOrRd_scaleRev_orientMir_000.png"" style= ""width:200px""alt=""img"">
                            </div>
                        </div>","-42","","0","","","","images/map07_YlOrRd_scaleRev_orientMir_000.png","sad","1","07","07","YlOrRd","orientMir","scaleRev","000","",""
"","","","","","html-slider-response","25","108459","0.0-21.0","zpg331sldp","75","NaN","<div style=""width:500px;"">
                            <p style=""font-size:50px; font-weight:bold;""
                            >sad</p>
                            <div style=""width:240px; margin: auto;"">
                                <img src=""images/map13_PRGn_scaleDef_orientDef_270.png"" style= ""width:200px""alt=""img"">
                            </div>
                        </div>","-62","","0","","","","images/map13_PRGn_scaleDef_orientDef_270.png","sad","1","13","13","PRGn","orientDef","scaleDef","270","",""
"","","","","","html-slider-response","26","110876","0.0-22.0","zpg331sldp","75","NaN","<div style=""width:500px;"">
                            <p style=""font-size:50px; font-weight:bold;""
                            >sad</p>
                            <div style=""width:240px; margin: auto;"">
                                <img src=""images/map07_OrRd_scaleDef_orientMir_090.png"" style= ""width:200px""alt=""img"">
                            </div>
                        </div>","-194","","0","","","","images/map07_OrRd_scaleDef_orientMir_090.png","sad","1","07","07","OrRd","orientMir","scaleDef","090","",""
"","","","","","html-slider-response","27","115509","0.0-23.0","zpg331sldp","75","NaN","<div style=""width:500px;"">
                            <p style=""font-size:50px; font-weight:bold;""
                            >sad</p>
                            <div style=""width:240px; margin: auto;"">
                                <img src=""images/map26_vanimo_scaleDef_orientMir_090.png"" style= ""width:200px""alt=""img"">
                            </div>
                        </div>","-195","","0","","","","images/map26_vanimo_scaleDef_orientMir_090.png","sad","1","26","26","vanimo","orientMir","scaleDef","090","",""
"","","","","","html-slider-response","28","120359","0.0-24.0","zpg331sldp","75","NaN","<div style=""width:500px;"">
                            <p style=""font-size:50px; font-weight:bold;""
                            >sad</p>
                            <div style=""width:240px; margin: auto;"">
                                <img src=""images/map27_viridis_scaleRev_orientMir_000.png"" style= ""width:200px""alt=""img"">
                            </div>
                        </div>","93","","0","","","","images/map27_viridis_scaleRev_orientMir_000.png","sad","1","27","27","viridis","orientMir","scaleRev","000","",""
"","","","","","html-slider-response","29","124226","0.0-25.0","zpg331sldp","75","NaN","<div style=""width:500px;"">
                            <p style=""font-size:50px; font-weight:bold;""
                            >sad</p>
                            <div style=""width:240px; margin: auto;"">
                                <img src=""images/map15_PuOr_scaleRev_orientDef_000.png"" style= ""width:200px""alt=""img"">
                            </div>
                        </div>","-53","","0","","","","images/map15_PuOr_scaleRev_orientDef_000.png","sad","1","15","15","PuOr","orientDef","scaleRev","000","",""
"","","","","","html-slider-response","30","126175","0.0-26.0","zpg331sldp","75","NaN","<div style=""width:500px;"">
                            <p style=""font-size:50px; font-weight:bold;""
                            >sad</p>
                            <div style=""width:240px; margin: auto;"">
                                <img src=""images/map15_RdBu_scaleRev_orientMir_000.png"" style= ""width:200px""alt=""img"">
                            </div>
                        </div>","-57","","0","","","","images/map15_RdBu_scaleRev_orientMir_000.png","sad","1","15","15","RdBu","orientMir","scaleRev","000","",""
"","","","","","html-slider-response","31","128093","0.0-27.0","zpg331sldp","75","NaN","<div style=""width:500px;"">
                            <p style=""font-size:50px; font-weight:bold;""
                            >sad</p>
                            <div style=""width:240px; margin: auto;"">
                                <img src=""images/map12_YlGn_scaleDef_orientMir_270.png"" style= ""width:200px""alt=""img"">
                            </div>
                        </div>","-102","","0","","","","images/map12_YlGn_scaleDef_orientMir_270.png","sad","1","12","12","YlGn","orientMir","scaleDef","270","",""
"","","","","","html-slider-response","32","131943","0.0-28.0","zpg331sldp","75","NaN","<div style=""width:500px;"">
                            <p style=""font-size:50px; font-weight:bold;""
                            >sad</p>
                            <div style=""width:240px; margin: auto;"">
                                <img src=""images/map10_PuBu_scaleDef_orientMir_270.png"" style= ""width:200px""alt=""img"">
                            </div>
                        </div>","198","","0","","","","images/map10_PuBu_scaleDef_orientMir_270.png","sad","1","10","10","PuBu","orientMir","scaleDef","270","",""
"","","","","","html-slider-response","33","136041","0.0-29.0","zpg331sldp","75","NaN","<div style=""width:500px;"">
                            <p style=""font-size:50px; font-weight:bold;""
                            >sad</p>
                            <div style=""width:240px; margin: auto;"">
                                <img src=""images/map23_bwr_scaleRev_orientMir_180.png"" style= ""width:200px""alt=""img"">
                            </div>
                        </div>","114","","0","","","","images/map23_bwr_scaleRev_orientMir_180.png","sad","1","23","23","bwr","orientMir","scaleRev","180","",""
"","","","","","html-slider-response","34","146542","0.0-30.0","zpg331sldp","75","NaN","<div style=""width:500px;"">
                            <p style=""font-size:50px; font-weight:bold;""
                            >sad</p>
                            <div style=""width:240px; margin: auto;"">
                                <img src=""images/map02_Purples_scaleDef_orientMir_270.png"" style= ""width:200px""alt=""img"">
                            </div>
                        </div>","114","","0","","","","images/map02_Purples_scaleDef_orientMir_270.png","sad","1","02","02","Purples","orientMir","scaleDef","270","",""
"","","","","","html-slider-response","35","149059","0.0-31.0","zpg331sldp","75","NaN","<div style=""width:500px;"">
                            <p style=""font-size:50px; font-weight:bold;""
                            >sad</p>
                            <div style=""width:240px; margin: auto;"">
                                <img src=""images/map15_RdBu_scaleDef_orientDef_270.png"" style= ""width:200px""alt=""img"">
                            </div>
                        </div>","41","","0","","","","images/map15_RdBu_scaleDef_orientDef_270.png","sad","1","15","15","RdBu","orientDef","scaleDef","270","",""
"","","","","","html-slider-response","36","151659","0.0-32.0","zpg331sldp","75","NaN","<div style=""width:500px;"">
                            <p style=""font-size:50px; font-weight:bold;""
                            >sad</p>
                            <div style=""width:240px; margin: auto;"">
                                <img src=""images/map23_Spectral_scaleRev_orientDef_180.png"" style= ""width:200px""alt=""img"">
                            </div>
                        </div>","21","","0","","","","images/map23_Spectral_scaleRev_orientDef_180.png","sad","1","23","23","Spectral","orientDef","scaleRev","180","",""
"","","","","","html-slider-response","37","157725","0.0-33.0","zpg331sldp","75","NaN","<div style=""width:500px;"">
                            <p style=""font-size:50px; font-weight:bold;""
                            >sad</p>
                            <div style=""width:240px; margin: auto;"">
                                <img src=""images/map10_RdPu_scaleRev_orientDef_180.png"" style= ""width:200px""alt=""img"">
                            </div>
                        </div>","17","","0","","","","images/map10_RdPu_scaleRev_orientDef_180.png","sad","1","10","10","RdPu","orientDef","scaleRev","180","",""
"","","","","","html-slider-response","38","160342","0.0-34.0","zpg331sldp","75","NaN","<div style=""width:500px;"">
                            <p style=""font-size:50px; font-weight:bold;""
                            >sad</p>
                            <div style=""width:240px; margin: auto;"">
                                <img src=""images/map12_BuGn_scaleRev_orientMir_180.png"" style= ""width:200px""alt=""img"">
                            </div>
                        </div>","-37","","0","","","","images/map12_BuGn_scaleRev_orientMir_180.png","sad","1","12","12","BuGn","orientMir","scaleRev","180","",""
"","","","","","html-slider-response","39","162792","0.0-35.0","zpg331sldp","75","NaN","<div style=""width:500px;"">
                            <p style=""font-size:50px; font-weight:bold;""
                            >sad</p>
                            <div style=""width:240px; margin: auto;"">
                                <img src=""images/map12_PuBu_scaleRev_orientDef_000.png"" style= ""width:200px""alt=""img"">
                            </div>
                        </div>","199","","0","","","","images/map12_PuBu_scaleRev_orientDef_000.png","sad","1","12","12","PuBu","orientDef","scaleRev","000","",""
"","","","","","html-slider-response","40","165091","0.0-36.0","zpg331sldp","75","NaN","<div style=""width:500px;"">
                            <p style=""font-size:50px; font-weight:bold;""
                            >sad</p>
                            <div style=""width:240px; margin: auto;"">
                                <img src=""images/map23_bwr_scaleDef_orientMir_090.png"" style= ""width:200px""alt=""img"">
                            </div>
                        </div>","146","","0","","","","images/map23_bwr_scaleDef_orientMir_090.png","sad","1","23","23","bwr","orientMir","scaleDef","090","",""
"","","","","","html-slider-response","41","167842","0.0-37.0","zpg331sldp","75","NaN","<div style=""width:500px;"">
                            <p style=""font-size:50px; font-weight:bold;""
                            >sad</p>
                            <div style=""width:240px; margin: auto;"">
                                <img src=""images/map15_RdGy_scaleDef_orientDef_090.png"" style= ""width:200px""alt=""img"">
                            </div>
                        </div>","50","","0","","","","images/map15_RdGy_scaleDef_orientDef_090.png","sad","1","15","15","RdGy","orientDef","scaleDef","090","",""
"","","","","","html-slider-response","42","171609","0.0-38.0","zpg331sldp","75","NaN","<div style=""width:500px;"">
                            <p style=""font-size:50px; font-weight:bold;""
                            >sad</p>
                            <div style=""width:240px; margin: auto;"">
                                <img src=""images/map05_Reds_scaleDef_orientMir_270.png"" style= ""width:200px""alt=""img"">
                            </div>
                        </div>","-98","","0","","","","images/map05_Reds_scaleDef_orientMir_270.png","sad","1","05","05","Reds","orientMir","scaleDef","270","",""
"","","","","","html-slider-response","43","173941","0.0-39.0","zpg331sldp","75","NaN","<div style=""width:500px;"">
                            <p style=""font-size:50px; font-weight:bold;""
                            >sad</p>
                            <div style=""width:240px; margin: auto;"">
                                <img src=""images/map27_plasma_scaleRev_orientMir_180.png"" style= ""width:200px""alt=""img"">
                            </div>
                        </div>","181","","0","","","","images/map27_plasma_scaleRev_orientMir_180.png","sad","1","27","27","plasma","orientMir","scaleRev","180","",""
"","","","","","html-slider-response","44","175390","0.0-40.0","zpg331sldp","75","NaN","<div style=""width:500px;"">
                            <p style=""font-size:50px; font-weight:bold;""
                            >sad</p>
                            <div style=""width:240px; margin: auto;"">
                                <img src=""images/map02_magma_scaleDef_orientDef_090.png"" style= ""width:200px""alt=""img"">
                            </div>
                        </div>","181","","0","","","","images/map02_magma_scaleDef_orientDef_090.png","sad","1","02","02","magma","orientDef","scaleDef","090","",""
"","","","","","html-slider-response","45","178442","0.0-41.0","zpg331sldp","75","NaN","<div style=""width:500px;"">
                            <p style=""font-size:50px; font-weight:bold;""
                            >sad</p>
                            <div style=""width:240px; margin: auto;"">
                                <img src=""images/map13_PuOr_scaleDef_orientMir_270.png"" style= ""width:200px""alt=""img"">
                            </div>
                        </div>","-110","","0","","","","images/map13_PuOr_scaleDef_orientMir_270.png","sad","1","13","13","PuOr","orientMir","scaleDef","270","",""
"","","","","","html-slider-response","46","180725","0.0-42.0","zpg331sldp","75","NaN","<div style=""width:500px;"">
                            <p style=""font-size:50px; font-weight:bold;""
                            >sad</p>
                            <div style=""width:240px; margin: auto;"">
                                <img src=""images/map23_RdYlGn_scaleRev_orientDef_000.png"" style= ""width:200px""alt=""img"">
                            </div>
                        </div>","-163","","0","","","","images/map23_RdYlGn_scaleRev_orientDef_000.png","sad","1","23","23","RdYlGn","orientDef","scaleRev","000","",""
"","","","","","html-slider-response","47","183708","0.0-43.0","zpg331sldp","75","NaN","<div style=""width:500px;"">
                            <p style=""font-size:50px; font-weight:bold;""
                            >sad</p>
                            <div style=""width:240px; margin: auto;"">
                                <img src=""images/map27_viridis_scaleDef_orientDef_270.png"" style= ""width:200px""alt=""img"">
                            </div>
                        </div>","175","","0","","","","images/map27_viridis_scaleDef_orientDef_270.png","sad","1","27","27","viridis","orientDef","scaleDef","270","",""
"","","","","","html-slider-response","48","185739","0.0-44.0","zpg331sldp","75","NaN","<div style=""width:500px;"">
                            <p style=""font-size:50px; font-weight:bold;""
                            >sad</p>
                            <div style=""width:240px; margin: auto;"">
                                <img src=""images/map12_YlGnBu_scaleDef_orientDef_090.png"" style= ""width:200px""alt=""img"">
                            </div>
                        </div>","156","","0","","","","images/map12_YlGnBu_scaleDef_orientDef_090.png","sad","1","12","12","YlGnBu","orientDef","scaleDef","090","",""
"","","","","","html-slider-response","49","188025","0.0-45.0","zpg331sldp","75","NaN","<div style=""width:500px;"">
                            <p style=""font-size:50px; font-weight:bold;""
                            >sad</p>
                            <div style=""width:240px; margin: auto;"">
                                <img src=""images/map26_gist_earth_scaleDef_orientMir_270.png"" style= ""width:200px""alt=""img"">
                            </div>
                        </div>","197","","0","","","","images/map26_gist_earth_scaleDef_orientMir_270.png","sad","1","26","26","gist","scaleDef","earth","orientMir","",""
"","","","","","html-slider-response","50","190409","0.0-46.0","zpg331sldp","75","NaN","<div style=""width:500px;"">
                            <p style=""font-size:50px; font-weight:bold;""
                            >sad</p>
                            <div style=""width:240px; margin: auto;"">
                                <img src=""images/map02_Greys_scaleDef_orientMir_090.png"" style= ""width:200px""alt=""img"">
                            </div>
                        </div>","199","","0","","","","images/map02_Greys_scaleDef_orientMir_090.png","sad","1","02","02","Greys","orientMir","scaleDef","090","",""
"","","","","","html-slider-response","51","191974","0.0-47.0","zpg331sldp","75","NaN","<div style=""width:500px;"">
                            <p style=""font-size:50px; font-weight:bold;""
                            >sad</p>
                            <div style=""width:240px; margin: auto;"">
                                <img src=""images/map10_BuPu_scaleDef_orientDef_270.png"" style= ""width:200px""alt=""img"">
                            </div>
                        </div>","199","","0","","","","images/map10_BuPu_scaleDef_orientDef_270.png","sad","1","10","10","BuPu","orientDef","scaleDef","270","",""
"","","","","","html-slider-response","52","195374","0.0-48.0","zpg331sldp","75","NaN","<div style=""width:500px;"">
                            <p style=""font-size:50px; font-weight:bold;""
                            >sad</p>
                            <div style=""width:240px; margin: auto;"">
                                <img src=""images/map26_berlin_scaleRev_orientDef_180.png"" style= ""width:200px""alt=""img"">
                            </div>
                        </div>","98","","0","","","","images/map26_berlin_scaleRev_orientDef_180.png","sad","1","26","26","berlin","orientDef","scaleRev","180","",""
"","","","","","html-slider-response","53","197373","0.0-49.0","zpg331sldp","75","NaN","<div style=""width:500px;"">
                            <p style=""font-size:50px; font-weight:bold;""
                            >sad</p>
                            <div style=""width:240px; margin: auto;"">
                                <img src=""images/map05_Greens_scaleDef_orientDef_270.png"" style= ""width:200px""alt=""img"">
                            </div>
                        </div>","-50","","0","","","","images/map05_Greens_scaleDef_orientDef_270.png","sad","1","05","05","Greens","orientDef","scaleDef","270","",""
"","","","","","html-slider-response","54","201989","0.0-50.0","zpg331sldp","75","NaN","<div style=""width:500px;"">
                            <p style=""font-size:50px; font-weight:bold;""
                            >sad</p>
                            <div style=""width:240px; margin: auto;"">
                                <img src=""images/map13_PiYG_scaleDef_orientDef_090.png"" style= ""width:200px""alt=""img"">
                            </div>
                        </div>","-194","","0","","","","images/map13_PiYG_scaleDef_orientDef_090.png","sad","1","13","13","PiYG","orientDef","scaleDef","090","",""
"","","","","","html-slider-response","55","204957","0.0-51.0","zpg331sldp","75","NaN","<div style=""width:500px;"">
                            <p style=""font-size:50px; font-weight:bold;""
                            >sad</p>
                            <div style=""width:240px; margin: auto;"">
                                <img src=""images/map02_cividis_scaleDef_orientDef_270.png"" style= ""width:200px""alt=""img"">
                            </div>
                        </div>","199","","0","","","","images/map02_cividis_scaleDef_orientDef_270.png","sad","1","02","02","cividis","orientDef","scaleDef","270","",""
"","","","","","html-slider-response","56","206991","0.0-52.0","zpg331sldp","75","NaN","<div style=""width:500px;"">
                            <p style=""font-size:50px; font-weight:bold;""
                            >sad</p>
                            <div style=""width:240px; margin: auto;"">
                                <img src=""images/map12_PuBuGn_scaleDef_orientDef_270.png"" style= ""width:200px""alt=""img"">
                            </div>
                        </div>","173","","0","","","","images/map12_PuBuGn_scaleDef_orientDef_270.png","sad","1","12","12","PuBuGn","orientDef","scaleDef","270","",""
"","","","","","html-slider-response","57","209023","0.0-53.0","zpg331sldp","75","NaN","<div style=""width:500px;"">
                            <p style=""font-size:50px; font-weight:bold;""
                            >sad</p>
                            <div style=""width:240px; margin: auto;"">
                                <img src=""images/map07_OrRd_scaleRev_orientMir_180.png"" style= ""width:200px""alt=""img"">
                            </div>
                        </div>","-186","","0","","","","images/map07_OrRd_scaleRev_orientMir_180.png","sad","1","07","07","OrRd","orientMir","scaleRev","180","",""
"","","","","","html-button-response","58","210963","0.0-54.0","zpg331sldp","75","1438","<p>You are doing great!<br></br> You are halway done with the current block. When you are ready to continue, click the 'Continue' button.</p>","0","","","","","","","","","","","","","","","",""
"","","","","","html-slider-response","59","215274","0.0-55.0","zpg331sldp","75","NaN","<div style=""width:500px;"">
                            <p style=""font-size:50px; font-weight:bold;""
                            >sad</p>
                            <div style=""width:240px; margin: auto;"">
                                <img src=""images/map15_RdYlGn_scaleDef_orientMir_270.png"" style= ""width:200px""alt=""img"">
                            </div>
                        </div>","-42","","0","","","","images/map15_RdYlGn_scaleDef_orientMir_270.png","sad","1","15","15","RdYlGn","orientMir","scaleDef","270","",""
"","","","","","html-slider-response","60","217157","0.0-56.0","zpg331sldp","75","NaN","<div style=""width:500px;"">
                            <p style=""font-size:50px; font-weight:bold;""
                            >sad</p>
                            <div style=""width:240px; margin: auto;"">
                                <img src=""images/map23_coolwarm_scaleRev_orientMir_000.png"" style= ""width:200px""alt=""img"">
                            </div>
                        </div>","41","","0","","","","images/map23_coolwarm_scaleRev_orientMir_000.png","sad","1","23","23","coolwarm","orientMir","scaleRev","000","",""
"","","","","","html-slider-response","61","219090","0.0-57.0","zpg331sldp","75","NaN","<div style=""width:500px;"">
                            <p style=""font-size:50px; font-weight:bold;""
                            >sad</p>
                            <div style=""width:240px; margin: auto;"">
                                <img src=""images/map12_PuBuGn_scaleRev_orientMir_000.png"" style= ""width:200px""alt=""img"">
                            </div>
                        </div>","199","","0","","","","images/map12_PuBuGn_scaleRev_orientMir_000.png","sad","1","12","12","PuBuGn","orientMir","scaleRev","000","",""
"","","","","","html-slider-response","62","221041","0.0-58.0","zpg331sldp","75","NaN","<div style=""width:500px;"">
                            <p style=""font-size:50px; font-weight:bold;""
                            >sad</p>
                            <div style=""width:240px; margin: auto;"">
                                <img src=""images/map10_GnBu_scaleDef_orientMir_090.png"" style= ""width:200px""alt=""img"">
                            </div>
                        </div>","200","","0","","","","images/map10_GnBu_scaleDef_orientMir_090.png","sad","1","10","10","GnBu","orientMir","scaleDef","090","",""
"","","","","","html-slider-response","63","223808","0.0-59.0","zpg331sldp","75","NaN","<div style=""width:500px;"">
                            <p style=""font-size:50px; font-weight:bold;""
                            >sad</p>
                            <div style=""width:240px; margin: auto;"">
                                <img src=""images/map02_Greys_scaleRev_orientMir_180.png"" style= ""width:200px""alt=""img"">
                            </div>
                        </div>","200","","0","","","","images/map02_Greys_scaleRev_orientMir_180.png","sad","1","02","02","Greys","orientMir","scaleRev","180","",""
"","","","","","html-slider-response","64","227706","0.0-60.0","zpg331sldp","75","NaN","<div style=""width:500px;"">
                            <p style=""font-size:50px; font-weight:bold;""
                            >sad</p>
                            <div style=""width:240px; margin: auto;"">
                                <img src=""images/map23_Spectral_scaleDef_orientDef_090.png"" style= ""width:200px""alt=""img"">
                            </div>
                        </div>","-38","","0","","","","images/map23_Spectral_scaleDef_orientDef_090.png","sad","1","23","23","Spectral","orientDef","scaleDef","090","",""
"","","","","","html-slider-response","65","231590","0.0-61.0","zpg331sldp","75","NaN","<div style=""width:500px;"">
                            <p style=""font-size:50px; font-weight:bold;""
                            >sad</p>
                            <div style=""width:240px; margin: auto;"">
                                <img src=""images/map23_coolwarm_scaleDef_orientDef_270.png"" style= ""width:200px""alt=""img"">
                            </div>
                        </div>","26","","0","","","","images/map23_coolwarm_scaleDef_orientDef_270.png","sad","1","23","23","coolwarm","orientDef","scaleDef","270","",""
"","","","","","html-slider-response","66","233590","0.0-62.0","zpg331sldp","75","NaN","<div style=""width:500px;"">
                            <p style=""font-size:50px; font-weight:bold;""
                            >sad</p>
                            <div style=""width:240px; margin: auto;"">
                                <img src=""images/map15_RdGy_scaleRev_orientDef_180.png"" style= ""width:200px""alt=""img"">
                            </div>
                        </div>","50","","0","","","","images/map15_RdGy_scaleRev_orientDef_180.png","sad","1","15","15","RdGy","orientDef","scaleRev","180","",""
"","","","","","html-slider-response","67","236574","0.0-63.0","zpg331sldp","75","NaN","<div style=""width:500px;"">
                            <p style=""font-size:50px; font-weight:bold;""
                            >sad</p>
                            <div style=""width:240px; margin: auto;"">
                                <img src=""images/map15_RdYlBu_scaleRev_orientMir_180.png"" style= ""width:200px""alt=""img"">
                            </div>
                        </div>","-39","","0","","","","images/map15_RdYlBu_scaleRev_orientMir_180.png","sad","1","15","15","RdYlBu","orientMir","scaleRev","180","",""
"","","","","","html-slider-response","68","238723","0.0-64.0","zpg331sldp","75","NaN","<div style=""width:500px;"">
                            <p style=""font-size:50px; font-weight:bold;""
                            >sad</p>
                            <div style=""width:240px; margin: auto;"">
                                <img src=""images/map26_seismic_scaleRev_orientDef_000.png"" style= ""width:200px""alt=""img"">
                            </div>
                        </div>","86","","0","","","","images/map26_seismic_scaleRev_orientDef_000.png","sad","1","26","26","seismic","orientDef","scaleRev","000","",""
"","","","","","html-slider-response","69","241040","0.0-65.0","zpg331sldp","75","NaN","<div style=""width:500px;"">
                            <p style=""font-size:50px; font-weight:bold;""
                            >sad</p>
                            <div style=""width:240px; margin: auto;"">
                                <img src=""images/map12_YlGnBu_scaleRev_orientDef_180.png"" style= ""width:200px""alt=""img"">
                            </div>
                        </div>","181","","0","","","","images/map12_YlGnBu_scaleRev_orientDef_180.png","sad","1","12","12","YlGnBu","orientDef","scaleRev","180","",""
"","","","","","html-slider-response","70","245406","0.0-66.0","zpg331sldp","75","NaN","<div style=""width:500px;"">
                            <p style=""font-size:50px; font-weight:bold;""
                            >sad</p>
                            <div style=""width:240px; margin: auto;"">
                                <img src=""images/map26_vanimo_scaleRev_orientMir_180.png"" style= ""width:200px""alt=""img"">
                            </div>
                        </div>","-186","","0","","","","images/map26_vanimo_scaleRev_orientMir_180.png","sad","1","26","26","vanimo","orientMir","scaleRev","180","",""
"","","","","","html-slider-response","71","247057","0.0-67.0","zpg331sldp","75","NaN","<div style=""width:500px;"">
                            <p style=""font-size:50px; font-weight:bold;""
                            >sad</p>
                            <div style=""width:240px; margin: auto;"">
                                <img src=""images/map15_RdYlBu_scaleDef_orientMir_090.png"" style= ""width:200px""alt=""img"">
                            </div>
                        </div>","-34","","0","","","","images/map15_RdYlBu_scaleDef_orientMir_090.png","sad","1","15","15","RdYlBu","orientMir","scaleDef","090","",""
"","","","","","html-slider-response","72","248523","0.0-68.0","zpg331sldp","75","NaN","<div style=""width:500px;"">
                            <p style=""font-size:50px; font-weight:bold;""
                            >sad</p>
                            <div style=""width:240px; margin: auto;"">
                                <img src=""images/map05_Greens_scaleRev_orientMir_000.png"" style= ""width:200px""alt=""img"">
                            </div>
                        </div>","-80","","0","","","","images/map05_Greens_scaleRev_orientMir_000.png","sad","1","05","05","Greens","orientMir","scaleRev","000","",""
"","","","","","html-slider-response","73","250356","0.0-69.0","zpg331sldp","75","NaN","<div style=""width:500px;"">
                            <p style=""font-size:50px; font-weight:bold;""
                            >sad</p>
                            <div style=""width:240px; margin: auto;"">
                                <img src=""images/map10_PuRd_scaleRev_orientDef_000.png"" style= ""width:200px""alt=""img"">
                            </div>
                        </div>","-170","","0","","","","images/map10_PuRd_scaleRev_orientDef_000.png","sad","1","10","10","PuRd","orientDef","scaleRev","000","",""
"","","","","","html-slider-response","74","252455","0.0-70.0","zpg331sldp","75","NaN","<div style=""width:500px;"">
                            <p style=""font-size:50px; font-weight:bold;""
                            >sad</p>
                            <div style=""width:240px; margin: auto;"">
                                <img src=""images/map07_YlOrRd_scaleDef_orientDef_270.png"" style= ""width:200px""alt=""img"">
                            </div>
                        </div>","-189","","0","","","","images/map07_YlOrRd_scaleDef_orientDef_270.png","sad","1","07","07","YlOrRd","orientDef","scaleDef","270","",""
"","","","","","html-slider-response","75","254523","0.0-71.0","zpg331sldp","75","NaN","<div style=""width:500px;"">
                            <p style=""font-size:50px; font-weight:bold;""
                            >sad</p>
                            <div style=""width:240px; margin: auto;"">
                                <img src=""images/map13_PiYG_scaleRev_orientDef_180.png"" style= ""width:200px""alt=""img"">
                            </div>
                        </div>","-188","","0","","","","images/map13_PiYG_scaleRev_orientDef_180.png","sad","1","13","13","PiYG","orientDef","scaleRev","180","",""
"","","","","","html-slider-response","76","255940","0.0-72.0","zpg331sldp","75","NaN","<div style=""width:500px;"">
                            <p style=""font-size:50px; font-weight:bold;""
                            >sad</p>
                            <div style=""width:240px; margin: auto;"">
                                <img src=""images/map13_YlGn_scaleRev_orientDef_000.png"" style= ""width:200px""alt=""img"">
                            </div>
                        </div>","-191","","0","","","","images/map13_YlGn_scaleRev_orientDef_000.png","sad","1","13","13","YlGn","orientDef","scaleRev","000","",""
"","","","","","html-slider-response","77","259107","0.0-73.0","zpg331sldp","75","NaN","<div style=""width:500px;"">
                            <p style=""font-size:50px; font-weight:bold;""
                            >sad</p>
                            <div style=""width:240px; margin: auto;"">
                                <img src=""images/map23_seismic_scaleDef_orientMir_270.png"" style= ""width:200px""alt=""img"">
                            </div>
                        </div>","-100","","0","","","","images/map23_seismic_scaleDef_orientMir_270.png","sad","1","23","23","seismic","orientMir","scaleDef","270","",""
"","","","","","html-slider-response","78","262723","0.0-74.0","zpg331sldp","75","NaN","<div style=""width:500px;"">
                            <p style=""font-size:50px; font-weight:bold;""
                            >sad</p>
                            <div style=""width:240px; margin: auto;"">
                                <img src=""images/map02_cividis_scaleRev_orientMir_000.png"" style= ""width:200px""alt=""img"">
                            </div>
                        </div>","171","","0","","","","images/map02_cividis_scaleRev_orientMir_000.png","sad","1","02","02","cividis","orientMir","scaleRev","000","",""
"","","","","","html-slider-response","79","264323","0.0-75.0","zpg331sldp","75","NaN","<div style=""width:500px;"">
                            <p style=""font-size:50px; font-weight:bold;""
                            >sad</p>
                            <div style=""width:240px; margin: auto;"">
                                <img src=""images/map26_berlin_scaleDef_orientDef_090.png"" style= ""width:200px""alt=""img"">
                            </div>
                        </div>","183","","0","","","","images/map26_berlin_scaleDef_orientDef_090.png","sad","1","26","26","berlin","orientDef","scaleDef","090","",""
"","","","","","html-slider-response","80","266455","0.0-76.0","zpg331sldp","75","NaN","<div style=""width:500px;"">
                            <p style=""font-size:50px; font-weight:bold;""
                            >sad</p>
                            <div style=""width:240px; margin: auto;"">
                                <img src=""images/map07_PuRd_scaleDef_orientMir_270.png"" style= ""width:200px""alt=""img"">
                            </div>
                        </div>","-182","","0","","","","images/map07_PuRd_scaleDef_orientMir_270.png","sad","1","07","07","PuRd","orientMir","scaleDef","270","",""
"","","","","","html-slider-response","81","270289","0.0-77.0","zpg331sldp","75","NaN","<div style=""width:500px;"">
                            <p style=""font-size:50px; font-weight:bold;""
                            >sad</p>
                            <div style=""width:240px; margin: auto;"">
                                <img src=""images/map26_managua_scaleDef_orientDef_270.png"" style= ""width:200px""alt=""img"">
                            </div>
                        </div>","-94","","0","","","","images/map26_managua_scaleDef_orientDef_270.png","sad","1","26","26","managua","orientDef","scaleDef","270","",""
"","","","","","html-slider-response","82","275039","0.0-78.0","zpg331sldp","75","NaN","<div style=""width:500px;"">
                            <p style=""font-size:50px; font-weight:bold;""
                            >sad</p>
                            <div style=""width:240px; margin: auto;"">
                                <img src=""images/map27_gist_earth_scaleRev_orientDef_000.png"" style= ""width:200px""alt=""img"">
                            </div>
                        </div>","70","","0","","","","images/map27_gist_earth_scaleRev_orientDef_000.png","sad","1","27","27","gist","scaleRev","earth","orientDef","",""
"","","","","","html-slider-response","83","277590","0.0-79.0","zpg331sldp","75","NaN","<div style=""width:500px;"">
                            <p style=""font-size:50px; font-weight:bold;""
                            >sad</p>
                            <div style=""width:240px; margin: auto;"">
                                <img src=""images/map27_inferno_scaleDef_orientMir_270.png"" style= ""width:200px""alt=""img"">
                            </div>
                        </div>","16","","0","","","","images/map27_inferno_scaleDef_orientMir_270.png","sad","1","27","27","inferno","orientMir","scaleDef","270","",""
"","","","","","html-slider-response","84","280473","0.0-80.0","zpg331sldp","75","NaN","<div style=""width:500px;"">
                            <p style=""font-size:50px; font-weight:bold;""
                            >sad</p>
                            <div style=""width:240px; margin: auto;"">
                                <img src=""images/map07_Reds_scaleRev_orientDef_000.png"" style= ""width:200px""alt=""img"">
                            </div>
                        </div>","-178","","0","","","","images/map07_Reds_scaleRev_orientDef_000.png","sad","1","07","07","Reds","orientDef","scaleRev","000","",""
"","","","","","html-slider-response","85","282306","0.0-81.0","zpg331sldp","75","NaN","<div style=""width:500px;"">
                            <p style=""font-size:50px; font-weight:bold;""
                            >sad</p>
                            <div style=""width:240px; margin: auto;"">
                                <img src=""images/map07_YlOrBr_scaleDef_orientDef_090.png"" style= ""width:200px""alt=""img"">
                            </div>
                        </div>","-186","","0","","","","images/map07_YlOrBr_scaleDef_orientDef_090.png","sad","1","07","07","YlOrBr","orientDef","scaleDef","090","",""
"","","","","","html-slider-response","86","283639","0.0-82.0","zpg331sldp","75","NaN","<div style=""width:500px;"">
                            <p style=""font-size:50px; font-weight:bold;""
                            >sad</p>
                            <div style=""width:240px; margin: auto;"">
                                <img src=""images/map05_Oranges_scaleDef_orientMir_090.png"" style= ""width:200px""alt=""img"">
                            </div>
                        </div>","-186","","0","","","","images/map05_Oranges_scaleDef_orientMir_090.png","sad","1","05","05","Oranges","orientMir","scaleDef","090","",""
"","","","","","html-slider-response","87","285456","0.0-83.0","zpg331sldp","75","NaN","<div style=""width:500px;"">
                            <p style=""font-size:50px; font-weight:bold;""
                            >sad</p>
                            <div style=""width:240px; margin: auto;"">
                                <img src=""images/map27_turbo_scaleRev_orientDef_180.png"" style= ""width:200px""alt=""img"">
                            </div>
                        </div>","-194","","0","","","","images/map27_turbo_scaleRev_orientDef_180.png","sad","1","27","27","turbo","orientDef","scaleRev","180","",""
"","","","","","html-slider-response","88","289356","0.0-84.0","zpg331sldp","75","NaN","<div style=""width:500px;"">
                            <p style=""font-size:50px; font-weight:bold;""
                            >sad</p>
                            <div style=""width:240px; margin: auto;"">
                                <img src=""images/map10_RdPu_scaleDef_orientDef_090.png"" style= ""width:200px""alt=""img"">
                            </div>
                        </div>","-198","","0","","","","images/map10_RdPu_scaleDef_orientDef_090.png","sad","1","10","10","RdPu","orientDef","scaleDef","090","",""
"","","","","","html-slider-response","89","291323","0.0-85.0","zpg331sldp","75","NaN","<div style=""width:500px;"">
                            <p style=""font-size:50px; font-weight:bold;""
                            >sad</p>
                            <div style=""width:240px; margin: auto;"">
                                <img src=""images/map10_BuPu_scaleRev_orientMir_000.png"" style= ""width:200px""alt=""img"">
                            </div>
                        </div>","174","","0","","","","images/map10_BuPu_scaleRev_orientMir_000.png","sad","1","10","10","BuPu","orientMir","scaleRev","000","",""
"","","","","","html-slider-response","90","303587","0.0-86.0","zpg331sldp","75","NaN","<div style=""width:500px;"">
                            <p style=""font-size:50px; font-weight:bold;""
                            >sad</p>
                            <div style=""width:240px; margin: auto;"">
                                <img src=""images/map12_BuGn_scaleDef_orientMir_090.png"" style= ""width:200px""alt=""img"">
                            </div>
                        </div>","-89","","0","","","","images/map12_BuGn_scaleDef_orientMir_090.png","sad","1","12","12","BuGn","orientMir","scaleDef","090","",""
"","","","","","html-slider-response","91","308004","0.0-87.0","zpg331sldp","75","NaN","<div style=""width:500px;"">
                            <p style=""font-size:50px; font-weight:bold;""
                            >sad</p>
                            <div style=""width:240px; margin: auto;"">
                                <img src=""images/map13_BrBG_scaleDef_orientMir_090.png"" style= ""width:200px""alt=""img"">
                            </div>
                        </div>","46","","0","","","","images/map13_BrBG_scaleDef_orientMir_090.png","sad","1","13","13","BrBG","orientMir","scaleDef","090","",""
"","","","","","html-slider-response","92","310037","0.0-88.0","zpg331sldp","75","NaN","<div style=""width:500px;"">
                            <p style=""font-size:50px; font-weight:bold;""
                            >sad</p>
                            <div style=""width:240px; margin: auto;"">
                                <img src=""images/map02_magma_scaleRev_orientDef_180.png"" style= ""width:200px""alt=""img"">
                            </div>
                        </div>","-60","","0","","","","images/map02_magma_scaleRev_orientDef_180.png","sad","1","02","02","magma","orientDef","scaleRev","180","",""
"","","","","","html-slider-response","93","312704","0.0-89.0","zpg331sldp","75","NaN","<div style=""width:500px;"">
                            <p style=""font-size:50px; font-weight:bold;""
                            >sad</p>
                            <div style=""width:240px; margin: auto;"">
                                <img src=""images/map13_BrBG_scaleRev_orientMir_180.png"" style= ""width:200px""alt=""img"">
                            </div>
                        </div>","102","","0","","","","images/map13_BrBG_scaleRev_orientMir_180.png","sad","1","13","13","BrBG","orientMir","scaleRev","180","",""
"","","","","","html-slider-response","94","314504","0.0-90.0","zpg331sldp","75","NaN","<div style=""width:500px;"">
                            <p style=""font-size:50px; font-weight:bold;""
                            >sad</p>
                            <div style=""width:240px; margin: auto;"">
                                <img src=""images/map02_inferno_scaleRev_orientDef_000.png"" style= ""width:200px""alt=""img"">
                            </div>
                        </div>","61","","0","","","","images/map02_inferno_scaleRev_orientDef_000.png","sad","1","02","02","inferno","orientDef","scaleRev","000","",""
"","","","","","html-slider-response","95","316655","0.0-91.0","zpg331sldp","75","NaN","<div style=""width:500px;"">
                            <p style=""font-size:50px; font-weight:bold;""
                            >sad</p>
                            <div style=""width:240px; margin: auto;"">
                                <img src=""images/map27_plasma_scaleDef_orientMir_090.png"" style= ""width:200px""alt=""img"">
                            </div>
                        </div>","-40","","0","","","","images/map27_plasma_scaleDef_orientMir_090.png","sad","1","27","27","plasma","orientMir","scaleDef","090","",""
"","","","","","html-slider-response","96","318655","0.0-92.0","zpg331sldp","75","NaN","<div style=""width:500px;"">
                            <p style=""font-size:50px; font-weight:bold;""
                            >sad</p>
                            <div style=""width:240px; margin: auto;"">
                                <img src=""images/map05_Blues_scaleRev_orientDef_180.png"" style= ""width:200px""alt=""img"">
                            </div>
                        </div>","178","","0","","","","images/map05_Blues_scaleRev_orientDef_180.png","sad","1","05","05","Blues","orientDef","scaleRev","180","",""
"","","","","","html-slider-response","97","320139","0.0-93.0","zpg331sldp","75","NaN","<div style=""width:500px;"">
                            <p style=""font-size:50px; font-weight:bold;""
                            >sad</p>
                            <div style=""width:240px; margin: auto;"">
                                <img src=""images/map05_Blues_scaleDef_orientDef_090.png"" style= ""width:200px""alt=""img"">
                            </div>
                        </div>","185","","0","","","","images/map05_Blues_scaleDef_orientDef_090.png","sad","1","05","05","Blues","orientDef","scaleDef","090","",""
"","","","","","html-slider-response","98","324089","0.0-94.0","zpg331sldp","75","NaN","<div style=""width:500px;"">
                            <p style=""font-size:50px; font-weight:bold;""
                            >sad</p>
                            <div style=""width:240px; margin: auto;"">
                                <img src=""images/map26_managua_scaleRev_orientMir_000.png"" style= ""width:200px""alt=""img"">
                            </div>
                        </div>","199","","0","","","","images/map26_managua_scaleRev_orientMir_000.png","sad","1","26","26","managua","orientMir","scaleRev","000","",""
"","","","","","html-button-response","99","328594","0.0-95.0","zpg331sldp","75","4003","<p>Great Job! You've finished block 1.<br></br> You have 4 block(s) left to go.<br></br></p>","0","","","","","","","","","","","","","","","",""
"","","","","","html-button-response","100","335694","0.0-96.0","zpg331sldp","75","7099","<p>In this block of trials, you will be asked to rate how much you associate each map with:</p > <p style = 'font-size:150%; font-weight: bold'>fearful</p><br></br>","0","","","","","","","","","","","","","","","",""
"","","","","","html-slider-response","101","337571","0.0-97.0","zpg331sldp","75","NaN","<div style=""width:500px;"">
                            <p style=""font-size:50px; font-weight:bold;""
                            >fearful</p>
                            <div style=""width:240px; margin: auto;"">
                                <img src=""images/map12_PuBuGn_scaleRev_orientMir_000.png"" style= ""width:200px""alt=""img"">
                            </div>
                        </div>","-168","","0","","","","images/map12_PuBuGn_scaleRev_orientMir_000.png","fearful","1","12","12","PuBuGn","orientMir","scaleRev","000","",""
"","","","","","html-slider-response","102","340005","0.0-98.0","zpg331sldp","75","NaN","<div style=""width:500px;"">
                            <p style=""font-size:50px; font-weight:bold;""
                            >fearful</p>
                            <div style=""width:240px; margin: auto;"">
                                <img src=""images/map02_magma_scaleRev_orientDef_180.png"" style= ""width:200px""alt=""img"">
                            </div>
                        </div>","160","","0","","","","images/map02_magma_scaleRev_orientDef_180.png","fearful","1","02","02","magma","orientDef","scaleRev","180","",""
"","","","","","html-slider-response","103","341822","0.0-99.0","zpg331sldp","75","NaN","<div style=""width:500px;"">
                            <p style=""font-size:50px; font-weight:bold;""
                            >fearful</p>
                            <div style=""width:240px; margin: auto;"">
                                <img src=""images/map10_BuPu_scaleDef_orientDef_270.png"" style= ""width:200px""alt=""img"">
                            </div>
                        </div>","-81","","0","","","","images/map10_BuPu_scaleDef_orientDef_270.png","fearful","1","10","10","BuPu","orientDef","scaleDef","270","",""
"","","","","","html-slider-response","104","344038","0.0-100.0","zpg331sldp","75","NaN","<div style=""width:500px;"">
                            <p style=""font-size:50px; font-weight:bold;""
                            >fearful</p>
                            <div style=""width:240px; margin: auto;"">
                                <img src=""images/map02_cividis_scaleRev_orientMir_000.png"" style= ""width:200px""alt=""img"">
                            </div>
                        </div>","-26","","0","","","","images/map02_cividis_scaleRev_orientMir_000.png","fearful","1","02","02","cividis","orientMir","scaleRev","000","",""
"","","","","","html-slider-response","105","345988","0.0-101.0","zpg331sldp","75","NaN","<div style=""width:500px;"">
                            <p style=""font-size:50px; font-weight:bold;""
                            >fearful</p>
                            <div style=""width:240px; margin: auto;"">
                                <img src=""images/map26_managua_scaleDef_orientDef_270.png"" style= ""width:200px""alt=""img"">
                            </div>
                        </div>","51","","0","","","","images/map26_managua_scaleDef_orientDef_270.png","fearful","1","26","26","managua","orientDef","scaleDef","270","",""
"","","","","","html-slider-response","106","348405","0.0-102.0","zpg331sldp","75","NaN","<div style=""width:500px;"">
                            <p style=""font-size:50px; font-weight:bold;""
                            >fearful</p>
                            <div style=""width:240px; margin: auto;"">
                                <img src=""images/map12_BuGn_scaleDef_orientMir_090.png"" style= ""width:200px""alt=""img"">
                            </div>
                        </div>","-110","","0","","","","images/map12_BuGn_scaleDef_orientMir_090.png","fearful","1","12","12","BuGn","orientMir","scaleDef","090","",""
"","","","","","html-slider-response","107","351038","0.0-103.0","zpg331sldp","75","NaN","<div style=""width:500px;"">
                            <p style=""font-size:50px; font-weight:bold;""
                            >fearful</p>
                            <div style=""width:240px; margin: auto;"">
                                <img src=""images/map23_bwr_scaleDef_orientMir_090.png"" style= ""width:200px""alt=""img"">
                            </div>
                        </div>","21","","0","","","","images/map23_bwr_scaleDef_orientMir_090.png","fearful","1","23","23","bwr","orientMir","scaleDef","090","",""
"","","","","","html-slider-response","108","358289","0.0-104.0","zpg331sldp","75","NaN","<div style=""width:500px;"">
                            <p style=""font-size:50px; font-weight:bold;""
                            >fearful</p>
                            <div style=""width:240px; margin: auto;"">
                                <img src=""images/map10_RdPu_scaleDef_orientDef_090.png"" style= ""width:200px""alt=""img"">
                            </div>
                        </div>","106","","0","","","","images/map10_RdPu_scaleDef_orientDef_090.png","fearful","1","10","10","RdPu","orientDef","scaleDef","090","",""
"","","","","","html-slider-response","109","359805","0.0-105.0","zpg331sldp","75","NaN","<div style=""width:500px;"">
                            <p style=""font-size:50px; font-weight:bold;""
                            >fearful</p>
                            <div style=""width:240px; margin: auto;"">
                                <img src=""images/map07_OrRd_scaleDef_orientMir_090.png"" style= ""width:200px""alt=""img"">
                            </div>
                        </div>","130","","0","","","","images/map07_OrRd_scaleDef_orientMir_090.png","fearful","1","07","07","OrRd","orientMir","scaleDef","090","",""
"","","","","","html-slider-response","110","361405","0.0-106.0","zpg331sldp","75","NaN","<div style=""width:500px;"">
                            <p style=""font-size:50px; font-weight:bold;""
                            >fearful</p>
                            <div style=""width:240px; margin: auto;"">
                                <img src=""images/map05_Reds_scaleDef_orientMir_270.png"" style= ""width:200px""alt=""img"">
                            </div>
                        </div>","149","","0","","","","images/map05_Reds_scaleDef_orientMir_270.png","fearful","1","05","05","Reds","orientMir","scaleDef","270","",""
"","","","","","html-slider-response","111","364288","0.0-107.0","zpg331sldp","75","NaN","<div style=""width:500px;"">
                            <p style=""font-size:50px; font-weight:bold;""
                            >fearful</p>
                            <div style=""width:240px; margin: auto;"">
                                <img src=""images/map12_YlGnBu_scaleDef_orientDef_090.png"" style= ""width:200px""alt=""img"">
                            </div>
                        </div>","-59","","0","","","","images/map12_YlGnBu_scaleDef_orientDef_090.png","fearful","1","12","12","YlGnBu","orientDef","scaleDef","090","",""
"","","","","","html-slider-response","112","366988","0.0-108.0","zpg331sldp","75","NaN","<div style=""width:500px;"">
                            <p style=""font-size:50px; font-weight:bold;""
                            >fearful</p>
                            <div style=""width:240px; margin: auto;"">
                                <img src=""images/map27_viridis_scaleDef_orientDef_270.png"" style= ""width:200px""alt=""img"">
                            </div>
                        </div>","-88","","0","","","","images/map27_viridis_scaleDef_orientDef_270.png","fearful","1","27","27","viridis","orientDef","scaleDef","270","",""
"","","","","","html-slider-response","113","369604","0.0-109.0","zpg331sldp","75","NaN","<div style=""width:500px;"">
                            <p style=""font-size:50px; font-weight:bold;""
                            >fearful</p>
                            <div style=""width:240px; margin: auto;"">
                                <img src=""images/map15_RdYlGn_scaleDef_orientMir_270.png"" style= ""width:200px""alt=""img"">
                            </div>
                        </div>","2","","0","","","","images/map15_RdYlGn_scaleDef_orientMir_270.png","fearful","1","15","15","RdYlGn","orientMir","scaleDef","270","",""
"","","","","","html-slider-response","114","371155","0.0-110.0","zpg331sldp","75","NaN","<div style=""width:500px;"">
                            <p style=""font-size:50px; font-weight:bold;""
                            >fearful</p>
                            <div style=""width:240px; margin: auto;"">
                                <img src=""images/map12_BuGn_scaleRev_orientMir_180.png"" style= ""width:200px""alt=""img"">
                            </div>
                        </div>","-39","","0","","","","images/map12_BuGn_scaleRev_orientMir_180.png","fearful","1","12","12","BuGn","orientMir","scaleRev","180","",""
"","","","","","html-slider-response","115","372905","0.0-111.0","zpg331sldp","75","NaN","<div style=""width:500px;"">
                            <p style=""font-size:50px; font-weight:bold;""
                            >fearful</p>
                            <div style=""width:240px; margin: auto;"">
                                <img src=""images/map15_PuOr_scaleRev_orientDef_000.png"" style= ""width:200px""alt=""img"">
                            </div>
                        </div>","28","","0","","","","images/map15_PuOr_scaleRev_orientDef_000.png","fearful","1","15","15","PuOr","orientDef","scaleRev","000","",""
"","","","","","html-slider-response","116","374722","0.0-112.0","zpg331sldp","75","NaN","<div style=""width:500px;"">
                            <p style=""font-size:50px; font-weight:bold;""
                            >fearful</p>
                            <div style=""width:240px; margin: auto;"">
                                <img src=""images/map05_Purples_scaleRev_orientDef_000.png"" style= ""width:200px""alt=""img"">
                            </div>
                        </div>","-54","","0","","","","images/map05_Purples_scaleRev_orientDef_000.png","fearful","1","05","05","Purples","orientDef","scaleRev","000","",""
"","","","","","html-slider-response","117","377554","0.0-113.0","zpg331sldp","75","NaN","<div style=""width:500px;"">
                            <p style=""font-size:50px; font-weight:bold;""
                            >fearful</p>
                            <div style=""width:240px; margin: auto;"">
                                <img src=""images/map10_GnBu_scaleRev_orientMir_180.png"" style= ""width:200px""alt=""img"">
                            </div>
                        </div>","-195","","0","","","","images/map10_GnBu_scaleRev_orientMir_180.png","fearful","1","10","10","GnBu","orientMir","scaleRev","180","",""
"","","","","","html-slider-response","118","379821","0.0-114.0","zpg331sldp","75","NaN","<div style=""width:500px;"">
                            <p style=""font-size:50px; font-weight:bold;""
                            >fearful</p>
                            <div style=""width:240px; margin: auto;"">
                                <img src=""images/map27_plasma_scaleRev_orientMir_180.png"" style= ""width:200px""alt=""img"">
                            </div>
                        </div>","166","","0","","","","images/map27_plasma_scaleRev_orientMir_180.png","fearful","1","27","27","plasma","orientMir","scaleRev","180","",""
"","","","","","html-slider-response","119","381737","0.0-115.0","zpg331sldp","75","NaN","<div style=""width:500px;"">
                            <p style=""font-size:50px; font-weight:bold;""
                            >fearful</p>
                            <div style=""width:240px; margin: auto;"">
                                <img src=""images/map05_Greens_scaleDef_orientDef_270.png"" style= ""width:200px""alt=""img"">
                            </div>
                        </div>","-193","","0","","","","images/map05_Greens_scaleDef_orientDef_270.png","fearful","1","05","05","Greens","orientDef","scaleDef","270","",""
"","","","","","html-slider-response","120","383971","0.0-116.0","zpg331sldp","75","NaN","<div style=""width:500px;"">
                            <p style=""font-size:50px; font-weight:bold;""
                            >fearful</p>
                            <div style=""width:240px; margin: auto;"">
                                <img src=""images/map23_coolwarm_scaleDef_orientDef_270.png"" style= ""width:200px""alt=""img"">
                            </div>
                        </div>","106","","0","","","","images/map23_coolwarm_scaleDef_orientDef_270.png","fearful","1","23","23","coolwarm","orientDef","scaleDef","270","",""
"","","","","","html-slider-response","121","385738","0.0-117.0","zpg331sldp","75","NaN","<div style=""width:500px;"">
                            <p style=""font-size:50px; font-weight:bold;""
                            >fearful</p>
                            <div style=""width:240px; margin: auto;"">
                                <img src=""images/map26_vanimo_scaleDef_orientMir_090.png"" style= ""width:200px""alt=""img"">
                            </div>
                        </div>","146","","0","","","","images/map26_vanimo_scaleDef_orientMir_090.png","fearful","1","26","26","vanimo","orientMir","scaleDef","090","",""
"","","","","","html-slider-response","122","388054","0.0-118.0","zpg331sldp","75","NaN","<div style=""width:500px;"">
                            <p style=""font-size:50px; font-weight:bold;""
                            >fearful</p>
                            <div style=""width:240px; margin: auto;"">
                                <img src=""images/map02_cividis_scaleDef_orientDef_270.png"" style= ""width:200px""alt=""img"">
                            </div>
                        </div>","-94","","0","","","","images/map02_cividis_scaleDef_orientDef_270.png","fearful","1","02","02","cividis","orientDef","scaleDef","270","",""
"","","","","","html-slider-response","123","390569","0.0-119.0","zpg331sldp","75","NaN","<div style=""width:500px;"">
                            <p style=""font-size:50px; font-weight:bold;""
                            >fearful</p>
                            <div style=""width:240px; margin: auto;"">
                                <img src=""images/map05_Blues_scaleRev_orientDef_180.png"" style= ""width:200px""alt=""img"">
                            </div>
                        </div>","-194","","0","","","","images/map05_Blues_scaleRev_orientDef_180.png","fearful","1","05","05","Blues","orientDef","scaleRev","180","",""
"","","","","","html-slider-response","124","392020","0.0-120.0","zpg331sldp","75","NaN","<div style=""width:500px;"">
                            <p style=""font-size:50px; font-weight:bold;""
                            >fearful</p>
                            <div style=""width:240px; margin: auto;"">
                                <img src=""images/map02_Purples_scaleDef_orientMir_270.png"" style= ""width:200px""alt=""img"">
                            </div>
                        </div>","-198","","0","","","","images/map02_Purples_scaleDef_orientMir_270.png","fearful","1","02","02","Purples","orientMir","scaleDef","270","",""
"","","","","","html-slider-response","125","394638","0.0-121.0","zpg331sldp","75","NaN","<div style=""width:500px;"">
                            <p style=""font-size:50px; font-weight:bold;""
                            >fearful</p>
                            <div style=""width:240px; margin: auto;"">
                                <img src=""images/map27_plasma_scaleDef_orientMir_090.png"" style= ""width:200px""alt=""img"">
                            </div>
                        </div>","198","","0","","","","images/map27_plasma_scaleDef_orientMir_090.png","fearful","1","27","27","plasma","orientMir","scaleDef","090","",""
"","","","","","html-slider-response","126","397521","0.0-122.0","zpg331sldp","75","NaN","<div style=""width:500px;"">
                            <p style=""font-size:50px; font-weight:bold;""
                            >fearful</p>
                            <div style=""width:240px; margin: auto;"">
                                <img src=""images/map15_RdGy_scaleRev_orientDef_180.png"" style= ""width:200px""alt=""img"">
                            </div>
                        </div>","148","","0","","","","images/map15_RdGy_scaleRev_orientDef_180.png","fearful","1","15","15","RdGy","orientDef","scaleRev","180","",""
"","","","","","html-slider-response","127","399737","0.0-123.0","zpg331sldp","75","NaN","<div style=""width:500px;"">
                            <p style=""font-size:50px; font-weight:bold;""
                            >fearful</p>
                            <div style=""width:240px; margin: auto;"">
                                <img src=""images/map13_BrBG_scaleRev_orientMir_180.png"" style= ""width:200px""alt=""img"">
                            </div>
                        </div>","-25","","0","","","","images/map13_BrBG_scaleRev_orientMir_180.png","fearful","1","13","13","BrBG","orientMir","scaleRev","180","",""
"","","","","","html-slider-response","128","401769","0.0-124.0","zpg331sldp","75","NaN","<div style=""width:500px;"">
                            <p style=""font-size:50px; font-weight:bold;""
                            >fearful</p>
                            <div style=""width:240px; margin: auto;"">
                                <img src=""images/map02_Greys_scaleRev_orientMir_180.png"" style= ""width:200px""alt=""img"">
                            </div>
                        </div>","-196","","0","","","","images/map02_Greys_scaleRev_orientMir_180.png","fearful","1","02","02","Greys","orientMir","scaleRev","180","",""
"","","","","","html-slider-response","129","404054","0.0-125.0","zpg331sldp","75","NaN","<div style=""width:500px;"">
                            <p style=""font-size:50px; font-weight:bold;""
                            >fearful</p>
                            <div style=""width:240px; margin: auto;"">
                                <img src=""images/map27_turbo_scaleRev_orientDef_180.png"" style= ""width:200px""alt=""img"">
                            </div>
                        </div>","98","","0","","","","images/map27_turbo_scaleRev_orientDef_180.png","fearful","1","27","27","turbo","orientDef","scaleRev","180","",""
"","","","","","html-slider-response","130","406604","0.0-126.0","zpg331sldp","75","NaN","<div style=""width:500px;"">
                            <p style=""font-size:50px; font-weight:bold;""
                            >fearful</p>
                            <div style=""width:240px; margin: auto;"">
                                <img src=""images/map12_PuBuGn_scaleDef_orientDef_270.png"" style= ""width:200px""alt=""img"">
                            </div>
                        </div>","-193","","0","","","","images/map12_PuBuGn_scaleDef_orientDef_270.png","fearful","1","12","12","PuBuGn","orientDef","scaleDef","270","",""
"","","","","","html-slider-response","131","409521","0.0-127.0","zpg331sldp","75","NaN","<div style=""width:500px;"">
                            <p style=""font-size:50px; font-weight:bold;""
                            >fearful</p>
                            <div style=""width:240px; margin: auto;"">
                                <img src=""images/map26_gist_earth_scaleDef_orientMir_270.png"" style= ""width:200px""alt=""img"">
                            </div>
                        </div>","192","","0","","","","images/map26_gist_earth_scaleDef_orientMir_270.png","fearful","1","26","26","gist","scaleDef","earth","orientMir","",""
"","","","","","html-slider-response","132","412753","0.0-128.0","zpg331sldp","75","NaN","<div style=""width:500px;"">
                            <p style=""font-size:50px; font-weight:bold;""
                            >fearful</p>
                            <div style=""width:240px; margin: auto;"">
                                <img src=""images/map07_YlOrRd_scaleDef_orientDef_270.png"" style= ""width:200px""alt=""img"">
                            </div>
                        </div>","46","","0","","","","images/map07_YlOrRd_scaleDef_orientDef_270.png","fearful","1","07","07","YlOrRd","orientDef","scaleDef","270","",""
"","","","","","html-slider-response","133","418221","0.0-129.0","zpg331sldp","75","NaN","<div style=""width:500px;"">
                            <p style=""font-size:50px; font-weight:bold;""
                            >fearful</p>
                            <div style=""width:240px; margin: auto;"">
                                <img src=""images/map27_gist_earth_scaleRev_orientDef_000.png"" style= ""width:200px""alt=""img"">
                            </div>
                        </div>","-146","","0","","","","images/map27_gist_earth_scaleRev_orientDef_000.png","fearful","1","27","27","gist","scaleRev","earth","orientDef","",""
"","","","","","html-slider-response","134","420835","0.0-130.0","zpg331sldp","75","NaN","<div style=""width:500px;"">
                            <p style=""font-size:50px; font-weight:bold;""
                            >fearful</p>
                            <div style=""width:240px; margin: auto;"">
                                <img src=""images/map26_vanimo_scaleRev_orientMir_180.png"" style= ""width:200px""alt=""img"">
                            </div>
                        </div>","199","","0","","","","images/map26_vanimo_scaleRev_orientMir_180.png","fearful","1","26","26","vanimo","orientMir","scaleRev","180","",""
"","","","","","html-slider-response","135","423104","0.0-131.0","zpg331sldp","75","NaN","<div style=""width:500px;"">
                            <p style=""font-size:50px; font-weight:bold;""
                            >fearful</p>
                            <div style=""width:240px; margin: auto;"">
                                <img src=""images/map23_Spectral_scaleDef_orientDef_090.png"" style= ""width:200px""alt=""img"">
                            </div>
                        </div>","184","","0","","","","images/map23_Spectral_scaleDef_orientDef_090.png","fearful","1","23","23","Spectral","orientDef","scaleDef","090","",""
"","","","","","html-slider-response","136","424569","0.0-132.0","zpg331sldp","75","NaN","<div style=""width:500px;"">
                            <p style=""font-size:50px; font-weight:bold;""
                            >fearful</p>
                            <div style=""width:240px; margin: auto;"">
                                <img src=""images/map23_Spectral_scaleRev_orientDef_180.png"" style= ""width:200px""alt=""img"">
                            </div>
                        </div>","183","","0","","","","images/map23_Spectral_scaleRev_orientDef_180.png","fearful","1","23","23","Spectral","orientDef","scaleRev","180","",""
"","","","","","html-slider-response","137","426903","0.0-133.0","zpg331sldp","75","NaN","<div style=""width:500px;"">
                            <p style=""font-size:50px; font-weight:bold;""
                            >fearful</p>
                            <div style=""width:240px; margin: auto;"">
                                <img src=""images/map07_YlOrBr_scaleDef_orientDef_090.png"" style= ""width:200px""alt=""img"">
                            </div>
                        </div>","118","","0","","","","images/map07_YlOrBr_scaleDef_orientDef_090.png","fearful","1","07","07","YlOrBr","orientDef","scaleDef","090","",""
"","","","","","html-slider-response","138","447503","0.0-134.0","zpg331sldp","75","NaN","<div style=""width:500px;"">
                            <p style=""font-size:50px; font-weight:bold;""
                            >fearful</p>
                            <div style=""width:240px; margin: auto;"">
                                <img src=""images/map07_YlOrBr_scaleRev_orientDef_180.png"" style= ""width:200px""alt=""img"">
                            </div>
                        </div>","112","","0","","","","images/map07_YlOrBr_scaleRev_orientDef_180.png","fearful","1","07","07","YlOrBr","orientDef","scaleRev","180","",""
"","","","","","html-slider-response","139","449202","0.0-135.0","zpg331sldp","75","NaN","<div style=""width:500px;"">
                            <p style=""font-size:50px; font-weight:bold;""
                            >fearful</p>
                            <div style=""width:240px; margin: auto;"">
                                <img src=""images/map12_PuBu_scaleRev_orientDef_000.png"" style= ""width:200px""alt=""img"">
                            </div>
                        </div>","-132","","0","","","","images/map12_PuBu_scaleRev_orientDef_000.png","fearful","1","12","12","PuBu","orientDef","scaleRev","000","",""
"","","","","","html-slider-response","140","451069","0.0-136.0","zpg331sldp","75","NaN","<div style=""width:500px;"">
                            <p style=""font-size:50px; font-weight:bold;""
                            >fearful</p>
                            <div style=""width:240px; margin: auto;"">
                                <img src=""images/map27_turbo_scaleDef_orientDef_090.png"" style= ""width:200px""alt=""img"">
                            </div>
                        </div>","137","","0","","","","images/map27_turbo_scaleDef_orientDef_090.png","fearful","1","27","27","turbo","orientDef","scaleDef","090","",""
"","","","","","html-button-response","141","452925","0.0-137.0","zpg331sldp","75","1353","<p>You are doing great!<br></br> You are halway done with the current block. When you are ready to continue, click the 'Continue' button.</p>","0","","","","","","","","","","","","","","","",""
"","","","","","html-slider-response","142","454737","0.0-138.0","zpg331sldp","75","NaN","<div style=""width:500px;"">
                            <p style=""font-size:50px; font-weight:bold;""
                            >fearful</p>
                            <div style=""width:240px; margin: auto;"">
                                <img src=""images/map15_RdYlBu_scaleRev_orientMir_180.png"" style= ""width:200px""alt=""img"">
                            </div>
                        </div>","128","","0","","","","images/map15_RdYlBu_scaleRev_orientMir_180.png","fearful","1","15","15","RdYlBu","orientMir","scaleRev","180","",""
"","","","","","html-slider-response","143","456469","0.0-139.0","zpg331sldp","75","NaN","<div style=""width:500px;"">
                            <p style=""font-size:50px; font-weight:bold;""
                            >fearful</p>
                            <div style=""width:240px; margin: auto;"">
                                <img src=""images/map12_YlGnBu_scaleRev_orientDef_180.png"" style= ""width:200px""alt=""img"">
                            </div>
                        </div>","-129","","0","","","","images/map12_YlGnBu_scaleRev_orientDef_180.png","fearful","1","12","12","YlGnBu","orientDef","scaleRev","180","",""
"","","","","","html-slider-response","144","458103","0.0-140.0","zpg331sldp","75","NaN","<div style=""width:500px;"">
                            <p style=""font-size:50px; font-weight:bold;""
                            >fearful</p>
                            <div style=""width:240px; margin: auto;"">
                                <img src=""images/map13_BrBG_scaleDef_orientMir_090.png"" style= ""width:200px""alt=""img"">
                            </div>
                        </div>","79","","0","","","","images/map13_BrBG_scaleDef_orientMir_090.png","fearful","1","13","13","BrBG","orientMir","scaleDef","090","",""
"","","","","","html-slider-response","145","459769","0.0-141.0","zpg331sldp","75","NaN","<div style=""width:500px;"">
                            <p style=""font-size:50px; font-weight:bold;""
                            >fearful</p>
                            <div style=""width:240px; margin: auto;"">
                                <img src=""images/map15_RdGy_scaleDef_orientDef_090.png"" style= ""width:200px""alt=""img"">
                            </div>
                        </div>","102","","0","","","","images/map15_RdGy_scaleDef_orientDef_090.png","fearful","1","15","15","RdGy","orientDef","scaleDef","090","",""
"","","","","","html-slider-response","146","461720","0.0-142.0","zpg331sldp","75","NaN","<div style=""width:500px;"">
                            <p style=""font-size:50px; font-weight:bold;""
                            >fearful</p>
                            <div style=""width:240px; margin: auto;"">
                                <img src=""images/map05_Oranges_scaleRev_orientMir_180.png"" style= ""width:200px""alt=""img"">
                            </div>
                        </div>","130","","0","","","","images/map05_Oranges_scaleRev_orientMir_180.png","fearful","1","05","05","Oranges","orientMir","scaleRev","180","",""
"","","","","","html-slider-response","147","463586","0.0-143.0","zpg331sldp","75","NaN","<div style=""width:500px;"">
                            <p style=""font-size:50px; font-weight:bold;""
                            >fearful</p>
                            <div style=""width:240px; margin: auto;"">
                                <img src=""images/map05_Blues_scaleDef_orientDef_090.png"" style= ""width:200px""alt=""img"">
                            </div>
                        </div>","-151","","0","","","","images/map05_Blues_scaleDef_orientDef_090.png","fearful","1","05","05","Blues","orientDef","scaleDef","090","",""
"","","","","","html-slider-response","148","465170","0.0-144.0","zpg331sldp","75","NaN","<div style=""width:500px;"">
                            <p style=""font-size:50px; font-weight:bold;""
                            >fearful</p>
                            <div style=""width:240px; margin: auto;"">
                                <img src=""images/map07_YlOrRd_scaleRev_orientMir_000.png"" style= ""width:200px""alt=""img"">
                            </div>
                        </div>","150","","0","","","","images/map07_YlOrRd_scaleRev_orientMir_000.png","fearful","1","07","07","YlOrRd","orientMir","scaleRev","000","",""
"","","","","","html-slider-response","149","466936","0.0-145.0","zpg331sldp","75","NaN","<div style=""width:500px;"">
                            <p style=""font-size:50px; font-weight:bold;""
                            >fearful</p>
                            <div style=""width:240px; margin: auto;"">
                                <img src=""images/map05_Oranges_scaleDef_orientMir_090.png"" style= ""width:200px""alt=""img"">
                            </div>
                        </div>","150","","0","","","","images/map05_Oranges_scaleDef_orientMir_090.png","fearful","1","05","05","Oranges","orientMir","scaleDef","090","",""
"","","","","","html-slider-response","150","470435","0.0-146.0","zpg331sldp","75","NaN","<div style=""width:500px;"">
                            <p style=""font-size:50px; font-weight:bold;""
                            >fearful</p>
                            <div style=""width:240px; margin: auto;"">
                                <img src=""images/map07_PuRd_scaleDef_orientMir_270.png"" style= ""width:200px""alt=""img"">
                            </div>
                        </div>","-147","","0","","","","images/map07_PuRd_scaleDef_orientMir_270.png","fearful","1","07","07","PuRd","orientMir","scaleDef","270","",""
"","","","","","html-slider-response","151","472285","0.0-147.0","zpg331sldp","75","NaN","<div style=""width:500px;"">
                            <p style=""font-size:50px; font-weight:bold;""
                            >fearful</p>
                            <div style=""width:240px; margin: auto;"">
                                <img src=""images/map12_YlGn_scaleDef_orientMir_270.png"" style= ""width:200px""alt=""img"">
                            </div>
                        </div>","-174","","0","","","","images/map12_YlGn_scaleDef_orientMir_270.png","fearful","1","12","12","YlGn","orientMir","scaleDef","270","",""
"","","","","","html-slider-response","152","476252","0.0-148.0","zpg331sldp","75","NaN","<div style=""width:500px;"">
                            <p style=""font-size:50px; font-weight:bold;""
                            >fearful</p>
                            <div style=""width:240px; margin: auto;"">
                                <img src=""images/map10_RdPu_scaleRev_orientDef_180.png"" style= ""width:200px""alt=""img"">
                            </div>
                        </div>","4","","0","","","","images/map10_RdPu_scaleRev_orientDef_180.png","fearful","1","10","10","RdPu","orientDef","scaleRev","180","",""
"","","","","","html-slider-response","153","477953","0.0-149.0","zpg331sldp","75","NaN","<div style=""width:500px;"">
                            <p style=""font-size:50px; font-weight:bold;""
                            >fearful</p>
                            <div style=""width:240px; margin: auto;"">
                                <img src=""images/map23_bwr_scaleRev_orientMir_180.png"" style= ""width:200px""alt=""img"">
                            </div>
                        </div>","74","","0","","","","images/map23_bwr_scaleRev_orientMir_180.png","fearful","1","23","23","bwr","orientMir","scaleRev","180","",""
"","","","","","html-slider-response","154","479769","0.0-150.0","zpg331sldp","75","NaN","<div style=""width:500px;"">
                            <p style=""font-size:50px; font-weight:bold;""
                            >fearful</p>
                            <div style=""width:240px; margin: auto;"">
                                <img src=""images/map15_RdYlBu_scaleDef_orientMir_090.png"" style= ""width:200px""alt=""img"">
                            </div>
                        </div>","138","","0","","","","images/map15_RdYlBu_scaleDef_orientMir_090.png","fearful","1","15","15","RdYlBu","orientMir","scaleDef","090","",""
"","","","","","html-slider-response","155","481918","0.0-151.0","zpg331sldp","75","NaN","<div style=""width:500px;"">
                            <p style=""font-size:50px; font-weight:bold;""
                            >fearful</p>
                            <div style=""width:240px; margin: auto;"">
                                <img src=""images/map27_viridis_scaleRev_orientMir_000.png"" style= ""width:200px""alt=""img"">
                            </div>
                        </div>","156","","0","","","","images/map27_viridis_scaleRev_orientMir_000.png","fearful","1","27","27","viridis","orientMir","scaleRev","000","",""
"","","","","","html-slider-response","156","485585","0.0-152.0","zpg331sldp","75","NaN","<div style=""width:500px;"">
                            <p style=""font-size:50px; font-weight:bold;""
                            >fearful</p>
                            <div style=""width:240px; margin: auto;"">
                                <img src=""images/map10_PuBu_scaleDef_orientMir_270.png"" style= ""width:200px""alt=""img"">
                            </div>
                        </div>","-62","","0","","","","images/map10_PuBu_scaleDef_orientMir_270.png","fearful","1","10","10","PuBu","orientMir","scaleDef","270","",""
"","","","","","html-slider-response","157","487752","0.0-153.0","zpg331sldp","75","NaN","<div style=""width:500px;"">
                            <p style=""font-size:50px; font-weight:bold;""
                            >fearful</p>
                            <div style=""width:240px; margin: auto;"">
                                <img src=""images/map15_RdBu_scaleRev_orientMir_000.png"" style= ""width:200px""alt=""img"">
                            </div>
                        </div>","87","","0","","","","images/map15_RdBu_scaleRev_orientMir_000.png","fearful","1","15","15","RdBu","orientMir","scaleRev","000","",""
"","","","","","html-slider-response","158","492301","0.0-154.0","zpg331sldp","75","NaN","<div style=""width:500px;"">
                            <p style=""font-size:50px; font-weight:bold;""
