"rt","stimulus","response","trial_type","trial_index","time_elapsed","internal_node_id","subject_id","condition_num","success","timeout","failed_images","failed_audio","failed_video","question_order","slider_start","practiceTrial","practiceTrialNum","correct","concept","texture_id","ishihara_plate","correct_response"
7457,"Welcome to our experiment!<p>At the bottom of this screen, you will see a button that says ""Begin Experiment"".<br>Please only click that button when you are ready to complete the 30 minute experiment in one sitting.</p><p> Once you click that button, it will not be possible to restart the experiment.","0","html-button-response",0,7459,"0.0-0.0","4pmn7rb6wq",0,"","","","","","",NA,"",NA,"","","",NA,NA
NA,"","","preload",1,9541,"0.0-1.0","4pmn7rb6wq",0,"true","false","[]","[]","[]","",NA,"",NA,"","","",NA,NA
1618,"","","fullscreen",2,12162,"0.0-2.0","4pmn7rb6wq",0,"true","","","","","",NA,"",NA,"","","",NA,NA
3394,"","{""Consent"":[""<strong>I consent</strong>""]}","survey-multi-select",3,15560,"0.0-3.0","4pmn7rb6wq",0,"","","","","","[0]",NA,"",NA,"","","",NA,NA
1114,"Welcome! <p> This experiment involves two parts: demographic information, followed by the experimental task.<p> It will take about 30 minutes to complete both parts.","0","html-button-response",4,16676,"0.0-4.0","4pmn7rb6wq",0,"","","","","","",NA,"",NA,"","","",NA,NA
8961,"","{""Age"":""18"",""Gender"":""female"",""Race/ethnicity"":""white"",""Languages"":""english, french""}","survey-text",5,25644,"0.0-5.0","4pmn7rb6wq",0,"","","","","","",NA,"",NA,"","","",NA,NA
8330,"
                        <div>
                            <div style='text-align:left; font-size:18px; line-height:25px; width: 1300px;'>
                                During this experiment you will be asked to rate how much you associate charts with                                different concepts. Below, you can see some examples of the charts you will be asked to rate. Above the charts
                                is the list of concepts. You will be asked
                                to rate how much you associate each chart with each concept on a scale from 'not at all' to 'very much' like the
                                one below. <br>

                        <div style=""text-align: left; width: 1300px;"">
                            <p style=""font-size:18px; line-height:20px; text-align:center; font-weight:bold"">
                                Happy, Angry, Fearful, Disgust, Sad
                            </p>
                        </div>

                        <div style=""display: flex; justify-content: center; width: 100%;"">
                            <div style=""
                                display: grid;
                                grid-template-columns: repeat(5, 1fr);
                                gap: 8px;
                                padding: 10px;
                                width: 900px;  
                                margin: 0 auto;
                            "">
                                
                                    <div style=""width: 100%;"">
                                        <img src=""images/1_Angry_lo_lo_1_tab20c_ascend_lgsm_bar.png"" style=""width: 100%; height: auto; object-fit: contain;"">
                                    </div>
                                
                                    <div style=""width: 100%;"">
                                        <img src=""images/1_Sad_hi_hi_1_tab20_ascend_lgsm_bar.png"" style=""width: 100%; height: auto; object-fit: contain;"">
                                    </div>
                                
                                    <div style=""width: 100%;"">
                                        <img src=""images/1_Disgust_lo_lo_1_tab20c_decend_lgsm_bar.png"" style=""width: 100%; height: auto; object-fit: contain;"">
                                    </div>
                                
                                    <div style=""width: 100%;"">
                                        <img src=""images/1_Fearful_lo_lo_1_Pastel1_decend_lgsm_bar.png"" style=""width: 100%; height: auto; object-fit: contain;"">
                                    </div>
                                
                                    <div style=""width: 100%;"">
                                        <img src=""images/1_Angry_hi_hi_1_tab20_ascend_smlg_bar.png"" style=""width: 100%; height: auto; object-fit: contain;"">
                                    </div>
                                
                                    <div style=""width: 100%;"">
                                        <img src=""images/1_Happy_lo_lo_1_tab20b_ascend_smlg_bar.png"" style=""width: 100%; height: auto; object-fit: contain;"">
                                    </div>
                                
                                    <div style=""width: 100%;"">
                                        <img src=""images/1_Happy_hi_hi_1_Set1_ascend_smlg_bar.png"" style=""width: 100%; height: auto; object-fit: contain;"">
                                    </div>
                                
                                    <div style=""width: 100%;"">
                                        <img src=""images/1_Disgust_hi_hi_1_tab20b_decend_lgsm_bar.png"" style=""width: 100%; height: auto; object-fit: contain;"">
                                    </div>
                                
                                    <div style=""width: 100%;"">
                                        <img src=""images/1_Fearful_hi_hi_1_tab20b_ascend_smlg_bar.png"" style=""width: 100%; height: auto; object-fit: contain;"">
                                    </div>
                                
                                    <div style=""width: 100%;"">
                                        <img src=""images/1_Sad_lo_lo_1_Set1_decend_smlg_bar.png"" style=""width: 100%; height: auto; object-fit: contain;"">
                                    </div>
                                
                            </div>
                        </div>
                    </div>
                </div>
                    ","81","html-slider-response",6,33977,"0.0-6.0","4pmn7rb6wq",0,"","","","","","",0,"true",NA,"","","",NA,NA
1182,"<div style=""width:1300px;""><p style=""text-align:left"">To move the slider, click and drag your cursor to the location of the scale where you would like to make your rating and then let go. When you let go of the slider, your response will be recorded and the next trial will begin. <br>
                    We are interested in your initial impressions of each chart for a given concept, so please go with your first intuition. 
                    Before you begin the experiment, there will be four training trials for you to practice using the slider. 
                     When you are ready to start the training trials, please click ""Continue"".</p><br></div>","0","html-button-response",7,35160,"0.0-7.0","4pmn7rb6wq",0,"","","","","","",NA,"",NA,"","","",NA,NA
NA,"<div style=""width:500px;"">
                                    <p style=""font-size:25px;"">Please move the slider all the way to the <br> right endpoint of the scale</p>

                                    </div>
                                </div>","200","html-slider-response",8,42022,"0.0-8.0-0.0","4pmn7rb6wq",0,"","","","","","",0,"true",0,"true","","",NA,NA
868,"<p align='center'><b>Good job!</b> Click on 'Continue' to proceed.</p>","0","html-button-response",9,43393,"0.0-8.0-1.0","4pmn7rb6wq",0,"","","","","","",NA,"",NA,"","","",NA,NA
NA,"<div style=""width:500px;"">
                                    <p style=""font-size:25px;"">Please move the slider all the way to the <br> left endpoint of the scale</p>

                                    </div>
                                </div>","-200","html-slider-response",10,45271,"0.0-9.0-0.0","4pmn7rb6wq",0,"","","","","","",0,"true",1,"true","","",NA,NA
1119,"<p align='center'><b>Good job!</b> Click on 'Continue' to proceed.</p>","0","html-button-response",11,46892,"0.0-9.0-1.0","4pmn7rb6wq",0,"","","","","","",NA,"",NA,"","","",NA,NA
NA,"<div style=""width:500px;"">
                                    <p style=""font-size:25px;"">Please move the slider halfway between the center and right endpoint of the scale</p>

                                    </div>
                                </div>","107","html-slider-response",12,52106,"0.0-10.0-0.0","4pmn7rb6wq",0,"","","","","","",0,"true",2,"true","","",NA,NA
700,"<p align='center'><b>Good job!</b> Click on 'Continue' to proceed.</p>","0","html-button-response",13,53310,"0.0-10.0-1.0","4pmn7rb6wq",0,"","","","","","",NA,"",NA,"","","",NA,NA
NA,"<div style=""width:500px;"">
                                    <p style=""font-size:25px;"">Please move the slider halfway between the center and left endpoint of the scale</p>

                                    </div>
                                </div>","-114","html-slider-response",14,55423,"0.0-11.0-0.0","4pmn7rb6wq",0,"","","","","","",0,"true",3,"false","","",NA,NA
2152,"<p align='center'><b>Not quite!</b> The slider was not placed near the instructed located. Click on 'Continue' to try again. </p>","0","html-button-response",15,58077,"0.0-11.0-1.0","4pmn7rb6wq",0,"","","","","","",NA,"",NA,"","","",NA,NA
NA,"<div style=""width:500px;"">
                                    <p style=""font-size:25px;"">Please move the slider halfway between the center and left endpoint of the scale</p>

                                    </div>
                                </div>","-109","html-slider-response",16,61154,"0.0-11.1-0.1","4pmn7rb6wq",0,"","","","","","",0,"true",3,"true","","",NA,NA
1020,"<p align='center'><b>Good job!</b> Click on 'Continue' to proceed.</p>","0","html-button-response",17,62676,"0.0-11.1-1.1","4pmn7rb6wq",0,"","","","","","",NA,"",NA,"","","",NA,NA
1833,"<p>Great job! You've completed the practice trials. Now you will begin the main task.</p>","0","html-button-response",18,64510,"0.0-12.0","4pmn7rb6wq",0,"","","","","","",NA,"",NA,"","","",NA,NA
2448,"<p>In this block of trials, you will be asked to rate how much you associate each texture with the concept</p >
                        <p style = 'font-size:150%; font-weight: bold'>Happy</p><br></br>","0","html-button-response",19,66959,"0.0-13.0","4pmn7rb6wq",0,"","","","","","",NA,"",NA,"","","",NA,NA
NA,"<div style=""width:500px;"">
                            <p style=""font-size:50px; font-weight:bold;""
                            >Happy</p>
                            <div style=""width:480px; margin: auto;"">
                                <img src=""images/1_Happy_hi_md_1_Set1_decend_smlg_bar.png"" width=""480"" height=""420"" style=""object-fit:contain;"">
                            </div>
                        </div>","174","html-slider-response",20,69355,"0.0-14.0","4pmn7rb6wq",0,"","","","","","",0,"",NA,"","Happy","images/1_Happy_hi_md_1_Set1_decend_smlg_bar.png",NA,NA
NA,"<div style=""width:500px;"">
                            <p style=""font-size:50px; font-weight:bold;""
                            >Happy</p>
                            <div style=""width:480px; margin: auto;"">
                                <img src=""images/1_Happy_hi_hi_3_Paired_ascend_lgsm_bar.png"" width=""480"" height=""420"" style=""object-fit:contain;"">
                            </div>
                        </div>","-56","html-slider-response",21,72004,"0.0-15.0","4pmn7rb6wq",0,"","","","","","",0,"",NA,"","Happy","images/1_Happy_hi_hi_3_Paired_ascend_lgsm_bar.png",NA,NA
NA,"<div style=""width:500px;"">
                            <p style=""font-size:50px; font-weight:bold;""
                            >Happy</p>
                            <div style=""width:480px; margin: auto;"">
                                <img src=""images/1_Happy_med_med_1_tab20c_decend_smlg_bar.png"" width=""480"" height=""420"" style=""object-fit:contain;"">
                            </div>
                        </div>","-154","html-slider-response",22,74082,"0.0-16.0","4pmn7rb6wq",0,"","","","","","",0,"",NA,"","Happy","images/1_Happy_med_med_1_tab20c_decend_smlg_bar.png",NA,NA
NA,"<div style=""width:500px;"">
                            <p style=""font-size:50px; font-weight:bold;""
                            >Happy</p>
                            <div style=""width:480px; margin: auto;"">
                                <img src=""images/1_Happy_hi_lo_3_Dark2_ascend_lgsm_bar.png"" width=""480"" height=""420"" style=""object-fit:contain;"">
                            </div>
                        </div>","-42","html-slider-response",23,76071,"0.0-17.0","4pmn7rb6wq",0,"","","","","","",0,"",NA,"","Happy","images/1_Happy_hi_lo_3_Dark2_ascend_lgsm_bar.png",NA,NA
NA,"<div style=""width:500px;"">
                            <p style=""font-size:50px; font-weight:bold;""
                            >Happy</p>
                            <div style=""width:480px; margin: auto;"">
                                <img src=""images/1_Happy_hi_hi_1_Set1_decend_smlg_bar.png"" width=""480"" height=""420"" style=""object-fit:contain;"">
                            </div>
                        </div>","200","html-slider-response",24,77672,"0.0-18.0","4pmn7rb6wq",0,"","","","","","",0,"",NA,"","Happy","images/1_Happy_hi_hi_1_Set1_decend_smlg_bar.png",NA,NA
NA,"<div style=""width:500px;"">
                            <p style=""font-size:50px; font-weight:bold;""
                            >Happy</p>
                            <div style=""width:480px; margin: auto;"">
                                <img src=""images/1_Happy_hi_lo_1_tab20_ascend_lgsm_bar.png"" width=""480"" height=""420"" style=""object-fit:contain;"">
                            </div>
                        </div>","-26","html-slider-response",25,79404,"0.0-19.0","4pmn7rb6wq",0,"","","","","","",0,"",NA,"","Happy","images/1_Happy_hi_lo_1_tab20_ascend_lgsm_bar.png",NA,NA
NA,"<div style=""width:500px;"">
                            <p style=""font-size:50px; font-weight:bold;""
                            >Happy</p>
                            <div style=""width:480px; margin: auto;"">
                                <img src=""images/1_Happy_med_lo_1_tab20b_decend_lgsm_bar.png"" width=""480"" height=""420"" style=""object-fit:contain;"">
                            </div>
                        </div>","-47","html-slider-response",26,81537,"0.0-20.0","4pmn7rb6wq",0,"","","","","","",0,"",NA,"","Happy","images/1_Happy_med_lo_1_tab20b_decend_lgsm_bar.png",NA,NA
NA,"<div style=""width:500px;"">
                            <p style=""font-size:50px; font-weight:bold;""
                            >Happy</p>
                            <div style=""width:480px; margin: auto;"">
                                <img src=""images/1_Happy_lo_lo_3_tab20_decend_lgsm_bar.png"" width=""480"" height=""420"" style=""object-fit:contain;"">
                            </div>
                        </div>","60","html-slider-response",27,83222,"0.0-21.0","4pmn7rb6wq",0,"","","","","","",0,"",NA,"","Happy","images/1_Happy_lo_lo_3_tab20_decend_lgsm_bar.png",NA,NA
NA,"<div style=""width:500px;"">
                            <p style=""font-size:50px; font-weight:bold;""
                            >Happy</p>
                            <div style=""width:480px; margin: auto;"">
                                <img src=""images/1_Happy_lo_lo_1_tab20b_decend_lgsm_bar.png"" width=""480"" height=""420"" style=""object-fit:contain;"">
                            </div>
                        </div>","-105","html-slider-response",28,84789,"0.0-22.0","4pmn7rb6wq",0,"","","","","","",0,"",NA,"","Happy","images/1_Happy_lo_lo_1_tab20b_decend_lgsm_bar.png",NA,NA
NA,"<div style=""width:500px;"">
                            <p style=""font-size:50px; font-weight:bold;""
                            >Happy</p>
                            <div style=""width:480px; margin: auto;"">
                                <img src=""images/1_Happy_lo_lo_1_tab20b_ascend_lgsm_bar.png"" width=""480"" height=""420"" style=""object-fit:contain;"">
                            </div>
                        </div>","-18","html-slider-response",29,86404,"0.0-23.0","4pmn7rb6wq",0,"","","","","","",0,"",NA,"","Happy","images/1_Happy_lo_lo_1_tab20b_ascend_lgsm_bar.png",NA,NA
NA,"<div style=""width:500px;"">
                            <p style=""font-size:50px; font-weight:bold;""
                            >Happy</p>
                            <div style=""width:480px; margin: auto;"">
                                <img src=""images/1_Happy_hi_lo_1_tab20_decend_lgsm_bar.png"" width=""480"" height=""420"" style=""object-fit:contain;"">
                            </div>
                        </div>","87","html-slider-response",30,87720,"0.0-24.0","4pmn7rb6wq",0,"","","","","","",0,"",NA,"","Happy","images/1_Happy_hi_lo_1_tab20_decend_lgsm_bar.png",NA,NA
NA,"<div style=""width:500px;"">
                            <p style=""font-size:50px; font-weight:bold;""
                            >Happy</p>
                            <div style=""width:480px; margin: auto;"">
                                <img src=""images/1_Happy_lo_lo_3_tab20_ascend_lgsm_bar.png"" width=""480"" height=""420"" style=""object-fit:contain;"">
                            </div>
                        </div>","-9","html-slider-response",31,89371,"0.0-25.0","4pmn7rb6wq",0,"","","","","","",0,"",NA,"","Happy","images/1_Happy_lo_lo_3_tab20_ascend_lgsm_bar.png",NA,NA
NA,"<div style=""width:500px;"">
                            <p style=""font-size:50px; font-weight:bold;""
                            >Happy</p>
                            <div style=""width:480px; margin: auto;"">
                                <img src=""images/1_Happy_med_lo_3_tab10new_decend_lgsm_bar.png"" width=""480"" height=""420"" style=""object-fit:contain;"">
                            </div>
                        </div>","122","html-slider-response",32,90788,"0.0-26.0","4pmn7rb6wq",0,"","","","","","",0,"",NA,"","Happy","images/1_Happy_med_lo_3_tab10new_decend_lgsm_bar.png",NA,NA
NA,"<div style=""width:500px;"">
                            <p style=""font-size:50px; font-weight:bold;""
                            >Happy</p>
                            <div style=""width:480px; margin: auto;"">
                                <img src=""images/1_Happy_hi_md_3_Set2_ascend_lgsm_bar.png"" width=""480"" height=""420"" style=""object-fit:contain;"">
                            </div>
                        </div>","200","html-slider-response",33,92305,"0.0-27.0","4pmn7rb6wq",0,"","","","","","",0,"",NA,"","Happy","images/1_Happy_hi_md_3_Set2_ascend_lgsm_bar.png",NA,NA
NA,"<div style=""width:500px;"">
                            <p style=""font-size:50px; font-weight:bold;""
                            >Happy</p>
                            <div style=""width:480px; margin: auto;"">
                                <img src=""images/1_Happy_hi_lo_3_Dark2_ascend_smlg_bar.png"" width=""480"" height=""420"" style=""object-fit:contain;"">
                            </div>
                        </div>","82","html-slider-response",34,94104,"0.0-28.0","4pmn7rb6wq",0,"","","","","","",0,"",NA,"","Happy","images/1_Happy_hi_lo_3_Dark2_ascend_smlg_bar.png",NA,NA
NA,"<div style=""width:500px;"">
                            <p style=""font-size:50px; font-weight:bold;""
                            >Happy</p>
                            <div style=""width:480px; margin: auto;"">
                                <img src=""images/1_Happy_med_lo_2_tab20_ascend_smlg_bar.png"" width=""480"" height=""420"" style=""object-fit:contain;"">
                            </div>
                        </div>","-38","html-slider-response",35,95787,"0.0-29.0","4pmn7rb6wq",0,"","","","","","",0,"",NA,"","Happy","images/1_Happy_med_lo_2_tab20_ascend_smlg_bar.png",NA,NA
NA,"<div style=""width:500px;"">
                            <p style=""font-size:50px; font-weight:bold;""
                            >Happy</p>
                            <div style=""width:480px; margin: auto;"">
                                <img src=""images/1_Happy_hi_lo_2_Set1_decend_smlg_bar.png"" width=""480"" height=""420"" style=""object-fit:contain;"">
                            </div>
                        </div>","-15","html-slider-response",36,97187,"0.0-30.0","4pmn7rb6wq",0,"","","","","","",0,"",NA,"","Happy","images/1_Happy_hi_lo_2_Set1_decend_smlg_bar.png",NA,NA
NA,"<div style=""width:500px;"">
                            <p style=""font-size:50px; font-weight:bold;""
                            >Happy</p>
                            <div style=""width:480px; margin: auto;"">
                                <img src=""images/1_Happy_hi_md_3_Set2_ascend_smlg_bar.png"" width=""480"" height=""420"" style=""object-fit:contain;"">
                            </div>
                        </div>","200","html-slider-response",37,98471,"0.0-31.0","4pmn7rb6wq",0,"","","","","","",0,"",NA,"","Happy","images/1_Happy_hi_md_3_Set2_ascend_smlg_bar.png",NA,NA
NA,"<div style=""width:500px;"">
                            <p style=""font-size:50px; font-weight:bold;""
                            >Happy</p>
                            <div style=""width:480px; margin: auto;"">
                                <img src=""images/1_Happy_hi_hi_1_Set1_decend_lgsm_bar.png"" width=""480"" height=""420"" style=""object-fit:contain;"">
                            </div>
                        </div>","200","html-slider-response",38,99955,"0.0-32.0","4pmn7rb6wq",0,"","","","","","",0,"",NA,"","Happy","images/1_Happy_hi_hi_1_Set1_decend_lgsm_bar.png",NA,NA
NA,"<div style=""width:500px;"">
                            <p style=""font-size:50px; font-weight:bold;""
                            >Happy</p>
                            <div style=""width:480px; margin: auto;"">
                                <img src=""images/1_Happy_hi_lo_2_Set1_ascend_lgsm_bar.png"" width=""480"" height=""420"" style=""object-fit:contain;"">
                            </div>
                        </div>","-4","html-slider-response",39,101521,"0.0-33.0","4pmn7rb6wq",0,"","","","","","",0,"",NA,"","Happy","images/1_Happy_hi_lo_2_Set1_ascend_lgsm_bar.png",NA,NA
NA,"<div style=""width:500px;"">
                            <p style=""font-size:50px; font-weight:bold;""
                            >Happy</p>
                            <div style=""width:480px; margin: auto;"">
                                <img src=""images/1_Happy_med_med_3_Set3_decend_lgsm_bar.png"" width=""480"" height=""420"" style=""object-fit:contain;"">
                            </div>
                        </div>","42","html-slider-response",40,103237,"0.0-34.0","4pmn7rb6wq",0,"","","","","","",0,"",NA,"","Happy","images/1_Happy_med_med_3_Set3_decend_lgsm_bar.png",NA,NA
NA,"<div style=""width:500px;"">
                            <p style=""font-size:50px; font-weight:bold;""
                            >Happy</p>
                            <div style=""width:480px; margin: auto;"">
                                <img src=""images/1_Happy_med_med_2_tab20b_decend_lgsm_bar.png"" width=""480"" height=""420"" style=""object-fit:contain;"">
                            </div>
                        </div>","-24","html-slider-response",41,104905,"0.0-35.0","4pmn7rb6wq",0,"","","","","","",0,"",NA,"","Happy","images/1_Happy_med_med_2_tab20b_decend_lgsm_bar.png",NA,NA
NA,"<div style=""width:500px;"">
                            <p style=""font-size:50px; font-weight:bold;""
                            >Happy</p>
                            <div style=""width:480px; margin: auto;"">
                                <img src=""images/1_Happy_hi_md_1_Set1_ascend_lgsm_bar.png"" width=""480"" height=""420"" style=""object-fit:contain;"">
                            </div>
                        </div>","200","html-slider-response",42,106189,"0.0-36.0","4pmn7rb6wq",0,"","","","","","",0,"",NA,"","Happy","images/1_Happy_hi_md_1_Set1_ascend_lgsm_bar.png",NA,NA
NA,"<div style=""width:500px;"">
                            <p style=""font-size:50px; font-weight:bold;""
                            >Happy</p>
                            <div style=""width:480px; margin: auto;"">
                                <img src=""images/1_Happy_hi_hi_2_tab20_ascend_lgsm_bar.png"" width=""480"" height=""420"" style=""object-fit:contain;"">
                            </div>
                        </div>","165","html-slider-response",43,107913,"0.0-37.0","4pmn7rb6wq",0,"","","","","","",0,"",NA,"","Happy","images/1_Happy_hi_hi_2_tab20_ascend_lgsm_bar.png",NA,NA
NA,"<div style=""width:500px;"">
                            <p style=""font-size:50px; font-weight:bold;""
                            >Happy</p>
                            <div style=""width:480px; margin: auto;"">
                                <img src=""images/1_Happy_lo_lo_2_tab10new_decend_lgsm_bar.png"" width=""480"" height=""420"" style=""object-fit:contain;"">
                            </div>
                        </div>","-13","html-slider-response",44,110621,"0.0-38.0","4pmn7rb6wq",0,"","","","","","",0,"",NA,"","Happy","images/1_Happy_lo_lo_2_tab10new_decend_lgsm_bar.png",NA,NA
NA,"<div style=""width:500px;"">
                            <p style=""font-size:50px; font-weight:bold;""
                            >Happy</p>
                            <div style=""width:480px; margin: auto;"">
                                <img src=""images/1_Happy_med_lo_2_tab20_ascend_lgsm_bar.png"" width=""480"" height=""420"" style=""object-fit:contain;"">
                            </div>
                        </div>","-43","html-slider-response",45,112120,"0.0-39.0","4pmn7rb6wq",0,"","","","","","",0,"",NA,"","Happy","images/1_Happy_med_lo_2_tab20_ascend_lgsm_bar.png",NA,NA
NA,"<div style=""width:500px;"">
                            <p style=""font-size:50px; font-weight:bold;""
                            >Happy</p>
                            <div style=""width:480px; margin: auto;"">
                                <img src=""images/1_Happy_hi_md_2_tab20_decend_smlg_bar.png"" width=""480"" height=""420"" style=""object-fit:contain;"">
                            </div>
                        </div>","164","html-slider-response",46,113438,"0.0-40.0","4pmn7rb6wq",0,"","","","","","",0,"",NA,"","Happy","images/1_Happy_hi_md_2_tab20_decend_smlg_bar.png",NA,NA
NA,"<div style=""width:500px;"">
                            <p style=""font-size:50px; font-weight:bold;""
                            >Happy</p>
                            <div style=""width:480px; margin: auto;"">
                                <img src=""images/1_Happy_hi_lo_1_tab20_ascend_smlg_bar.png"" width=""480"" height=""420"" style=""object-fit:contain;"">
                            </div>
                        </div>","117","html-slider-response",47,114705,"0.0-41.0","4pmn7rb6wq",0,"","","","","","",0,"",NA,"","Happy","images/1_Happy_hi_lo_1_tab20_ascend_smlg_bar.png",NA,NA
NA,"<div style=""width:500px;"">
                            <p style=""font-size:50px; font-weight:bold;""
                            >Happy</p>
                            <div style=""width:480px; margin: auto;"">
                                <img src=""images/1_Happy_med_lo_1_tab20b_ascend_lgsm_bar.png"" width=""480"" height=""420"" style=""object-fit:contain;"">
                            </div>
                        </div>","-82","html-slider-response",48,116021,"0.0-42.0","4pmn7rb6wq",0,"","","","","","",0,"",NA,"","Happy","images/1_Happy_med_lo_1_tab20b_ascend_lgsm_bar.png",NA,NA
NA,"<div style=""width:500px;"">
                            <p style=""font-size:50px; font-weight:bold;""
                            >Happy</p>
                            <div style=""width:480px; margin: auto;"">
                                <img src=""images/1_Happy_hi_lo_3_Dark2_decend_smlg_bar.png"" width=""480"" height=""420"" style=""object-fit:contain;"">
                            </div>
                        </div>","36","html-slider-response",49,117554,"0.0-43.0","4pmn7rb6wq",0,"","","","","","",0,"",NA,"","Happy","images/1_Happy_hi_lo_3_Dark2_decend_smlg_bar.png",NA,NA
NA,"<div style=""width:500px;"">
                            <p style=""font-size:50px; font-weight:bold;""
                            >Happy</p>
                            <div style=""width:480px; margin: auto;"">
                                <img src=""images/1_Happy_lo_lo_2_tab10new_ascend_smlg_bar.png"" width=""480"" height=""420"" style=""object-fit:contain;"">
                            </div>
                        </div>","-62","html-slider-response",50,119121,"0.0-44.0","4pmn7rb6wq",0,"","","","","","",0,"",NA,"","Happy","images/1_Happy_lo_lo_2_tab10new_ascend_smlg_bar.png",NA,NA
NA,"<div style=""width:500px;"">
                            <p style=""font-size:50px; font-weight:bold;""
                            >Happy</p>
                            <div style=""width:480px; margin: auto;"">
                                <img src=""images/1_Happy_lo_lo_3_tab20_ascend_smlg_bar.png"" width=""480"" height=""420"" style=""object-fit:contain;"">
                            </div>
                        </div>","-48","html-slider-response",51,120837,"0.0-45.0","4pmn7rb6wq",0,"","","","","","",0,"",NA,"","Happy","images/1_Happy_lo_lo_3_tab20_ascend_smlg_bar.png",NA,NA
NA,"<div style=""width:500px;"">
                            <p style=""font-size:50px; font-weight:bold;""
                            >Happy</p>
                            <div style=""width:480px; margin: auto;"">
                                <img src=""images/1_Happy_hi_hi_1_Set1_ascend_lgsm_bar.png"" width=""480"" height=""420"" style=""object-fit:contain;"">
                            </div>
                        </div>","133","html-slider-response",52,122237,"0.0-46.0","4pmn7rb6wq",0,"","","","","","",0,"",NA,"","Happy","images/1_Happy_hi_hi_1_Set1_ascend_lgsm_bar.png",NA,NA
NA,"<div style=""width:500px;"">
                            <p style=""font-size:50px; font-weight:bold;""
                            >Happy</p>
                            <div style=""width:480px; margin: auto;"">
                                <img src=""images/1_Happy_med_med_2_tab20b_ascend_lgsm_bar.png"" width=""480"" height=""420"" style=""object-fit:contain;"">
                            </div>
                        </div>","-24","html-slider-response",53,123687,"0.0-47.0","4pmn7rb6wq",0,"","","","","","",0,"",NA,"","Happy","images/1_Happy_med_med_2_tab20b_ascend_lgsm_bar.png",NA,NA
NA,"<div style=""width:500px;"">
                            <p style=""font-size:50px; font-weight:bold;""
                            >Happy</p>
                            <div style=""width:480px; margin: auto;"">
                                <img src=""images/1_Happy_lo_lo_3_tab20_decend_smlg_bar.png"" width=""480"" height=""420"" style=""object-fit:contain;"">
                            </div>
                        </div>","116","html-slider-response",54,124937,"0.0-48.0","4pmn7rb6wq",0,"","","","","","",0,"",NA,"","Happy","images/1_Happy_lo_lo_3_tab20_decend_smlg_bar.png",NA,NA
NA,"<div style=""width:500px;"">
                            <p style=""font-size:50px; font-weight:bold;""
                            >Happy</p>
                            <div style=""width:480px; margin: auto;"">
                                <img src=""images/1_Happy_hi_lo_2_Set1_ascend_smlg_bar.png"" width=""480"" height=""420"" style=""object-fit:contain;"">
                            </div>
                        </div>","-46","html-slider-response",55,126321,"0.0-49.0","4pmn7rb6wq",0,"","","","","","",0,"",NA,"","Happy","images/1_Happy_hi_lo_2_Set1_ascend_smlg_bar.png",NA,NA
NA,"<div style=""width:500px;"">
                            <p style=""font-size:50px; font-weight:bold;""
                            >Happy</p>
                            <div style=""width:480px; margin: auto;"">
                                <img src=""images/1_Happy_lo_lo_1_tab20b_ascend_smlg_bar.png"" width=""480"" height=""420"" style=""object-fit:contain;"">
                            </div>
                        </div>","-60","html-slider-response",56,127588,"0.0-50.0","4pmn7rb6wq",0,"","","","","","",0,"",NA,"","Happy","images/1_Happy_lo_lo_1_tab20b_ascend_smlg_bar.png",NA,NA
NA,"<div style=""width:500px;"">
                            <p style=""font-size:50px; font-weight:bold;""
                            >Happy</p>
                            <div style=""width:480px; margin: auto;"">
                                <img src=""images/1_Happy_med_lo_1_tab20b_decend_smlg_bar.png"" width=""480"" height=""420"" style=""object-fit:contain;"">
                            </div>
                        </div>","-114","html-slider-response",57,129239,"0.0-51.0","4pmn7rb6wq",0,"","","","","","",0,"",NA,"","Happy","images/1_Happy_med_lo_1_tab20b_decend_smlg_bar.png",NA,NA
NA,"<div style=""width:500px;"">
                            <p style=""font-size:50px; font-weight:bold;""
                            >Happy</p>
                            <div style=""width:480px; margin: auto;"">
                                <img src=""images/1_Happy_hi_lo_3_Dark2_decend_lgsm_bar.png"" width=""480"" height=""420"" style=""object-fit:contain;"">
                            </div>
                        </div>","141","html-slider-response",58,130606,"0.0-52.0","4pmn7rb6wq",0,"","","","","","",0,"",NA,"","Happy","images/1_Happy_hi_lo_3_Dark2_decend_lgsm_bar.png",NA,NA
NA,"<div style=""width:500px;"">
                            <p style=""font-size:50px; font-weight:bold;""
                            >Happy</p>
                            <div style=""width:480px; margin: auto;"">
                                <img src=""images/1_Happy_lo_lo_1_tab20b_decend_smlg_bar.png"" width=""480"" height=""420"" style=""object-fit:contain;"">
                            </div>
                        </div>","-58","html-slider-response",59,131954,"0.0-53.0","4pmn7rb6wq",0,"","","","","","",0,"",NA,"","Happy","images/1_Happy_lo_lo_1_tab20b_decend_smlg_bar.png",NA,NA
NA,"<div style=""width:500px;"">
                            <p style=""font-size:50px; font-weight:bold;""
                            >Happy</p>
                            <div style=""width:480px; margin: auto;"">
                                <img src=""images/1_Happy_lo_lo_2_tab10new_decend_smlg_bar.png"" width=""480"" height=""420"" style=""object-fit:contain;"">
                            </div>
                        </div>","-101","html-slider-response",60,133838,"0.0-54.0","4pmn7rb6wq",0,"","","","","","",0,"",NA,"","Happy","images/1_Happy_lo_lo_2_tab10new_decend_smlg_bar.png",NA,NA
NA,"<div style=""width:500px;"">
                            <p style=""font-size:50px; font-weight:bold;""
                            >Happy</p>
                            <div style=""width:480px; margin: auto;"">
                                <img src=""images/1_Happy_hi_hi_3_Paired_decend_smlg_bar.png"" width=""480"" height=""420"" style=""object-fit:contain;"">
                            </div>
                        </div>","148","html-slider-response",61,135637,"0.0-55.0","4pmn7rb6wq",0,"","","","","","",0,"",NA,"","Happy","images/1_Happy_hi_hi_3_Paired_decend_smlg_bar.png",NA,NA
NA,"<div style=""width:500px;"">
                            <p style=""font-size:50px; font-weight:bold;""
                            >Happy</p>
                            <div style=""width:480px; margin: auto;"">
                                <img src=""images/1_Happy_med_lo_3_tab10new_ascend_smlg_bar.png"" width=""480"" height=""420"" style=""object-fit:contain;"">
                            </div>
                        </div>","-27","html-slider-response",62,136972,"0.0-56.0","4pmn7rb6wq",0,"","","","","","",0,"",NA,"","Happy","images/1_Happy_med_lo_3_tab10new_ascend_smlg_bar.png",NA,NA
NA,"<div style=""width:500px;"">
                            <p style=""font-size:50px; font-weight:bold;""
                            >Happy</p>
                            <div style=""width:480px; margin: auto;"">
                                <img src=""images/1_Happy_hi_hi_3_Paired_decend_lgsm_bar.png"" width=""480"" height=""420"" style=""object-fit:contain;"">
                            </div>
                        </div>","159","html-slider-response",63,138322,"0.0-57.0","4pmn7rb6wq",0,"","","","","","",0,"",NA,"","Happy","images/1_Happy_hi_hi_3_Paired_decend_lgsm_bar.png",NA,NA
NA,"<div style=""width:500px;"">
                            <p style=""font-size:50px; font-weight:bold;""
                            >Happy</p>
                            <div style=""width:480px; margin: auto;"">
                                <img src=""images/1_Happy_med_med_2_tab20b_decend_smlg_bar.png"" width=""480"" height=""420"" style=""object-fit:contain;"">
                            </div>
                        </div>","35","html-slider-response",64,139687,"0.0-58.0","4pmn7rb6wq",0,"","","","","","",0,"",NA,"","Happy","images/1_Happy_med_med_2_tab20b_decend_smlg_bar.png",NA,NA
NA,"<div style=""width:500px;"">
                            <p style=""font-size:50px; font-weight:bold;""
                            >Happy</p>
                            <div style=""width:480px; margin: auto;"">
                                <img src=""images/1_Happy_hi_hi_2_tab20_decend_lgsm_bar.png"" width=""480"" height=""420"" style=""object-fit:contain;"">
                            </div>
                        </div>","138","html-slider-response",65,140821,"0.0-59.0","4pmn7rb6wq",0,"","","","","","",0,"",NA,"","Happy","images/1_Happy_hi_hi_2_tab20_decend_lgsm_bar.png",NA,NA
NA,"<div style=""width:500px;"">
                            <p style=""font-size:50px; font-weight:bold;""
                            >Happy</p>
                            <div style=""width:480px; margin: auto;"">
                                <img src=""images/1_Happy_med_med_3_Set3_ascend_smlg_bar.png"" width=""480"" height=""420"" style=""object-fit:contain;"">
                            </div>
                        </div>","-34","html-slider-response",66,142072,"0.0-60.0","4pmn7rb6wq",0,"","","","","","",0,"",NA,"","Happy","images/1_Happy_med_med_3_Set3_ascend_smlg_bar.png",NA,NA
NA,"<div style=""width:500px;"">
                            <p style=""font-size:50px; font-weight:bold;""
                            >Happy</p>
                            <div style=""width:480px; margin: auto;"">
                                <img src=""images/1_Happy_med_lo_2_tab20_decend_smlg_bar.png"" width=""480"" height=""420"" style=""object-fit:contain;"">
                            </div>
                        </div>","-57","html-slider-response",67,143305,"0.0-61.0","4pmn7rb6wq",0,"","","","","","",0,"",NA,"","Happy","images/1_Happy_med_lo_2_tab20_decend_smlg_bar.png",NA,NA
NA,"<div style=""width:500px;"">
                            <p style=""font-size:50px; font-weight:bold;""
                            >Happy</p>
                            <div style=""width:480px; margin: auto;"">
                                <img src=""images/1_Happy_hi_hi_2_tab20_decend_smlg_bar.png"" width=""480"" height=""420"" style=""object-fit:contain;"">
                            </div>
                        </div>","152","html-slider-response",68,144588,"0.0-62.0","4pmn7rb6wq",0,"","","","","","",0,"",NA,"","Happy","images/1_Happy_hi_hi_2_tab20_decend_smlg_bar.png",NA,NA
NA,"<div style=""width:500px;"">
                            <p style=""font-size:50px; font-weight:bold;""
                            >Happy</p>
                            <div style=""width:480px; margin: auto;"">
                                <img src=""images/1_Happy_hi_md_2_tab20_decend_lgsm_bar.png"" width=""480"" height=""420"" style=""object-fit:contain;"">
                            </div>
                        </div>","94","html-slider-response",69,146055,"0.0-63.0","4pmn7rb6wq",0,"","","","","","",0,"",NA,"","Happy","images/1_Happy_hi_md_2_tab20_decend_lgsm_bar.png",NA,NA
NA,"<div style=""width:500px;"">
                            <p style=""font-size:50px; font-weight:bold;""
                            >Happy</p>
                            <div style=""width:480px; margin: auto;"">
                                <img src=""images/1_Happy_hi_lo_1_tab20_decend_smlg_bar.png"" width=""480"" height=""420"" style=""object-fit:contain;"">
                            </div>
                        </div>","-50","html-slider-response",70,147322,"0.0-64.0","4pmn7rb6wq",0,"","","","","","",0,"",NA,"","Happy","images/1_Happy_hi_lo_1_tab20_decend_smlg_bar.png",NA,NA
NA,"<div style=""width:500px;"">
                            <p style=""font-size:50px; font-weight:bold;""
                            >Happy</p>
                            <div style=""width:480px; margin: auto;"">
                                <img src=""images/1_Happy_lo_lo_2_tab10new_ascend_lgsm_bar.png"" width=""480"" height=""420"" style=""object-fit:contain;"">
                            </div>
                        </div>","-42","html-slider-response",71,148621,"0.0-65.0","4pmn7rb6wq",0,"","","","","","",0,"",NA,"","Happy","images/1_Happy_lo_lo_2_tab10new_ascend_lgsm_bar.png",NA,NA
NA,"<div style=""width:500px;"">
                            <p style=""font-size:50px; font-weight:bold;""
                            >Happy</p>
                            <div style=""width:480px; margin: auto;"">
                                <img src=""images/1_Happy_med_lo_3_tab10new_ascend_lgsm_bar.png"" width=""480"" height=""420"" style=""object-fit:contain;"">
                            </div>
                        </div>","3","html-slider-response",72,150136,"0.0-66.0","4pmn7rb6wq",0,"","","","","","",0,"",NA,"","Happy","images/1_Happy_med_lo_3_tab10new_ascend_lgsm_bar.png",NA,NA
NA,"<div style=""width:500px;"">
                            <p style=""font-size:50px; font-weight:bold;""
                            >Happy</p>
                            <div style=""width:480px; margin: auto;"">
                                <img src=""images/1_Happy_med_med_1_tab20c_ascend_smlg_bar.png"" width=""480"" height=""420"" style=""object-fit:contain;"">
                            </div>
                        </div>","-69","html-slider-response",73,151854,"0.0-67.0","4pmn7rb6wq",0,"","","","","","",0,"",NA,"","Happy","images/1_Happy_med_med_1_tab20c_ascend_smlg_bar.png",NA,NA
NA,"<div style=""width:500px;"">
                            <p style=""font-size:50px; font-weight:bold;""
                            >Happy</p>
                            <div style=""width:480px; margin: auto;"">
                                <img src=""images/1_Happy_med_lo_2_tab20_decend_lgsm_bar.png"" width=""480"" height=""420"" style=""object-fit:contain;"">
                            </div>
                        </div>","-14","html-slider-response",74,153256,"0.0-68.0","4pmn7rb6wq",0,"","","","","","",0,"",NA,"","Happy","images/1_Happy_med_lo_2_tab20_decend_lgsm_bar.png",NA,NA
NA,"<div style=""width:500px;"">
                            <p style=""font-size:50px; font-weight:bold;""
                            >Happy</p>
                            <div style=""width:480px; margin: auto;"">
                                <img src=""images/1_Happy_hi_md_2_tab20_ascend_lgsm_bar.png"" width=""480"" height=""420"" style=""object-fit:contain;"">
                            </div>
                        </div>","152","html-slider-response",75,154504,"0.0-69.0","4pmn7rb6wq",0,"","","","","","",0,"",NA,"","Happy","images/1_Happy_hi_md_2_tab20_ascend_lgsm_bar.png",NA,NA
NA,"<div style=""width:500px;"">
                            <p style=""font-size:50px; font-weight:bold;""
                            >Happy</p>
                            <div style=""width:480px; margin: auto;"">
                                <img src=""images/1_Happy_med_med_1_tab20c_ascend_lgsm_bar.png"" width=""480"" height=""420"" style=""object-fit:contain;"">
                            </div>
                        </div>","-11","html-slider-response",76,155837,"0.0-70.0","4pmn7rb6wq",0,"","","","","","",0,"",NA,"","Happy","images/1_Happy_med_med_1_tab20c_ascend_lgsm_bar.png",NA,NA
NA,"<div style=""width:500px;"">
                            <p style=""font-size:50px; font-weight:bold;""
                            >Happy</p>
                            <div style=""width:480px; margin: auto;"">
                                <img src=""images/1_Happy_hi_md_3_Set2_decend_lgsm_bar.png"" width=""480"" height=""420"" style=""object-fit:contain;"">
                            </div>
                        </div>","129","html-slider-response",77,157137,"0.0-71.0","4pmn7rb6wq",0,"","","","","","",0,"",NA,"","Happy","images/1_Happy_hi_md_3_Set2_decend_lgsm_bar.png",NA,NA
NA,"<div style=""width:500px;"">
                            <p style=""font-size:50px; font-weight:bold;""
                            >Happy</p>
                            <div style=""width:480px; margin: auto;"">
                                <img src=""images/1_Happy_hi_hi_1_Set1_ascend_smlg_bar.png"" width=""480"" height=""420"" style=""object-fit:contain;"">
                            </div>
                        </div>","118","html-slider-response",78,158488,"0.0-72.0","4pmn7rb6wq",0,"","","","","","",0,"",NA,"","Happy","images/1_Happy_hi_hi_1_Set1_ascend_smlg_bar.png",NA,NA
NA,"<div style=""width:500px;"">
                            <p style=""font-size:50px; font-weight:bold;""
                            >Happy</p>
                            <div style=""width:480px; margin: auto;"">
                                <img src=""images/1_Happy_hi_md_2_tab20_ascend_smlg_bar.png"" width=""480"" height=""420"" style=""object-fit:contain;"">
                            </div>
                        </div>","150","html-slider-response",79,159721,"0.0-73.0","4pmn7rb6wq",0,"","","","","","",0,"",NA,"","Happy","images/1_Happy_hi_md_2_tab20_ascend_smlg_bar.png",NA,NA
NA,"<div style=""width:500px;"">
                            <p style=""font-size:50px; font-weight:bold;""
                            >Happy</p>
                            <div style=""width:480px; margin: auto;"">
                                <img src=""images/1_Happy_hi_md_3_Set2_decend_smlg_bar.png"" width=""480"" height=""420"" style=""object-fit:contain;"">
                            </div>
                        </div>","149","html-slider-response",80,161287,"0.0-74.0","4pmn7rb6wq",0,"","","","","","",0,"",NA,"","Happy","images/1_Happy_hi_md_3_Set2_decend_smlg_bar.png",NA,NA
NA,"<div style=""width:500px;"">
                            <p style=""font-size:50px; font-weight:bold;""
                            >Happy</p>
                            <div style=""width:480px; margin: auto;"">
                                <img src=""images/1_Happy_hi_md_1_Set1_decend_lgsm_bar.png"" width=""480"" height=""420"" style=""object-fit:contain;"">
                            </div>
                        </div>","110","html-slider-response",81,162804,"0.0-75.0","4pmn7rb6wq",0,"","","","","","",0,"",NA,"","Happy","images/1_Happy_hi_md_1_Set1_decend_lgsm_bar.png",NA,NA
NA,"<div style=""width:500px;"">
                            <p style=""font-size:50px; font-weight:bold;""
                            >Happy</p>
                            <div style=""width:480px; margin: auto;"">
                                <img src=""images/1_Happy_hi_hi_3_Paired_ascend_smlg_bar.png"" width=""480"" height=""420"" style=""object-fit:contain;"">
                            </div>
                        </div>","117","html-slider-response",82,164140,"0.0-76.0","4pmn7rb6wq",0,"","","","","","",0,"",NA,"","Happy","images/1_Happy_hi_hi_3_Paired_ascend_smlg_bar.png",NA,NA
NA,"<div style=""width:500px;"">
                            <p style=""font-size:50px; font-weight:bold;""
                            >Happy</p>
                            <div style=""width:480px; margin: auto;"">
                                <img src=""images/1_Happy_med_med_3_Set3_ascend_lgsm_bar.png"" width=""480"" height=""420"" style=""object-fit:contain;"">
                            </div>
                        </div>","-58","html-slider-response",83,165587,"0.0-77.0","4pmn7rb6wq",0,"","","","","","",0,"",NA,"","Happy","images/1_Happy_med_med_3_Set3_ascend_lgsm_bar.png",NA,NA
NA,"<div style=""width:500px;"">
                            <p style=""font-size:50px; font-weight:bold;""
                            >Happy</p>
                            <div style=""width:480px; margin: auto;"">
                                <img src=""images/1_Happy_med_med_3_Set3_decend_smlg_bar.png"" width=""480"" height=""420"" style=""object-fit:contain;"">
                            </div>
                        </div>","-46","html-slider-response",84,167021,"0.0-78.0","4pmn7rb6wq",0,"","","","","","",0,"",NA,"","Happy","images/1_Happy_med_med_3_Set3_decend_smlg_bar.png",NA,NA
NA,"<div style=""width:500px;"">
                            <p style=""font-size:50px; font-weight:bold;""
                            >Happy</p>
                            <div style=""width:480px; margin: auto;"">
                                <img src=""images/1_Happy_med_lo_1_tab20b_ascend_smlg_bar.png"" width=""480"" height=""420"" style=""object-fit:contain;"">
                            </div>
                        </div>","-18","html-slider-response",85,168171,"0.0-79.0","4pmn7rb6wq",0,"","","","","","",0,"",NA,"","Happy","images/1_Happy_med_lo_1_tab20b_ascend_smlg_bar.png",NA,NA
NA,"<div style=""width:500px;"">
                            <p style=""font-size:50px; font-weight:bold;""
                            >Happy</p>
                            <div style=""width:480px; margin: auto;"">
                                <img src=""images/1_Happy_hi_hi_2_tab20_ascend_smlg_bar.png"" width=""480"" height=""420"" style=""object-fit:contain;"">
                            </div>
                        </div>","190","html-slider-response",86,169454,"0.0-80.0","4pmn7rb6wq",0,"","","","","","",0,"",NA,"","Happy","images/1_Happy_hi_hi_2_tab20_ascend_smlg_bar.png",NA,NA
NA,"<div style=""width:500px;"">
                            <p style=""font-size:50px; font-weight:bold;""
                            >Happy</p>
                            <div style=""width:480px; margin: auto;"">
                                <img src=""images/1_Happy_med_med_2_tab20b_ascend_smlg_bar.png"" width=""480"" height=""420"" style=""object-fit:contain;"">
                            </div>
                        </div>","-36","html-slider-response",87,170887,"0.0-81.0","4pmn7rb6wq",0,"","","","","","",0,"",NA,"","Happy","images/1_Happy_med_med_2_tab20b_ascend_smlg_bar.png",NA,NA
NA,"<div style=""width:500px;"">
                            <p style=""font-size:50px; font-weight:bold;""
                            >Happy</p>
                            <div style=""width:480px; margin: auto;"">
                                <img src=""images/1_Happy_hi_lo_2_Set1_decend_lgsm_bar.png"" width=""480"" height=""420"" style=""object-fit:contain;"">
                            </div>
                        </div>","-36","html-slider-response",88,172188,"0.0-82.0","4pmn7rb6wq",0,"","","","","","",0,"",NA,"","Happy","images/1_Happy_hi_lo_2_Set1_decend_lgsm_bar.png",NA,NA
NA,"<div style=""width:500px;"">
                            <p style=""font-size:50px; font-weight:bold;""
                            >Happy</p>
                            <div style=""width:480px; margin: auto;"">
                                <img src=""images/1_Happy_med_med_1_tab20c_decend_lgsm_bar.png"" width=""480"" height=""420"" style=""object-fit:contain;"">
                            </div>
                        </div>","-39","html-slider-response",89,173404,"0.0-83.0","4pmn7rb6wq",0,"","","","","","",0,"",NA,"","Happy","images/1_Happy_med_med_1_tab20c_decend_lgsm_bar.png",NA,NA
NA,"<div style=""width:500px;"">
                            <p style=""font-size:50px; font-weight:bold;""
                            >Happy</p>
                            <div style=""width:480px; margin: auto;"">
                                <img src=""images/1_Happy_med_lo_3_tab10new_decend_smlg_bar.png"" width=""480"" height=""420"" style=""object-fit:contain;"">
                            </div>
                        </div>","-45","html-slider-response",90,174638,"0.0-84.0","4pmn7rb6wq",0,"","","","","","",0,"",NA,"","Happy","images/1_Happy_med_lo_3_tab10new_decend_smlg_bar.png",NA,NA
NA,"<div style=""width:500px;"">
                            <p style=""font-size:50px; font-weight:bold;""
                            >Happy</p>
                            <div style=""width:480px; margin: auto;"">
                                <img src=""images/1_Happy_hi_md_1_Set1_ascend_smlg_bar.png"" width=""480"" height=""420"" style=""object-fit:contain;"">
                            </div>
                        </div>","135","html-slider-response",91,176187,"0.0-85.0","4pmn7rb6wq",0,"","","","","","",0,"",NA,"","Happy","images/1_Happy_hi_md_1_Set1_ascend_smlg_bar.png",NA,NA
1586,"<p>Great Job! You've finished block 1.<br></br> You have 4 block(s) left to go.<br></br></p>","0","html-button-response",92,178276,"0.0-86.0","4pmn7rb6wq",0,"","","","","","",NA,"",NA,"","","",NA,NA
882,"<p>In this block of trials, you will be asked to rate how much you associate each texture with the concept</p >
                        <p style = 'font-size:150%; font-weight: bold'>Angry</p><br></br>","0","html-button-response",93,179160,"0.0-87.0","4pmn7rb6wq",0,"","","","","","",NA,"",NA,"","","",NA,NA
NA,"<div style=""width:500px;"">
                            <p style=""font-size:50px; font-weight:bold;""
                            >Angry</p>
                            <div style=""width:480px; margin: auto;"">
                                <img src=""images/1_Angry_hi_md_1_Set1_decend_lgsm_bar.png"" width=""480"" height=""420"" style=""object-fit:contain;"">
                            </div>
                        </div>","30","html-slider-response",94,180805,"0.0-88.0","4pmn7rb6wq",0,"","","","","","",0,"",NA,"","Angry","images/1_Angry_hi_md_1_Set1_decend_lgsm_bar.png",NA,NA
NA,"<div style=""width:500px;"">
                            <p style=""font-size:50px; font-weight:bold;""
                            >Angry</p>
                            <div style=""width:480px; margin: auto;"">
                                <img src=""images/1_Angry_hi_lo_1_tab20_decend_smlg_bar.png"" width=""480"" height=""420"" style=""object-fit:contain;"">
                            </div>
                        </div>","73","html-slider-response",95,182387,"0.0-89.0","4pmn7rb6wq",0,"","","","","","",0,"",NA,"","Angry","images/1_Angry_hi_lo_1_tab20_decend_smlg_bar.png",NA,NA
NA,"<div style=""width:500px;"">
                            <p style=""font-size:50px; font-weight:bold;""
                            >Angry</p>
                            <div style=""width:480px; margin: auto;"">
                                <img src=""images/1_Angry_hi_hi_3_tab10new_ascend_smlg_bar.png"" width=""480"" height=""420"" style=""object-fit:contain;"">
                            </div>
                        </div>","56","html-slider-response",96,184288,"0.0-90.0","4pmn7rb6wq",0,"","","","","","",0,"",NA,"","Angry","images/1_Angry_hi_hi_3_tab10new_ascend_smlg_bar.png",NA,NA
NA,"<div style=""width:500px;"">
                            <p style=""font-size:50px; font-weight:bold;""
                            >Angry</p>
                            <div style=""width:480px; margin: auto;"">
                                <img src=""images/1_Angry_hi_lo_2_tab20c_decend_smlg_bar.png"" width=""480"" height=""420"" style=""object-fit:contain;"">
                            </div>
                        </div>","129","html-slider-response",97,185971,"0.0-91.0","4pmn7rb6wq",0,"","","","","","",0,"",NA,"","Angry","images/1_Angry_hi_lo_2_tab20c_decend_smlg_bar.png",NA,NA
NA,"<div style=""width:500px;"">
                            <p style=""font-size:50px; font-weight:bold;""
                            >Angry</p>
                            <div style=""width:480px; margin: auto;"">
                                <img src=""images/1_Angry_hi_md_3_Paired_decend_lgsm_bar.png"" width=""480"" height=""420"" style=""object-fit:contain;"">
                            </div>
                        </div>","14","html-slider-response",98,187121,"0.0-92.0","4pmn7rb6wq",0,"","","","","","",0,"",NA,"","Angry","images/1_Angry_hi_md_3_Paired_decend_lgsm_bar.png",NA,NA
NA,"<div style=""width:500px;"">
                            <p style=""font-size:50px; font-weight:bold;""
                            >Angry</p>
                            <div style=""width:480px; margin: auto;"">
                                <img src=""images/1_Angry_med_med_1_tab20b_decend_smlg_bar.png"" width=""480"" height=""420"" style=""object-fit:contain;"">
                            </div>
                        </div>","-46","html-slider-response",99,192455,"0.0-93.0","4pmn7rb6wq",0,"","","","","","",0,"",NA,"","Angry","images/1_Angry_med_med_1_tab20b_decend_smlg_bar.png",NA,NA
NA,"<div style=""width:500px;"">
                            <p style=""font-size:50px; font-weight:bold;""
                            >Angry</p>
                            <div style=""width:480px; margin: auto;"">
                                <img src=""images/1_Angry_hi_md_1_Set1_ascend_lgsm_bar.png"" width=""480"" height=""420"" style=""object-fit:contain;"">
                            </div>
                        </div>","-74","html-slider-response",100,194437,"0.0-94.0","4pmn7rb6wq",0,"","","","","","",0,"",NA,"","Angry","images/1_Angry_hi_md_1_Set1_ascend_lgsm_bar.png",NA,NA
NA,"<div style=""width:500px;"">
                            <p style=""font-size:50px; font-weight:bold;""
                            >Angry</p>
                            <div style=""width:480px; margin: auto;"">
                                <img src=""images/1_Angry_med_med_3_Set1_decend_lgsm_bar.png"" width=""480"" height=""420"" style=""object-fit:contain;"">
                            </div>
                        </div>","-71","html-slider-response",101,196021,"0.0-95.0","4pmn7rb6wq",0,"","","","","","",0,"",NA,"","Angry","images/1_Angry_med_med_3_Set1_decend_lgsm_bar.png",NA,NA
NA,"<div style=""width:500px;"">
                            <p style=""font-size:50px; font-weight:bold;""
                            >Angry</p>
                            <div style=""width:480px; margin: auto;"">
                                <img src=""images/1_Angry_hi_lo_1_tab20_decend_lgsm_bar.png"" width=""480"" height=""420"" style=""object-fit:contain;"">
                            </div>
                        </div>","200","html-slider-response",102,197389,"0.0-96.0","4pmn7rb6wq",0,"","","","","","",0,"",NA,"","Angry","images/1_Angry_hi_lo_1_tab20_decend_lgsm_bar.png",NA,NA
NA,"<div style=""width:500px;"">
                            <p style=""font-size:50px; font-weight:bold;""
                            >Angry</p>
                            <div style=""width:480px; margin: auto;"">
                                <img src=""images/1_Angry_med_med_1_tab20b_ascend_smlg_bar.png"" width=""480"" height=""420"" style=""object-fit:contain;"">
                            </div>
                        </div>","-44","html-slider-response",103,199104,"0.0-97.0","4pmn7rb6wq",0,"","","","","","",0,"",NA,"","Angry","images/1_Angry_med_med_1_tab20b_ascend_smlg_bar.png",NA,NA
NA,"<div style=""width:500px;"">
                            <p style=""font-size:50px; font-weight:bold;""
                            >Angry</p>
                            <div style=""width:480px; margin: auto;"">
                                <img src=""images/1_Angry_hi_md_3_Paired_decend_smlg_bar.png"" width=""480"" height=""420"" style=""object-fit:contain;"">
                            </div>
                        </div>","200","html-slider-response",104,200755,"0.0-98.0","4pmn7rb6wq",0,"","","","","","",0,"",NA,"","Angry","images/1_Angry_hi_md_3_Paired_decend_smlg_bar.png",NA,NA
NA,"<div style=""width:500px;"">
                            <p style=""font-size:50px; font-weight:bold;""
                            >Angry</p>
                            <div style=""width:480px; margin: auto;"">
                                <img src=""images/1_Angry_med_lo_2_Pastel2_decend_lgsm_bar.png"" width=""480"" height=""420"" style=""object-fit:contain;"">
                            </div>
                        </div>","-133","html-slider-response",105,202388,"0.0-99.0","4pmn7rb6wq",0,"","","","","","",0,"",NA,"","Angry","images/1_Angry_med_lo_2_Pastel2_decend_lgsm_bar.png",NA,NA
NA,"<div style=""width:500px;"">
                            <p style=""font-size:50px; font-weight:bold;""
                            >Angry</p>
                            <div style=""width:480px; margin: auto;"">
                                <img src=""images/1_Angry_hi_hi_1_tab20_ascend_smlg_bar.png"" width=""480"" height=""420"" style=""object-fit:contain;"">
                            </div>
                        </div>","200","html-slider-response",106,203856,"0.0-100.0","4pmn7rb6wq",0,"","","","","","",0,"",NA,"","Angry","images/1_Angry_hi_hi_1_tab20_ascend_smlg_bar.png",NA,NA
NA,"<div style=""width:500px;"">
                            <p style=""font-size:50px; font-weight:bold;""
                            >Angry</p>
                            <div style=""width:480px; margin: auto;"">
                                <img src=""images/1_Angry_hi_md_2_tab20_ascend_lgsm_bar.png"" width=""480"" height=""420"" style=""object-fit:contain;"">
                            </div>
                        </div>","-34","html-slider-response",107,205306,"0.0-101.0","4pmn7rb6wq",0,"","","","","","",0,"",NA,"","Angry","images/1_Angry_hi_md_2_tab20_ascend_lgsm_bar.png",NA,NA
NA,"<div style=""width:500px;"">
                            <p style=""font-size:50px; font-weight:bold;""
                            >Angry</p>
                            <div style=""width:480px; margin: auto;"">
                                <img src=""images/1_Angry_med_med_1_tab20b_ascend_lgsm_bar.png"" width=""480"" height=""420"" style=""object-fit:contain;"">
                            </div>
                        </div>","129","html-slider-response",108,206487,"0.0-102.0","4pmn7rb6wq",0,"","","","","","",0,"",NA,"","Angry","images/1_Angry_med_med_1_tab20b_ascend_lgsm_bar.png",NA,NA
NA,"<div style=""width:500px;"">
                            <p style=""font-size:50px; font-weight:bold;""
                            >Angry</p>
                            <div style=""width:480px; margin: auto;"">
                                <img src=""images/1_Angry_hi_hi_2_Paired_decend_smlg_bar.png"" width=""480"" height=""420"" style=""object-fit:contain;"">
                            </div>
                        </div>","106","html-slider-response",109,208038,"0.0-103.0","4pmn7rb6wq",0,"","","","","","",0,"",NA,"","Angry","images/1_Angry_hi_hi_2_Paired_decend_smlg_bar.png",NA,NA
NA,"<div style=""width:500px;"">
                            <p style=""font-size:50px; font-weight:bold;""
                            >Angry</p>
                            <div style=""width:480px; margin: auto;"">
                                <img src=""images/1_Angry_hi_hi_3_tab10new_decend_lgsm_bar.png"" width=""480"" height=""420"" style=""object-fit:contain;"">
                            </div>
                        </div>","134","html-slider-response",110,209413,"0.0-104.0","4pmn7rb6wq",0,"","","","","","",0,"",NA,"","Angry","images/1_Angry_hi_hi_3_tab10new_decend_lgsm_bar.png",NA,NA
NA,"<div style=""width:500px;"">
                            <p style=""font-size:50px; font-weight:bold;""
                            >Angry</p>
                            <div style=""width:480px; margin: auto;"">
                                <img src=""images/1_Angry_med_lo_2_Pastel2_ascend_lgsm_bar.png"" width=""480"" height=""420"" style=""object-fit:contain;"">
                            </div>
                        </div>","-33","html-slider-response",111,211104,"0.0-105.0","4pmn7rb6wq",0,"","","","","","",0,"",NA,"","Angry","images/1_Angry_med_lo_2_Pastel2_ascend_lgsm_bar.png",NA,NA
NA,"<div style=""width:500px;"">
                            <p style=""font-size:50px; font-weight:bold;""
                            >Angry</p>
                            <div style=""width:480px; margin: auto;"">
                                <img src=""images/1_Angry_med_lo_3_Pastel1_ascend_smlg_bar.png"" width=""480"" height=""420"" style=""object-fit:contain;"">
                            </div>
                        </div>","-62","html-slider-response",112,212804,"0.0-106.0","4pmn7rb6wq",0,"","","","","","",0,"",NA,"","Angry","images/1_Angry_med_lo_3_Pastel1_ascend_smlg_bar.png",NA,NA
NA,"<div style=""width:500px;"">
                            <p style=""font-size:50px; font-weight:bold;""
                            >Angry</p>
                            <div style=""width:480px; margin: auto;"">
                                <img src=""images/1_Angry_hi_md_2_tab20_decend_lgsm_bar.png"" width=""480"" height=""420"" style=""object-fit:contain;"">
                            </div>
                        </div>","141","html-slider-response",113,215339,"0.0-107.0","4pmn7rb6wq",0,"","","","","","",0,"",NA,"","Angry","images/1_Angry_hi_md_2_tab20_decend_lgsm_bar.png",NA,NA
NA,"<div style=""width:500px;"">
                            <p style=""font-size:50px; font-weight:bold;""
                            >Angry</p>
                            <div style=""width:480px; margin: auto;"">
                                <img src=""images/1_Angry_hi_lo_1_tab20_ascend_smlg_bar.png"" width=""480"" height=""420"" style=""object-fit:contain;"">
                            </div>
                        </div>","172","html-slider-response",114,216789,"0.0-108.0","4pmn7rb6wq",0,"","","","","","",0,"",NA,"","Angry","images/1_Angry_hi_lo_1_tab20_ascend_smlg_bar.png",NA,NA
NA,"<div style=""width:500px;"">
                            <p style=""font-size:50px; font-weight:bold;""
                            >Angry</p>
                            <div style=""width:480px; margin: auto;"">
                                <img src=""images/1_Angry_hi_lo_2_tab20c_ascend_lgsm_bar.png"" width=""480"" height=""420"" style=""object-fit:contain;"">
                            </div>
                        </div>","-44","html-slider-response",115,218154,"0.0-109.0","4pmn7rb6wq",0,"","","","","","",0,"",NA,"","Angry","images/1_Angry_hi_lo_2_tab20c_ascend_lgsm_bar.png",NA,NA
NA,"<div style=""width:500px;"">
                            <p style=""font-size:50px; font-weight:bold;""
                            >Angry</p>
                            <div style=""width:480px; margin: auto;"">
                                <img src=""images/1_Angry_hi_hi_1_tab20_ascend_lgsm_bar.png"" width=""480"" height=""420"" style=""object-fit:contain;"">
                            </div>
                        </div>","119","html-slider-response",116,219404,"0.0-110.0","4pmn7rb6wq",0,"","","","","","",0,"",NA,"","Angry","images/1_Angry_hi_hi_1_tab20_ascend_lgsm_bar.png",NA,NA
NA,"<div style=""width:500px;"">
                            <p style=""font-size:50px; font-weight:bold;""
                            >Angry</p>
                            <div style=""width:480px; margin: auto;"">
                                <img src=""images/1_Angry_med_med_2_Paired_ascend_smlg_bar.png"" width=""480"" height=""420"" style=""object-fit:contain;"">
                            </div>
                        </div>","82","html-slider-response",117,220854,"0.0-111.0","4pmn7rb6wq",0,"","","","","","",0,"",NA,"","Angry","images/1_Angry_med_med_2_Paired_ascend_smlg_bar.png",NA,NA
NA,"<div style=""width:500px;"">
                            <p style=""font-size:50px; font-weight:bold;""
                            >Angry</p>
                            <div style=""width:480px; margin: auto;"">
                                <img src=""images/1_Angry_med_med_2_Paired_decend_lgsm_bar.png"" width=""480"" height=""420"" style=""object-fit:contain;"">
                            </div>
                        </div>","-26","html-slider-response",118,222854,"0.0-112.0","4pmn7rb6wq",0,"","","","","","",0,"",NA,"","Angry","images/1_Angry_med_med_2_Paired_decend_lgsm_bar.png",NA,NA
NA,"<div style=""width:500px;"">
                            <p style=""font-size:50px; font-weight:bold;""
                            >Angry</p>
                            <div style=""width:480px; margin: auto;"">
                                <img src=""images/1_Angry_med_lo_2_Pastel2_ascend_smlg_bar.png"" width=""480"" height=""420"" style=""object-fit:contain;"">
                            </div>
                        </div>","-55","html-slider-response",119,224404,"0.0-113.0","4pmn7rb6wq",0,"","","","","","",0,"",NA,"","Angry","images/1_Angry_med_lo_2_Pastel2_ascend_smlg_bar.png",NA,NA
NA,"<div style=""width:500px;"">
                            <p style=""font-size:50px; font-weight:bold;""
                            >Angry</p>
                            <div style=""width:480px; margin: auto;"">
                                <img src=""images/1_Angry_hi_lo_3_Paired_ascend_smlg_bar.png"" width=""480"" height=""420"" style=""object-fit:contain;"">
                            </div>
                        </div>","164","html-slider-response",120,225987,"0.0-114.0","4pmn7rb6wq",0,"","","","","","",0,"",NA,"","Angry","images/1_Angry_hi_lo_3_Paired_ascend_smlg_bar.png",NA,NA
NA,"<div style=""width:500px;"">
                            <p style=""font-size:50px; font-weight:bold;""
                            >Angry</p>
                            <div style=""width:480px; margin: auto;"">
                                <img src=""images/1_Angry_hi_md_3_Paired_ascend_lgsm_bar.png"" width=""480"" height=""420"" style=""object-fit:contain;"">
                            </div>
                        </div>","129","html-slider-response",121,227554,"0.0-115.0","4pmn7rb6wq",0,"","","","","","",0,"",NA,"","Angry","images/1_Angry_hi_md_3_Paired_ascend_lgsm_bar.png",NA,NA
NA,"<div style=""width:500px;"">
                            <p style=""font-size:50px; font-weight:bold;""
                            >Angry</p>
                            <div style=""width:480px; margin: auto;"">
                                <img src=""images/1_Angry_med_med_3_Set1_ascend_smlg_bar.png"" width=""480"" height=""420"" style=""object-fit:contain;"">
                            </div>
                        </div>","-85","html-slider-response",122,229187,"0.0-116.0","4pmn7rb6wq",0,"","","","","","",0,"",NA,"","Angry","images/1_Angry_med_med_3_Set1_ascend_smlg_bar.png",NA,NA
NA,"<div style=""width:500px;"">
                            <p style=""font-size:50px; font-weight:bold;""
                            >Angry</p>
                            <div style=""width:480px; margin: auto;"">
                                <img src=""images/1_Angry_med_lo_1_tab20c_ascend_lgsm_bar.png"" width=""480"" height=""420"" style=""object-fit:contain;"">
                            </div>
                        </div>","-121","html-slider-response",123,230571,"0.0-117.0","4pmn7rb6wq",0,"","","","","","",0,"",NA,"","Angry","images/1_Angry_med_lo_1_tab20c_ascend_lgsm_bar.png",NA,NA
NA,"<div style=""width:500px;"">
                            <p style=""font-size:50px; font-weight:bold;""
                            >Angry</p>
                            <div style=""width:480px; margin: auto;"">
                                <img src=""images/1_Angry_med_lo_3_Pastel1_decend_smlg_bar.png"" width=""480"" height=""420"" style=""object-fit:contain;"">
                            </div>
                        </div>","-90","html-slider-response",124,231921,"0.0-118.0","4pmn7rb6wq",0,"","","","","","",0,"",NA,"","Angry","images/1_Angry_med_lo_3_Pastel1_decend_smlg_bar.png",NA,NA
NA,"<div style=""width:500px;"">
                            <p style=""font-size:50px; font-weight:bold;""
                            >Angry</p>
                            <div style=""width:480px; margin: auto;"">
                                <img src=""images/1_Angry_med_med_3_Set1_ascend_lgsm_bar.png"" width=""480"" height=""420"" style=""object-fit:contain;"">
                            </div>
                        </div>","16","html-slider-response",125,233513,"0.0-119.0","4pmn7rb6wq",0,"","","","","","",0,"",NA,"","Angry","images/1_Angry_med_med_3_Set1_ascend_lgsm_bar.png",NA,NA
NA,"<div style=""width:500px;"">
                            <p style=""font-size:50px; font-weight:bold;""
                            >Angry</p>
                            <div style=""width:480px; margin: auto;"">
                                <img src=""images/1_Angry_lo_lo_2_Pastel1_ascend_lgsm_bar.png"" width=""480"" height=""420"" style=""object-fit:contain;"">
                            </div>
                        </div>","-77","html-slider-response",126,235071,"0.0-120.0","4pmn7rb6wq",0,"","","","","","",0,"",NA,"","Angry","images/1_Angry_lo_lo_2_Pastel1_ascend_lgsm_bar.png",NA,NA
NA,"<div style=""width:500px;"">
                            <p style=""font-size:50px; font-weight:bold;""
                            >Angry</p>
                            <div style=""width:480px; margin: auto;"">
                                <img src=""images/1_Angry_hi_lo_2_tab20c_ascend_smlg_bar.png"" width=""480"" height=""420"" style=""object-fit:contain;"">
                            </div>
                        </div>","150","html-slider-response",127,236671,"0.0-121.0","4pmn7rb6wq",0,"","","","","","",0,"",NA,"","Angry","images/1_Angry_hi_lo_2_tab20c_ascend_smlg_bar.png",NA,NA
NA,"<div style=""width:500px;"">
                            <p style=""font-size:50px; font-weight:bold;""
                            >Angry</p>
                            <div style=""width:480px; margin: auto;"">
                                <img src=""images/1_Angry_med_lo_2_Pastel2_decend_smlg_bar.png"" width=""480"" height=""420"" style=""object-fit:contain;"">
                            </div>
                        </div>","-42","html-slider-response",128,238254,"0.0-122.0","4pmn7rb6wq",0,"","","","","","",0,"",NA,"","Angry","images/1_Angry_med_lo_2_Pastel2_decend_smlg_bar.png",NA,NA
NA,"<div style=""width:500px;"">
                            <p style=""font-size:50px; font-weight:bold;""
                            >Angry</p>
                            <div style=""width:480px; margin: auto;"">
                                <img src=""images/1_Angry_hi_md_2_tab20_decend_smlg_bar.png"" width=""480"" height=""420"" style=""object-fit:contain;"">
                            </div>
                        </div>","-34","html-slider-response",129,239872,"0.0-123.0","4pmn7rb6wq",0,"","","","","","",0,"",NA,"","Angry","images/1_Angry_hi_md_2_tab20_decend_smlg_bar.png",NA,NA
NA,"<div style=""width:500px;"">
                            <p style=""font-size:50px; font-weight:bold;""
                            >Angry</p>
                            <div style=""width:480px; margin: auto;"">
                                <img src=""images/1_Angry_lo_lo_1_tab20c_decend_lgsm_bar.png"" width=""480"" height=""420"" style=""object-fit:contain;"">
                            </div>
                        </div>","-35","html-slider-response",130,241004,"0.0-124.0","4pmn7rb6wq",0,"","","","","","",0,"",NA,"","Angry","images/1_Angry_lo_lo_1_tab20c_decend_lgsm_bar.png",NA,NA
NA,"<div style=""width:500px;"">
                            <p style=""font-size:50px; font-weight:bold;""
                            >Angry</p>
                            <div style=""width:480px; margin: auto;"">
                                <img src=""images/1_Angry_lo_lo_2_Pastel1_decend_lgsm_bar.png"" width=""480"" height=""420"" style=""object-fit:contain;"">
                            </div>
                        </div>","-101","html-slider-response",131,242321,"0.0-125.0","4pmn7rb6wq",0,"","","","","","",0,"",NA,"","Angry","images/1_Angry_lo_lo_2_Pastel1_decend_lgsm_bar.png",NA,NA
NA,"<div style=""width:500px;"">
                            <p style=""font-size:50px; font-weight:bold;""
                            >Angry</p>
                            <div style=""width:480px; margin: auto;"">
                                <img src=""images/1_Angry_med_med_2_Paired_decend_smlg_bar.png"" width=""480"" height=""420"" style=""object-fit:contain;"">
                            </div>
                        </div>","-89","html-slider-response",132,243521,"0.0-126.0","4pmn7rb6wq",0,"","","","","","",0,"",NA,"","Angry","images/1_Angry_med_med_2_Paired_decend_smlg_bar.png",NA,NA
NA,"<div style=""width:500px;"">
                            <p style=""font-size:50px; font-weight:bold;""
                            >Angry</p>
                            <div style=""width:480px; margin: auto;"">
                                <img src=""images/1_Angry_hi_md_2_tab20_ascend_smlg_bar.png"" width=""480"" height=""420"" style=""object-fit:contain;"">
                            </div>
                        </div>","90","html-slider-response",133,245054,"0.0-127.0","4pmn7rb6wq",0,"","","","","","",0,"",NA,"","Angry","images/1_Angry_hi_md_2_tab20_ascend_smlg_bar.png",NA,NA
NA,"<div style=""width:500px;"">
                            <p style=""font-size:50px; font-weight:bold;""
                            >Angry</p>
                            <div style=""width:480px; margin: auto;"">
                                <img src=""images/1_Angry_lo_lo_1_tab20c_ascend_smlg_bar.png"" width=""480"" height=""420"" style=""object-fit:contain;"">
                            </div>
                        </div>","-74","html-slider-response",134,246321,"0.0-128.0","4pmn7rb6wq",0,"","","","","","",0,"",NA,"","Angry","images/1_Angry_lo_lo_1_tab20c_ascend_smlg_bar.png",NA,NA
NA,"<div style=""width:500px;"">
                            <p style=""font-size:50px; font-weight:bold;""
                            >Angry</p>
                            <div style=""width:480px; margin: auto;"">
                                <img src=""images/1_Angry_lo_lo_1_tab20c_decend_smlg_bar.png"" width=""480"" height=""420"" style=""object-fit:contain;"">
                            </div>
                        </div>","-56","html-slider-response",135,247704,"0.0-129.0","4pmn7rb6wq",0,"","","","","","",0,"",NA,"","Angry","images/1_Angry_lo_lo_1_tab20c_decend_smlg_bar.png",NA,NA
NA,"<div style=""width:500px;"">
                            <p style=""font-size:50px; font-weight:bold;""
                            >Angry</p>
                            <div style=""width:480px; margin: auto;"">
                                <img src=""images/1_Angry_lo_lo_3_Pastel2_ascend_lgsm_bar.png"" width=""480"" height=""420"" style=""object-fit:contain;"">
                            </div>
                        </div>","-109","html-slider-response",136,248971,"0.0-130.0","4pmn7rb6wq",0,"","","","","","",0,"",NA,"","Angry","images/1_Angry_lo_lo_3_Pastel2_ascend_lgsm_bar.png",NA,NA
NA,"<div style=""width:500px;"">
                            <p style=""font-size:50px; font-weight:bold;""
                            >Angry</p>
                            <div style=""width:480px; margin: auto;"">
                                <img src=""images/1_Angry_hi_md_3_Paired_ascend_smlg_bar.png"" width=""480"" height=""420"" style=""object-fit:contain;"">
                            </div>
                        </div>","157","html-slider-response",137,250305,"0.0-131.0","4pmn7rb6wq",0,"","","","","","",0,"",NA,"","Angry","images/1_Angry_hi_md_3_Paired_ascend_smlg_bar.png",NA,NA
NA,"<div style=""width:500px;"">
                            <p style=""font-size:50px; font-weight:bold;""
                            >Angry</p>
                            <div style=""width:480px; margin: auto;"">
                                <img src=""images/1_Angry_hi_lo_3_Paired_decend_lgsm_bar.png"" width=""480"" height=""420"" style=""object-fit:contain;"">
                            </div>
                        </div>","200","html-slider-response",138,251754,"0.0-132.0","4pmn7rb6wq",0,"","","","","","",0,"",NA,"","Angry","images/1_Angry_hi_lo_3_Paired_decend_lgsm_bar.png",NA,NA
NA,"<div style=""width:500px;"">
                            <p style=""font-size:50px; font-weight:bold;""
                            >Angry</p>
                            <div style=""width:480px; margin: auto;"">
                                <img src=""images/1_Angry_lo_lo_3_Pastel2_decend_smlg_bar.png"" width=""480"" height=""420"" style=""object-fit:contain;"">
                            </div>
                        </div>","-108","html-slider-response",139,253087,"0.0-133.0","4pmn7rb6wq",0,"","","","","","",0,"",NA,"","Angry","images/1_Angry_lo_lo_3_Pastel2_decend_smlg_bar.png",NA,NA
NA,"<div style=""width:500px;"">
                            <p style=""font-size:50px; font-weight:bold;""
                            >Angry</p>
                            <div style=""width:480px; margin: auto;"">
                                <img src=""images/1_Angry_hi_hi_3_tab10new_ascend_lgsm_bar.png"" width=""480"" height=""420"" style=""object-fit:contain;"">
                            </div>
                        </div>","-62","html-slider-response",140,254521,"0.0-134.0","4pmn7rb6wq",0,"","","","","","",0,"",NA,"","Angry","images/1_Angry_hi_hi_3_tab10new_ascend_lgsm_bar.png",NA,NA
NA,"<div style=""width:500px;"">
                            <p style=""font-size:50px; font-weight:bold;""
                            >Angry</p>
                            <div style=""width:480px; margin: auto;"">
                                <img src=""images/1_Angry_hi_hi_2_Paired_ascend_smlg_bar.png"" width=""480"" height=""420"" style=""object-fit:contain;"">
                            </div>
                        </div>","132","html-slider-response",141,256137,"0.0-135.0","4pmn7rb6wq",0,"","","","","","",0,"",NA,"","Angry","images/1_Angry_hi_hi_2_Paired_ascend_smlg_bar.png",NA,NA
NA,"<div style=""width:500px;"">
                            <p style=""font-size:50px; font-weight:bold;""
                            >Angry</p>
                            <div style=""width:480px; margin: auto;"">
                                <img src=""images/1_Angry_lo_lo_2_Pastel1_ascend_smlg_bar.png"" width=""480"" height=""420"" style=""object-fit:contain;"">
                            </div>
                        </div>","-87","html-slider-response",142,257504,"0.0-136.0","4pmn7rb6wq",0,"","","","","","",0,"",NA,"","Angry","images/1_Angry_lo_lo_2_Pastel1_ascend_smlg_bar.png",NA,NA
NA,"<div style=""width:500px;"">
                            <p style=""font-size:50px; font-weight:bold;""
                            >Angry</p>
                            <div style=""width:480px; margin: auto;"">
                                <img src=""images/1_Angry_hi_hi_2_Paired_decend_lgsm_bar.png"" width=""480"" height=""420"" style=""object-fit:contain;"">
                            </div>
                        </div>","121","html-slider-response",143,258754,"0.0-137.0","4pmn7rb6wq",0,"","","","","","",0,"",NA,"","Angry","images/1_Angry_hi_hi_2_Paired_decend_lgsm_bar.png",NA,NA
NA,"<div style=""width:500px;"">
                            <p style=""font-size:50px; font-weight:bold;""
                            >Angry</p>
                            <div style=""width:480px; margin: auto;"">
                                <img src=""images/1_Angry_hi_hi_2_Paired_ascend_lgsm_bar.png"" width=""480"" height=""420"" style=""object-fit:contain;"">
                            </div>
                        </div>","-22","html-slider-response",144,260088,"0.0-138.0","4pmn7rb6wq",0,"","","","","","",0,"",NA,"","Angry","images/1_Angry_hi_hi_2_Paired_ascend_lgsm_bar.png",NA,NA
NA,"<div style=""width:500px;"">
                            <p style=""font-size:50px; font-weight:bold;""
                            >Angry</p>
                            <div style=""width:480px; margin: auto;"">
                                <img src=""images/1_Angry_hi_lo_3_Paired_ascend_lgsm_bar.png"" width=""480"" height=""420"" style=""object-fit:contain;"">
                            </div>
                        </div>","104","html-slider-response",145,261237,"0.0-139.0","4pmn7rb6wq",0,"","","","","","",0,"",NA,"","Angry","images/1_Angry_hi_lo_3_Paired_ascend_lgsm_bar.png",NA,NA
NA,"<div style=""width:500px;"">
                            <p style=""font-size:50px; font-weight:bold;""
                            >Angry</p>
                            <div style=""width:480px; margin: auto;"">
                                <img src=""images/1_Angry_lo_lo_3_Pastel2_decend_lgsm_bar.png"" width=""480"" height=""420"" style=""object-fit:contain;"">
                            </div>
                        </div>","-83","html-slider-response",146,262388,"0.0-140.0","4pmn7rb6wq",0,"","","","","","",0,"",NA,"","Angry","images/1_Angry_lo_lo_3_Pastel2_decend_lgsm_bar.png",NA,NA
NA,"<div style=""width:500px;"">
                            <p style=""font-size:50px; font-weight:bold;""
                            >Angry</p>
                            <div style=""width:480px; margin: auto;"">
                                <img src=""images/1_Angry_med_med_1_tab20b_decend_lgsm_bar.png"" width=""480"" height=""420"" style=""object-fit:contain;"">
                            </div>
                        </div>","-138","html-slider-response",147,263654,"0.0-141.0","4pmn7rb6wq",0,"","","","","","",0,"",NA,"","Angry","images/1_Angry_med_med_1_tab20b_decend_lgsm_bar.png",NA,NA
NA,"<div style=""width:500px;"">
                            <p style=""font-size:50px; font-weight:bold;""
                            >Angry</p>
                            <div style=""width:480px; margin: auto;"">
                                <img src=""images/1_Angry_med_lo_1_tab20c_decend_smlg_bar.png"" width=""480"" height=""420"" style=""object-fit:contain;"">
                            </div>
                        </div>","-19","html-slider-response",148,265087,"0.0-142.0","4pmn7rb6wq",0,"","","","","","",0,"",NA,"","Angry","images/1_Angry_med_lo_1_tab20c_decend_smlg_bar.png",NA,NA
NA,"<div style=""width:500px;"">
                            <p style=""font-size:50px; font-weight:bold;""
                            >Angry</p>
                            <div style=""width:480px; margin: auto;"">
                                <img src=""images/1_Angry_hi_lo_3_Paired_decend_smlg_bar.png"" width=""480"" height=""420"" style=""object-fit:contain;"">
                            </div>
                        </div>","44","html-slider-response",149,266556,"0.0-143.0","4pmn7rb6wq",0,"","","","","","",0,"",NA,"","Angry","images/1_Angry_hi_lo_3_Paired_decend_smlg_bar.png",NA,NA
NA,"<div style=""width:500px;"">
                            <p style=""font-size:50px; font-weight:bold;""
                            >Angry</p>
                            <div style=""width:480px; margin: auto;"">
                                <img src=""images/1_Angry_med_lo_1_tab20c_ascend_smlg_bar.png"" width=""480"" height=""420"" style=""object-fit:contain;"">
                            </div>
                        </div>","23","html-slider-response",150,267954,"0.0-144.0","4pmn7rb6wq",0,"","","","","","",0,"",NA,"","Angry","images/1_Angry_med_lo_1_tab20c_ascend_smlg_bar.png",NA,NA
NA,"<div style=""width:500px;"">
                            <p style=""font-size:50px; font-weight:bold;""
                            >Angry</p>
                            <div style=""width:480px; margin: auto;"">
                                <img src=""images/1_Angry_med_med_3_Set1_decend_smlg_bar.png"" width=""480"" height=""420"" style=""object-fit:contain;"">
                            </div>
                        </div>","70","html-slider-response",151,269470,"0.0-145.0","4pmn7rb6wq",0,"","","","","","",0,"",NA,"","Angry","images/1_Angry_med_med_3_Set1_decend_smlg_bar.png",NA,NA
NA,"<div style=""width:500px;"">
                            <p style=""font-size:50px; font-weight:bold;""
                            >Angry</p>
                            <div style=""width:480px; margin: auto;"">
                                <img src=""images/1_Angry_lo_lo_2_Pastel1_decend_smlg_bar.png"" width=""480"" height=""420"" style=""object-fit:contain;"">
                            </div>
                        </div>","-20","html-slider-response",152,270987,"0.0-146.0","4pmn7rb6wq",0,"","","","","","",0,"",NA,"","Angry","images/1_Angry_lo_lo_2_Pastel1_decend_smlg_bar.png",NA,NA
NA,"<div style=""width:500px;"">
                            <p style=""font-size:50px; font-weight:bold;""
                            >Angry</p>
                            <div style=""width:480px; margin: auto;"">
                                <img src=""images/1_Angry_hi_hi_1_tab20_decend_lgsm_bar.png"" width=""480"" height=""420"" style=""object-fit:contain;"">
                            </div>
                        </div>","185","html-slider-response",153,272504,"0.0-147.0","4pmn7rb6wq",0,"","","","","","",0,"",NA,"","Angry","images/1_Angry_hi_hi_1_tab20_decend_lgsm_bar.png",NA,NA
NA,"<div style=""width:500px;"">
                            <p style=""font-size:50px; font-weight:bold;""
                            >Angry</p>
                            <div style=""width:480px; margin: auto;"">
                                <img src=""images/1_Angry_lo_lo_3_Pastel2_ascend_smlg_bar.png"" width=""480"" height=""420"" style=""object-fit:contain;"">
                            </div>
                        </div>","-54","html-slider-response",154,273939,"0.0-148.0","4pmn7rb6wq",0,"","","","","","",0,"",NA,"","Angry","images/1_Angry_lo_lo_3_Pastel2_ascend_smlg_bar.png",NA,NA
NA,"<div style=""width:500px;"">
                            <p style=""font-size:50px; font-weight:bold;""
                            >Angry</p>
                            <div style=""width:480px; margin: auto;"">
                                <img src=""images/1_Angry_hi_hi_3_tab10new_decend_smlg_bar.png"" width=""480"" height=""420"" style=""object-fit:contain;"">
                            </div>
                        </div>","25","html-slider-response",155,275354,"0.0-149.0","4pmn7rb6wq",0,"","","","","","",0,"",NA,"","Angry","images/1_Angry_hi_hi_3_tab10new_decend_smlg_bar.png",NA,NA
NA,"<div style=""width:500px;"">
                            <p style=""font-size:50px; font-weight:bold;""
                            >Angry</p>
                            <div style=""width:480px; margin: auto;"">
                                <img src=""images/1_Angry_hi_lo_1_tab20_ascend_lgsm_bar.png"" width=""480"" height=""420"" style=""object-fit:contain;"">
                            </div>
                        </div>","55","html-slider-response",156,276721,"0.0-150.0","4pmn7rb6wq",0,"","","","","","",0,"",NA,"","Angry","images/1_Angry_hi_lo_1_tab20_ascend_lgsm_bar.png",NA,NA
NA,"<div style=""width:500px;"">
                            <p style=""font-size:50px; font-weight:bold;""
                            >Angry</p>
                            <div style=""width:480px; margin: auto;"">
                                <img src=""images/1_Angry_lo_lo_1_tab20c_ascend_lgsm_bar.png"" width=""480"" height=""420"" style=""object-fit:contain;"">
                            </div>
                        </div>","-158","html-slider-response",157,278054,"0.0-151.0","4pmn7rb6wq",0,"","","","","","",0,"",NA,"","Angry","images/1_Angry_lo_lo_1_tab20c_ascend_lgsm_bar.png",NA,NA
NA,"<div style=""width:500px;"">
                            <p style=""font-size:50px; font-weight:bold;""
                            >Angry</p>
                            <div style=""width:480px; margin: auto;"">
                                <img src=""images/1_Angry_med_med_2_Paired_ascend_lgsm_bar.png"" width=""480"" height=""420"" style=""object-fit:contain;"">
                            </div>
                        </div>","6","html-slider-response",158,280138,"0.0-152.0","4pmn7rb6wq",0,"","","","","","",0,"",NA,"","Angry","images/1_Angry_med_med_2_Paired_ascend_lgsm_bar.png",NA,NA
NA,"<div style=""width:500px;"">
                            <p style=""font-size:50px; font-weight:bold;""
                            >Angry</p>
                            <div style=""width:480px; margin: auto;"">
                                <img src=""images/1_Angry_med_lo_3_Pastel1_ascend_lgsm_bar.png"" width=""480"" height=""420"" style=""object-fit:contain;"">
                            </div>
                        </div>","22","html-slider-response",159,281238,"0.0-153.0","4pmn7rb6wq",0,"","","","","","",0,"",NA,"","Angry","images/1_Angry_med_lo_3_Pastel1_ascend_lgsm_bar.png",NA,NA
NA,"<div style=""width:500px;"">
                            <p style=""font-size:50px; font-weight:bold;""
                            >Angry</p>
                            <div style=""width:480px; margin: auto;"">
                                <img src=""images/1_Angry_hi_lo_2_tab20c_decend_lgsm_bar.png"" width=""480"" height=""420"" style=""object-fit:contain;"">
                            </div>
                        </div>","-83","html-slider-response",160,282355,"0.0-154.0","4pmn7rb6wq",0,"","","","","","",0,"",NA,"","Angry","images/1_Angry_hi_lo_2_tab20c_decend_lgsm_bar.png",NA,NA
NA,"<div style=""width:500px;"">
                            <p style=""font-size:50px; font-weight:bold;""
                            >Angry</p>
                            <div style=""width:480px; margin: auto;"">
                                <img src=""images/1_Angry_med_lo_1_tab20c_decend_lgsm_bar.png"" width=""480"" height=""420"" style=""object-fit:contain;"">
                            </div>
                        </div>","76","html-slider-response",161,283771,"0.0-155.0","4pmn7rb6wq",0,"","","","","","",0,"",NA,"","Angry","images/1_Angry_med_lo_1_tab20c_decend_lgsm_bar.png",NA,NA
NA,"<div style=""width:500px;"">
                            <p style=""font-size:50px; font-weight:bold;""
                            >Angry</p>
                            <div style=""width:480px; margin: auto;"">
                                <img src=""images/1_Angry_hi_hi_1_tab20_decend_smlg_bar.png"" width=""480"" height=""420"" style=""object-fit:contain;"">
                            </div>
                        </div>","76","html-slider-response",162,284971,"0.0-156.0","4pmn7rb6wq",0,"","","","","","",0,"",NA,"","Angry","images/1_Angry_hi_hi_1_tab20_decend_smlg_bar.png",NA,NA
NA,"<div style=""width:500px;"">
                            <p style=""font-size:50px; font-weight:bold;""
                            >Angry</p>
                            <div style=""width:480px; margin: auto;"">
                                <img src=""images/1_Angry_hi_md_1_Set1_decend_smlg_bar.png"" width=""480"" height=""420"" style=""object-fit:contain;"">
                            </div>
                        </div>","54","html-slider-response",163,286405,"0.0-157.0","4pmn7rb6wq",0,"","","","","","",0,"",NA,"","Angry","images/1_Angry_hi_md_1_Set1_decend_smlg_bar.png",NA,NA
NA,"<div style=""width:500px;"">
                            <p style=""font-size:50px; font-weight:bold;""
                            >Angry</p>
                            <div style=""width:480px; margin: auto;"">
                                <img src=""images/1_Angry_hi_md_1_Set1_ascend_smlg_bar.png"" width=""480"" height=""420"" style=""object-fit:contain;"">
                            </div>
                        </div>","157","html-slider-response",164,287838,"0.0-158.0","4pmn7rb6wq",0,"","","","","","",0,"",NA,"","Angry","images/1_Angry_hi_md_1_Set1_ascend_smlg_bar.png",NA,NA
NA,"<div style=""width:500px;"">
                            <p style=""font-size:50px; font-weight:bold;""
                            >Angry</p>
                            <div style=""width:480px; margin: auto;"">
                                <img src=""images/1_Angry_med_lo_3_Pastel1_decend_lgsm_bar.png"" width=""480"" height=""420"" style=""object-fit:contain;"">
                            </div>
                        </div>","-85","html-slider-response",165,289187,"0.0-159.0","4pmn7rb6wq",0,"","","","","","",0,"",NA,"","Angry","images/1_Angry_med_lo_3_Pastel1_decend_lgsm_bar.png",NA,NA
1105,"<p>Great Job! You've finished block 2.<br></br> You have 3 block(s) left to go.<br></br></p>","0","html-button-response",166,290794,"0.0-160.0","4pmn7rb6wq",0,"","","","","","",NA,"",NA,"","","",NA,NA
815,"<p>In this block of trials, you will be asked to rate how much you associate each texture with the concept</p >
                        <p style = 'font-size:150%; font-weight: bold'>Fearful</p><br></br>","0","html-button-response",167,291610,"0.0-161.0","4pmn7rb6wq",0,"","","","","","",NA,"",NA,"","","",NA,NA
NA,"<div style=""width:500px;"">
                            <p style=""font-size:50px; font-weight:bold;""
                            >Fearful</p>
                            <div style=""width:480px; margin: auto;"">
                                <img src=""images/1_Fearful_med_lo_3_tab20_ascend_lgsm_bar.png"" width=""480"" height=""420"" style=""object-fit:contain;"">
                            </div>
                        </div>","-94","html-slider-response",168,292771,"0.0-162.0","4pmn7rb6wq",0,"","","","","","",0,"",NA,"","Fearful","images/1_Fearful_med_lo_3_tab20_ascend_lgsm_bar.png",NA,NA
NA,"<div style=""width:500px;"">
                            <p style=""font-size:50px; font-weight:bold;""
                            >Fearful</p>
                            <div style=""width:480px; margin: auto;"">
                                <img src=""images/1_Fearful_lo_lo_2_Set3_ascend_lgsm_bar.png"" width=""480"" height=""420"" style=""object-fit:contain;"">
                            </div>
                        </div>","-95","html-slider-response",169,293788,"0.0-163.0","4pmn7rb6wq",0,"","","","","","",0,"",NA,"","Fearful","images/1_Fearful_lo_lo_2_Set3_ascend_lgsm_bar.png",NA,NA
NA,"<div style=""width:500px;"">
                            <p style=""font-size:50px; font-weight:bold;""
                            >Fearful</p>
                            <div style=""width:480px; margin: auto;"">
                                <img src=""images/1_Fearful_med_lo_2_Set3_decend_smlg_bar.png"" width=""480"" height=""420"" style=""object-fit:contain;"">
                            </div>
                        </div>","53","html-slider-response",170,295138,"0.0-164.0","4pmn7rb6wq",0,"","","","","","",0,"",NA,"","Fearful","images/1_Fearful_med_lo_2_Set3_decend_smlg_bar.png",NA,NA
NA,"<div style=""width:500px;"">
