"rt","stimulus","response","trial_type","trial_index","time_elapsed","internal_node_id","subject_id","condition_num","success","timeout","failed_images","failed_audio","failed_video","question_order","slider_start","practiceTrial","practiceTrialNum","correct","concept","texture_id","ishihara_plate","correct_response"
6008,"Welcome to our experiment!<p>At the bottom of this screen, you will see a button that says ""Begin Experiment"".<br>Please only click that button when you are ready to complete the 30 minute experiment in one sitting.</p><p> Once you click that button, it will not be possible to restart the experiment.","0","html-button-response",0,6013,"0.0-0.0","dwxp9psrh9",5,"","","","","","",NA,"",NA,"","","",NA,NA
NA,"","","preload",1,9275,"0.0-1.0","dwxp9psrh9",5,"true","false","[]","[]","[]","",NA,"",NA,"","","",NA,NA
1805,"","","fullscreen",2,12085,"0.0-2.0","dwxp9psrh9",5,"true","","","","","",NA,"",NA,"","","",NA,NA
7165,"","{""Consent"":[""<strong>I consent</strong>""]}","survey-multi-select",3,19254,"0.0-3.0","dwxp9psrh9",5,"","","","","","[0]",NA,"",NA,"","","",NA,NA
1470,"Welcome! <p> This experiment involves two parts: demographic information, followed by the experimental task.<p> It will take about 30 minutes to complete both parts.","0","html-button-response",4,20725,"0.0-4.0","dwxp9psrh9",5,"","","","","","",NA,"",NA,"","","",NA,NA
21875,"","{""Age"":""18"",""Gender"":""female"",""Race/ethnicity"":""asian"",""Languages"":""English, Mandarin Chinese, French""}","survey-text",5,42611,"0.0-5.0","dwxp9psrh9",5,"","","","","","",NA,"",NA,"","","",NA,NA
23311,"
                        <div>
                            <div style='text-align:left; font-size:18px; line-height:25px; width: 1300px;'>
                                During this experiment you will be asked to rate how much you associate charts with                                different concepts. Below, you can see some examples of the charts you will be asked to rate. Above the charts
                                is the list of concepts. You will be asked
                                to rate how much you associate each chart with each concept on a scale from 'not at all' to 'very much' like the
                                one below. <br>

                        <div style=""text-align: left; width: 1300px;"">
                            <p style=""font-size:18px; line-height:20px; text-align:center; font-weight:bold"">
                                Fearful, Happy, Disgust, Sad, Angry
                            </p>
                        </div>

                        <div style=""display: flex; justify-content: center; width: 100%;"">
                            <div style=""
                                display: grid;
                                grid-template-columns: repeat(5, 1fr);
                                gap: 8px;
                                padding: 10px;
                                width: 900px;  
                                margin: 0 auto;
                            "">
                                
                                    <div style=""width: 100%;"">
                                        <img src=""images/6_sad_lo_lo_1_Set1_decend_smlg_bar.png"" style=""width: 100%; height: auto; object-fit: contain;"">
                                    </div>
                                
                                    <div style=""width: 100%;"">
                                        <img src=""images/6_happy_hi_hi_1_Set1_decend_lgsm_bar.png"" style=""width: 100%; height: auto; object-fit: contain;"">
                                    </div>
                                
                                    <div style=""width: 100%;"">
                                        <img src=""images/6_angry_lo_lo_1_tab20c_ascend_smlg_bar.png"" style=""width: 100%; height: auto; object-fit: contain;"">
                                    </div>
                                
                                    <div style=""width: 100%;"">
                                        <img src=""images/6_disgust_hi_hi_1_tab20b_decend_lgsm_bar.png"" style=""width: 100%; height: auto; object-fit: contain;"">
                                    </div>
                                
                                    <div style=""width: 100%;"">
                                        <img src=""images/6_happy_lo_lo_1_tab20b_ascend_lgsm_bar.png"" style=""width: 100%; height: auto; object-fit: contain;"">
                                    </div>
                                
                                    <div style=""width: 100%;"">
                                        <img src=""images/6_disgust_lo_lo_1_tab20c_ascend_smlg_bar.png"" style=""width: 100%; height: auto; object-fit: contain;"">
                                    </div>
                                
                                    <div style=""width: 100%;"">
                                        <img src=""images/6_fearful_lo_lo_1_Pastel1_decend_smlg_bar.png"" style=""width: 100%; height: auto; object-fit: contain;"">
                                    </div>
                                
                                    <div style=""width: 100%;"">
                                        <img src=""images/6_fearful_hi_hi_1_tab20b_decend_lgsm_bar.png"" style=""width: 100%; height: auto; object-fit: contain;"">
                                    </div>
                                
                                    <div style=""width: 100%;"">
                                        <img src=""images/6_angry_hi_hi_1_tab20_ascend_lgsm_bar.png"" style=""width: 100%; height: auto; object-fit: contain;"">
                                    </div>
                                
                                    <div style=""width: 100%;"">
                                        <img src=""images/6_sad_hi_hi_1_tab20_decend_lgsm_bar.png"" style=""width: 100%; height: auto; object-fit: contain;"">
                                    </div>
                                
                            </div>
                        </div>
                    </div>
                </div>
                    ","null","html-slider-response",6,65923,"0.0-6.0","dwxp9psrh9",5,"","","","","","",0,"true",NA,"","","",NA,NA
1925,"<div style=""width:1300px;""><p style=""text-align:left"">To move the slider, click and drag your cursor to the location of the scale where you would like to make your rating and then let go. When you let go of the slider, your response will be recorded and the next trial will begin. <br>
                    We are interested in your initial impressions of each chart for a given concept, so please go with your first intuition. 
                    Before you begin the experiment, there will be four training trials for you to practice using the slider. 
                     When you are ready to start the training trials, please click ""Continue"".</p><br></div>","0","html-button-response",7,67849,"0.0-7.0","dwxp9psrh9",5,"","","","","","",NA,"",NA,"","","",NA,NA
NA,"<div style=""width:500px;"">
                                    <p style=""font-size:25px;"">Please move the slider all the way to the <br> right endpoint of the scale</p>

                                    </div>
                                </div>","200","html-slider-response",8,71634,"0.0-8.0-0.0","dwxp9psrh9",5,"","","","","","",0,"true",0,"true","","",NA,NA
1119,"<p align='center'><b>Good job!</b> Click on 'Continue' to proceed.</p>","0","html-button-response",9,73256,"0.0-8.0-1.0","dwxp9psrh9",5,"","","","","","",NA,"",NA,"","","",NA,NA
NA,"<div style=""width:500px;"">
                                    <p style=""font-size:25px;"">Please move the slider all the way to the <br> left endpoint of the scale</p>

                                    </div>
                                </div>","-200","html-slider-response",10,75172,"0.0-9.0-0.0","dwxp9psrh9",5,"","","","","","",0,"true",1,"true","","",NA,NA
762,"<p align='center'><b>Good job!</b> Click on 'Continue' to proceed.</p>","0","html-button-response",11,76436,"0.0-9.0-1.0","dwxp9psrh9",5,"","","","","","",NA,"",NA,"","","",NA,NA
NA,"<div style=""width:500px;"">
                                    <p style=""font-size:25px;"">Please move the slider halfway between the center and right endpoint of the scale</p>

                                    </div>
                                </div>","2","html-slider-response",12,78597,"0.0-10.0-0.0","dwxp9psrh9",5,"","","","","","",0,"true",2,"false","","",NA,NA
1283,"<p align='center'><b>Not quite!</b> The slider was not placed near the instructed located. Click on 'Continue' to try again. </p>","0","html-button-response",13,80383,"0.0-10.0-1.0","dwxp9psrh9",5,"","","","","","",NA,"",NA,"","","",NA,NA
NA,"<div style=""width:500px;"">
                                    <p style=""font-size:25px;"">Please move the slider halfway between the center and right endpoint of the scale</p>

                                    </div>
                                </div>","1","html-slider-response",14,83108,"0.0-10.1-0.1","dwxp9psrh9",5,"","","","","","",0,"true",2,"false","","",NA,NA
1034,"<p align='center'><b>Not quite!</b> The slider was not placed near the instructed located. Click on 'Continue' to try again. </p>","0","html-button-response",15,84645,"0.0-10.1-1.1","dwxp9psrh9",5,"","","","","","",NA,"",NA,"","","",NA,NA
NA,"<div style=""width:500px;"">
                                    <p style=""font-size:25px;"">Please move the slider halfway between the center and right endpoint of the scale</p>

                                    </div>
                                </div>","110","html-slider-response",16,91990,"0.0-10.2-0.2","dwxp9psrh9",5,"","","","","","",0,"true",2,"true","","",NA,NA
1095,"<p align='center'><b>Good job!</b> Click on 'Continue' to proceed.</p>","0","html-button-response",17,93587,"0.0-10.2-1.2","dwxp9psrh9",5,"","","","","","",NA,"",NA,"","","",NA,NA
NA,"<div style=""width:500px;"">
                                    <p style=""font-size:25px;"">Please move the slider halfway between the center and left endpoint of the scale</p>

                                    </div>
                                </div>","-114","html-slider-response",18,99303,"0.0-11.0-0.0","dwxp9psrh9",5,"","","","","","",0,"true",3,"false","","",NA,NA
946,"<p align='center'><b>Not quite!</b> The slider was not placed near the instructed located. Click on 'Continue' to try again. </p>","0","html-button-response",19,100751,"0.0-11.0-1.0","dwxp9psrh9",5,"","","","","","",NA,"",NA,"","","",NA,NA
NA,"<div style=""width:500px;"">
                                    <p style=""font-size:25px;"">Please move the slider halfway between the center and left endpoint of the scale</p>

                                    </div>
                                </div>","-106","html-slider-response",20,103604,"0.0-11.1-0.1","dwxp9psrh9",5,"","","","","","",0,"true",3,"true","","",NA,NA
933,"<p align='center'><b>Good job!</b> Click on 'Continue' to proceed.</p>","0","html-button-response",21,105040,"0.0-11.1-1.1","dwxp9psrh9",5,"","","","","","",NA,"",NA,"","","",NA,NA
1260,"<p>Great job! You've completed the practice trials. Now you will begin the main task.</p>","0","html-button-response",22,106301,"0.0-12.0","dwxp9psrh9",5,"","","","","","",NA,"",NA,"","","",NA,NA
4388,"<p>In this block of trials, you will be asked to rate how much you associate each texture with the concept</p >
                        <p style = 'font-size:150%; font-weight: bold'>Fearful</p><br></br>","0","html-button-response",23,110690,"0.0-13.0","dwxp9psrh9",5,"","","","","","",NA,"",NA,"","","",NA,NA
NA,"<div style=""width:500px;"">
                            <p style=""font-size:50px; font-weight:bold;""
                            >Fearful</p>
                            <div style=""width:480px; margin: auto;"">
                                <img src=""images/6_fearful_hi_hi_1_tab20b_decend_smlg_bar.png"" width=""480"" height=""420"" style=""object-fit:contain;"">
                            </div>
                        </div>","97","html-slider-response",24,115081,"0.0-14.0","dwxp9psrh9",5,"","","","","","",0,"",NA,"","Fearful","images/6_fearful_hi_hi_1_tab20b_decend_smlg_bar.png",NA,NA
NA,"<div style=""width:500px;"">
                            <p style=""font-size:50px; font-weight:bold;""
                            >Fearful</p>
                            <div style=""width:480px; margin: auto;"">
                                <img src=""images/6_fearful_hi_lo_3_Accent_decend_smlg_bar.png"" width=""480"" height=""420"" style=""object-fit:contain;"">
                            </div>
                        </div>","88","html-slider-response",25,117914,"0.0-15.0","dwxp9psrh9",5,"","","","","","",0,"",NA,"","Fearful","images/6_fearful_hi_lo_3_Accent_decend_smlg_bar.png",NA,NA
NA,"<div style=""width:500px;"">
                            <p style=""font-size:50px; font-weight:bold;""
                            >Fearful</p>
                            <div style=""width:480px; margin: auto;"">
                                <img src=""images/6_fearful_hi_lo_1_tab20_ascend_lgsm_bar.png"" width=""480"" height=""420"" style=""object-fit:contain;"">
                            </div>
                        </div>","-27","html-slider-response",26,122761,"0.0-16.0","dwxp9psrh9",5,"","","","","","",0,"",NA,"","Fearful","images/6_fearful_hi_lo_1_tab20_ascend_lgsm_bar.png",NA,NA
NA,"<div style=""width:500px;"">
                            <p style=""font-size:50px; font-weight:bold;""
                            >Fearful</p>
                            <div style=""width:480px; margin: auto;"">
                                <img src=""images/6_fearful_med_med_2_tab20_ascend_lgsm_bar.png"" width=""480"" height=""420"" style=""object-fit:contain;"">
                            </div>
                        </div>","-117","html-slider-response",27,124900,"0.0-17.0","dwxp9psrh9",5,"","","","","","",0,"",NA,"","Fearful","images/6_fearful_med_med_2_tab20_ascend_lgsm_bar.png",NA,NA
NA,"<div style=""width:500px;"">
                            <p style=""font-size:50px; font-weight:bold;""
                            >Fearful</p>
                            <div style=""width:480px; margin: auto;"">
                                <img src=""images/6_fearful_hi_lo_1_tab20_decend_lgsm_bar.png"" width=""480"" height=""420"" style=""object-fit:contain;"">
                            </div>
                        </div>","79","html-slider-response",28,127030,"0.0-18.0","dwxp9psrh9",5,"","","","","","",0,"",NA,"","Fearful","images/6_fearful_hi_lo_1_tab20_decend_lgsm_bar.png",NA,NA
NA,"<div style=""width:500px;"">
                            <p style=""font-size:50px; font-weight:bold;""
                            >Fearful</p>
                            <div style=""width:480px; margin: auto;"">
                                <img src=""images/6_fearful_med_lo_2_Set3_decend_lgsm_bar.png"" width=""480"" height=""420"" style=""object-fit:contain;"">
                            </div>
                        </div>","-138","html-slider-response",29,129627,"0.0-19.0","dwxp9psrh9",5,"","","","","","",0,"",NA,"","Fearful","images/6_fearful_med_lo_2_Set3_decend_lgsm_bar.png",NA,NA
NA,"<div style=""width:500px;"">
                            <p style=""font-size:50px; font-weight:bold;""
                            >Fearful</p>
                            <div style=""width:480px; margin: auto;"">
                                <img src=""images/6_fearful_hi_lo_2_tab20b_decend_smlg_bar.png"" width=""480"" height=""420"" style=""object-fit:contain;"">
                            </div>
                        </div>","95","html-slider-response",30,131896,"0.0-20.0","dwxp9psrh9",5,"","","","","","",0,"",NA,"","Fearful","images/6_fearful_hi_lo_2_tab20b_decend_smlg_bar.png",NA,NA
NA,"<div style=""width:500px;"">
                            <p style=""font-size:50px; font-weight:bold;""
                            >Fearful</p>
                            <div style=""width:480px; margin: auto;"">
                                <img src=""images/6_fearful_hi_md_3_tab20_decend_lgsm_bar.png"" width=""480"" height=""420"" style=""object-fit:contain;"">
                            </div>
                        </div>","129","html-slider-response",31,134054,"0.0-21.0","dwxp9psrh9",5,"","","","","","",0,"",NA,"","Fearful","images/6_fearful_hi_md_3_tab20_decend_lgsm_bar.png",NA,NA
NA,"<div style=""width:500px;"">
                            <p style=""font-size:50px; font-weight:bold;""
                            >Fearful</p>
                            <div style=""width:480px; margin: auto;"">
                                <img src=""images/6_fearful_lo_lo_2_Set3_ascend_lgsm_bar.png"" width=""480"" height=""420"" style=""object-fit:contain;"">
                            </div>
                        </div>","-115","html-slider-response",32,136359,"0.0-22.0","dwxp9psrh9",5,"","","","","","",0,"",NA,"","Fearful","images/6_fearful_lo_lo_2_Set3_ascend_lgsm_bar.png",NA,NA
NA,"<div style=""width:500px;"">
                            <p style=""font-size:50px; font-weight:bold;""
                            >Fearful</p>
                            <div style=""width:480px; margin: auto;"">
                                <img src=""images/6_fearful_med_med_1_tab20c_ascend_lgsm_bar.png"" width=""480"" height=""420"" style=""object-fit:contain;"">
                            </div>
                        </div>","44","html-slider-response",33,139245,"0.0-23.0","dwxp9psrh9",5,"","","","","","",0,"",NA,"","Fearful","images/6_fearful_med_med_1_tab20c_ascend_lgsm_bar.png",NA,NA
NA,"<div style=""width:500px;"">
                            <p style=""font-size:50px; font-weight:bold;""
                            >Fearful</p>
                            <div style=""width:480px; margin: auto;"">
                                <img src=""images/6_fearful_hi_lo_2_tab20b_ascend_smlg_bar.png"" width=""480"" height=""420"" style=""object-fit:contain;"">
                            </div>
                        </div>","36","html-slider-response",34,141237,"0.0-24.0","dwxp9psrh9",5,"","","","","","",0,"",NA,"","Fearful","images/6_fearful_hi_lo_2_tab20b_ascend_smlg_bar.png",NA,NA
NA,"<div style=""width:500px;"">
                            <p style=""font-size:50px; font-weight:bold;""
                            >Fearful</p>
                            <div style=""width:480px; margin: auto;"">
                                <img src=""images/6_fearful_hi_lo_1_tab20_decend_smlg_bar.png"" width=""480"" height=""420"" style=""object-fit:contain;"">
                            </div>
                        </div>","-119","html-slider-response",35,143755,"0.0-25.0","dwxp9psrh9",5,"","","","","","",0,"",NA,"","Fearful","images/6_fearful_hi_lo_1_tab20_decend_smlg_bar.png",NA,NA
NA,"<div style=""width:500px;"">
                            <p style=""font-size:50px; font-weight:bold;""
                            >Fearful</p>
                            <div style=""width:480px; margin: auto;"">
                                <img src=""images/6_fearful_lo_lo_3_tab20c_ascend_smlg_bar.png"" width=""480"" height=""420"" style=""object-fit:contain;"">
                            </div>
                        </div>","-122","html-slider-response",36,145440,"0.0-26.0","dwxp9psrh9",5,"","","","","","",0,"",NA,"","Fearful","images/6_fearful_lo_lo_3_tab20c_ascend_smlg_bar.png",NA,NA
NA,"<div style=""width:500px;"">
                            <p style=""font-size:50px; font-weight:bold;""
                            >Fearful</p>
                            <div style=""width:480px; margin: auto;"">
                                <img src=""images/6_fearful_hi_hi_2_tab20_ascend_lgsm_bar.png"" width=""480"" height=""420"" style=""object-fit:contain;"">
                            </div>
                        </div>","88","html-slider-response",37,147360,"0.0-27.0","dwxp9psrh9",5,"","","","","","",0,"",NA,"","Fearful","images/6_fearful_hi_hi_2_tab20_ascend_lgsm_bar.png",NA,NA
NA,"<div style=""width:500px;"">
                            <p style=""font-size:50px; font-weight:bold;""
                            >Fearful</p>
                            <div style=""width:480px; margin: auto;"">
                                <img src=""images/6_fearful_hi_md_3_tab20_decend_smlg_bar.png"" width=""480"" height=""420"" style=""object-fit:contain;"">
                            </div>
                        </div>","93","html-slider-response",38,149132,"0.0-28.0","dwxp9psrh9",5,"","","","","","",0,"",NA,"","Fearful","images/6_fearful_hi_md_3_tab20_decend_smlg_bar.png",NA,NA
NA,"<div style=""width:500px;"">
                            <p style=""font-size:50px; font-weight:bold;""
                            >Fearful</p>
                            <div style=""width:480px; margin: auto;"">
                                <img src=""images/6_fearful_med_med_1_tab20c_decend_lgsm_bar.png"" width=""480"" height=""420"" style=""object-fit:contain;"">
                            </div>
                        </div>","-78","html-slider-response",39,151180,"0.0-29.0","dwxp9psrh9",5,"","","","","","",0,"",NA,"","Fearful","images/6_fearful_med_med_1_tab20c_decend_lgsm_bar.png",NA,NA
NA,"<div style=""width:500px;"">
                            <p style=""font-size:50px; font-weight:bold;""
                            >Fearful</p>
                            <div style=""width:480px; margin: auto;"">
                                <img src=""images/6_fearful_hi_hi_1_tab20b_ascend_lgsm_bar.png"" width=""480"" height=""420"" style=""object-fit:contain;"">
                            </div>
                        </div>","-75","html-slider-response",40,153984,"0.0-30.0","dwxp9psrh9",5,"","","","","","",0,"",NA,"","Fearful","images/6_fearful_hi_hi_1_tab20b_ascend_lgsm_bar.png",NA,NA
NA,"<div style=""width:500px;"">
                            <p style=""font-size:50px; font-weight:bold;""
                            >Fearful</p>
                            <div style=""width:480px; margin: auto;"">
                                <img src=""images/6_fearful_lo_lo_3_tab20c_decend_lgsm_bar.png"" width=""480"" height=""420"" style=""object-fit:contain;"">
                            </div>
                        </div>","-118","html-slider-response",41,157039,"0.0-31.0","dwxp9psrh9",5,"","","","","","",0,"",NA,"","Fearful","images/6_fearful_lo_lo_3_tab20c_decend_lgsm_bar.png",NA,NA
NA,"<div style=""width:500px;"">
                            <p style=""font-size:50px; font-weight:bold;""
                            >Fearful</p>
                            <div style=""width:480px; margin: auto;"">
                                <img src=""images/6_fearful_hi_md_1_tab20b_decend_lgsm_bar.png"" width=""480"" height=""420"" style=""object-fit:contain;"">
                            </div>
                        </div>","94","html-slider-response",42,158695,"0.0-32.0","dwxp9psrh9",5,"","","","","","",0,"",NA,"","Fearful","images/6_fearful_hi_md_1_tab20b_decend_lgsm_bar.png",NA,NA
NA,"<div style=""width:500px;"">
                            <p style=""font-size:50px; font-weight:bold;""
                            >Fearful</p>
                            <div style=""width:480px; margin: auto;"">
                                <img src=""images/6_fearful_med_med_3_tab20b_decend_lgsm_bar.png"" width=""480"" height=""420"" style=""object-fit:contain;"">
                            </div>
                        </div>","-72","html-slider-response",43,161690,"0.0-33.0","dwxp9psrh9",5,"","","","","","",0,"",NA,"","Fearful","images/6_fearful_med_med_3_tab20b_decend_lgsm_bar.png",NA,NA
NA,"<div style=""width:500px;"">
                            <p style=""font-size:50px; font-weight:bold;""
                            >Fearful</p>
                            <div style=""width:480px; margin: auto;"">
                                <img src=""images/6_fearful_med_med_3_tab20b_decend_smlg_bar.png"" width=""480"" height=""420"" style=""object-fit:contain;"">
                            </div>
                        </div>","-112","html-slider-response",44,164221,"0.0-34.0","dwxp9psrh9",5,"","","","","","",0,"",NA,"","Fearful","images/6_fearful_med_med_3_tab20b_decend_smlg_bar.png",NA,NA
NA,"<div style=""width:500px;"">
                            <p style=""font-size:50px; font-weight:bold;""
                            >Fearful</p>
                            <div style=""width:480px; margin: auto;"">
                                <img src=""images/6_fearful_lo_lo_1_Pastel1_ascend_smlg_bar.png"" width=""480"" height=""420"" style=""object-fit:contain;"">
                            </div>
                        </div>","-182","html-slider-response",45,166424,"0.0-35.0","dwxp9psrh9",5,"","","","","","",0,"",NA,"","Fearful","images/6_fearful_lo_lo_1_Pastel1_ascend_smlg_bar.png",NA,NA
NA,"<div style=""width:500px;"">
                            <p style=""font-size:50px; font-weight:bold;""
                            >Fearful</p>
                            <div style=""width:480px; margin: auto;"">
                                <img src=""images/6_fearful_med_lo_2_Set3_ascend_lgsm_bar.png"" width=""480"" height=""420"" style=""object-fit:contain;"">
                            </div>
                        </div>","-164","html-slider-response",46,168829,"0.0-36.0","dwxp9psrh9",5,"","","","","","",0,"",NA,"","Fearful","images/6_fearful_med_lo_2_Set3_ascend_lgsm_bar.png",NA,NA
NA,"<div style=""width:500px;"">
                            <p style=""font-size:50px; font-weight:bold;""
                            >Fearful</p>
                            <div style=""width:480px; margin: auto;"">
                                <img src=""images/6_fearful_hi_hi_1_tab20b_decend_lgsm_bar.png"" width=""480"" height=""420"" style=""object-fit:contain;"">
                            </div>
                        </div>","94","html-slider-response",47,170783,"0.0-37.0","dwxp9psrh9",5,"","","","","","",0,"",NA,"","Fearful","images/6_fearful_hi_hi_1_tab20b_decend_lgsm_bar.png",NA,NA
NA,"<div style=""width:500px;"">
                            <p style=""font-size:50px; font-weight:bold;""
                            >Fearful</p>
                            <div style=""width:480px; margin: auto;"">
                                <img src=""images/6_fearful_hi_hi_1_tab20b_ascend_smlg_bar.png"" width=""480"" height=""420"" style=""object-fit:contain;"">
                            </div>
                        </div>","21","html-slider-response",48,175179,"0.0-38.0","dwxp9psrh9",5,"","","","","","",0,"",NA,"","Fearful","images/6_fearful_hi_hi_1_tab20b_ascend_smlg_bar.png",NA,NA
NA,"<div style=""width:500px;"">
                            <p style=""font-size:50px; font-weight:bold;""
                            >Fearful</p>
                            <div style=""width:480px; margin: auto;"">
                                <img src=""images/6_fearful_med_med_1_tab20c_decend_smlg_bar.png"" width=""480"" height=""420"" style=""object-fit:contain;"">
                            </div>
                        </div>","31","html-slider-response",49,176987,"0.0-39.0","dwxp9psrh9",5,"","","","","","",0,"",NA,"","Fearful","images/6_fearful_med_med_1_tab20c_decend_smlg_bar.png",NA,NA
NA,"<div style=""width:500px;"">
                            <p style=""font-size:50px; font-weight:bold;""
                            >Fearful</p>
                            <div style=""width:480px; margin: auto;"">
                                <img src=""images/6_fearful_lo_lo_1_Pastel1_decend_lgsm_bar.png"" width=""480"" height=""420"" style=""object-fit:contain;"">
                            </div>
                        </div>","-93","html-slider-response",50,178611,"0.0-40.0","dwxp9psrh9",5,"","","","","","",0,"",NA,"","Fearful","images/6_fearful_lo_lo_1_Pastel1_decend_lgsm_bar.png",NA,NA
NA,"<div style=""width:500px;"">
                            <p style=""font-size:50px; font-weight:bold;""
                            >Fearful</p>
                            <div style=""width:480px; margin: auto;"">
                                <img src=""images/6_fearful_lo_lo_3_tab20c_ascend_lgsm_bar.png"" width=""480"" height=""420"" style=""object-fit:contain;"">
                            </div>
                        </div>","-142","html-slider-response",51,180579,"0.0-41.0","dwxp9psrh9",5,"","","","","","",0,"",NA,"","Fearful","images/6_fearful_lo_lo_3_tab20c_ascend_lgsm_bar.png",NA,NA
NA,"<div style=""width:500px;"">
                            <p style=""font-size:50px; font-weight:bold;""
                            >Fearful</p>
                            <div style=""width:480px; margin: auto;"">
                                <img src=""images/6_fearful_hi_hi_3_tab10new_ascend_lgsm_bar.png"" width=""480"" height=""420"" style=""object-fit:contain;"">
                            </div>
                        </div>","61","html-slider-response",52,182198,"0.0-42.0","dwxp9psrh9",5,"","","","","","",0,"",NA,"","Fearful","images/6_fearful_hi_hi_3_tab10new_ascend_lgsm_bar.png",NA,NA
NA,"<div style=""width:500px;"">
                            <p style=""font-size:50px; font-weight:bold;""
                            >Fearful</p>
                            <div style=""width:480px; margin: auto;"">
                                <img src=""images/6_fearful_med_lo_3_tab20_ascend_smlg_bar.png"" width=""480"" height=""420"" style=""object-fit:contain;"">
                            </div>
                        </div>","69","html-slider-response",53,184049,"0.0-43.0","dwxp9psrh9",5,"","","","","","",0,"",NA,"","Fearful","images/6_fearful_med_lo_3_tab20_ascend_smlg_bar.png",NA,NA
NA,"<div style=""width:500px;"">
                            <p style=""font-size:50px; font-weight:bold;""
                            >Fearful</p>
                            <div style=""width:480px; margin: auto;"">
                                <img src=""images/6_fearful_hi_md_2_tab10new_decend_smlg_bar.png"" width=""480"" height=""420"" style=""object-fit:contain;"">
                            </div>
                        </div>","89","html-slider-response",54,185742,"0.0-44.0","dwxp9psrh9",5,"","","","","","",0,"",NA,"","Fearful","images/6_fearful_hi_md_2_tab10new_decend_smlg_bar.png",NA,NA
NA,"<div style=""width:500px;"">
                            <p style=""font-size:50px; font-weight:bold;""
                            >Fearful</p>
                            <div style=""width:480px; margin: auto;"">
                                <img src=""images/6_fearful_med_lo_3_tab20_ascend_lgsm_bar.png"" width=""480"" height=""420"" style=""object-fit:contain;"">
                            </div>
                        </div>","-58","html-slider-response",55,188107,"0.0-45.0","dwxp9psrh9",5,"","","","","","",0,"",NA,"","Fearful","images/6_fearful_med_lo_3_tab20_ascend_lgsm_bar.png",NA,NA
NA,"<div style=""width:500px;"">
                            <p style=""font-size:50px; font-weight:bold;""
                            >Fearful</p>
                            <div style=""width:480px; margin: auto;"">
                                <img src=""images/6_fearful_hi_md_3_tab20_ascend_lgsm_bar.png"" width=""480"" height=""420"" style=""object-fit:contain;"">
                            </div>
                        </div>","92","html-slider-response",56,189810,"0.0-46.0","dwxp9psrh9",5,"","","","","","",0,"",NA,"","Fearful","images/6_fearful_hi_md_3_tab20_ascend_lgsm_bar.png",NA,NA
NA,"<div style=""width:500px;"">
                            <p style=""font-size:50px; font-weight:bold;""
                            >Fearful</p>
                            <div style=""width:480px; margin: auto;"">
                                <img src=""images/6_fearful_hi_md_2_tab10new_ascend_smlg_bar.png"" width=""480"" height=""420"" style=""object-fit:contain;"">
                            </div>
                        </div>","91","html-slider-response",57,191369,"0.0-47.0","dwxp9psrh9",5,"","","","","","",0,"",NA,"","Fearful","images/6_fearful_hi_md_2_tab10new_ascend_smlg_bar.png",NA,NA
NA,"<div style=""width:500px;"">
                            <p style=""font-size:50px; font-weight:bold;""
                            >Fearful</p>
                            <div style=""width:480px; margin: auto;"">
                                <img src=""images/6_fearful_med_lo_2_Set3_ascend_smlg_bar.png"" width=""480"" height=""420"" style=""object-fit:contain;"">
                            </div>
                        </div>","-102","html-slider-response",58,193100,"0.0-48.0","dwxp9psrh9",5,"","","","","","",0,"",NA,"","Fearful","images/6_fearful_med_lo_2_Set3_ascend_smlg_bar.png",NA,NA
NA,"<div style=""width:500px;"">
                            <p style=""font-size:50px; font-weight:bold;""
                            >Fearful</p>
                            <div style=""width:480px; margin: auto;"">
                                <img src=""images/6_fearful_med_lo_3_tab20_decend_lgsm_bar.png"" width=""480"" height=""420"" style=""object-fit:contain;"">
                            </div>
                        </div>","-78","html-slider-response",59,195432,"0.0-49.0","dwxp9psrh9",5,"","","","","","",0,"",NA,"","Fearful","images/6_fearful_med_lo_3_tab20_decend_lgsm_bar.png",NA,NA
NA,"<div style=""width:500px;"">
                            <p style=""font-size:50px; font-weight:bold;""
                            >Fearful</p>
                            <div style=""width:480px; margin: auto;"">
                                <img src=""images/6_fearful_hi_md_3_tab20_ascend_smlg_bar.png"" width=""480"" height=""420"" style=""object-fit:contain;"">
                            </div>
                        </div>","-78","html-slider-response",60,198829,"0.0-50.0","dwxp9psrh9",5,"","","","","","",0,"",NA,"","Fearful","images/6_fearful_hi_md_3_tab20_ascend_smlg_bar.png",NA,NA
NA,"<div style=""width:500px;"">
                            <p style=""font-size:50px; font-weight:bold;""
                            >Fearful</p>
                            <div style=""width:480px; margin: auto;"">
                                <img src=""images/6_fearful_hi_lo_3_Accent_ascend_lgsm_bar.png"" width=""480"" height=""420"" style=""object-fit:contain;"">
                            </div>
                        </div>","-54","html-slider-response",61,200635,"0.0-51.0","dwxp9psrh9",5,"","","","","","",0,"",NA,"","Fearful","images/6_fearful_hi_lo_3_Accent_ascend_lgsm_bar.png",NA,NA
NA,"<div style=""width:500px;"">
                            <p style=""font-size:50px; font-weight:bold;""
                            >Fearful</p>
                            <div style=""width:480px; margin: auto;"">
                                <img src=""images/6_fearful_hi_md_1_tab20b_decend_smlg_bar.png"" width=""480"" height=""420"" style=""object-fit:contain;"">
                            </div>
                        </div>","-70","html-slider-response",62,205525,"0.0-52.0","dwxp9psrh9",5,"","","","","","",0,"",NA,"","Fearful","images/6_fearful_hi_md_1_tab20b_decend_smlg_bar.png",NA,NA
NA,"<div style=""width:500px;"">
                            <p style=""font-size:50px; font-weight:bold;""
                            >Fearful</p>
                            <div style=""width:480px; margin: auto;"">
                                <img src=""images/6_fearful_hi_hi_2_tab20_decend_smlg_bar.png"" width=""480"" height=""420"" style=""object-fit:contain;"">
                            </div>
                        </div>","82","html-slider-response",63,207141,"0.0-53.0","dwxp9psrh9",5,"","","","","","",0,"",NA,"","Fearful","images/6_fearful_hi_hi_2_tab20_decend_smlg_bar.png",NA,NA
NA,"<div style=""width:500px;"">
                            <p style=""font-size:50px; font-weight:bold;""
                            >Fearful</p>
                            <div style=""width:480px; margin: auto;"">
                                <img src=""images/6_fearful_lo_lo_2_Set3_ascend_smlg_bar.png"" width=""480"" height=""420"" style=""object-fit:contain;"">
                            </div>
                        </div>","-77","html-slider-response",64,209125,"0.0-54.0","dwxp9psrh9",5,"","","","","","",0,"",NA,"","Fearful","images/6_fearful_lo_lo_2_Set3_ascend_smlg_bar.png",NA,NA
NA,"<div style=""width:500px;"">
                            <p style=""font-size:50px; font-weight:bold;""
                            >Fearful</p>
                            <div style=""width:480px; margin: auto;"">
                                <img src=""images/6_fearful_lo_lo_3_tab20c_decend_smlg_bar.png"" width=""480"" height=""420"" style=""object-fit:contain;"">
                            </div>
                        </div>","-99","html-slider-response",65,210849,"0.0-55.0","dwxp9psrh9",5,"","","","","","",0,"",NA,"","Fearful","images/6_fearful_lo_lo_3_tab20c_decend_smlg_bar.png",NA,NA
NA,"<div style=""width:500px;"">
                            <p style=""font-size:50px; font-weight:bold;""
                            >Fearful</p>
                            <div style=""width:480px; margin: auto;"">
                                <img src=""images/6_fearful_hi_lo_2_tab20b_decend_lgsm_bar.png"" width=""480"" height=""420"" style=""object-fit:contain;"">
                            </div>
                        </div>","50","html-slider-response",66,213945,"0.0-56.0","dwxp9psrh9",5,"","","","","","",0,"",NA,"","Fearful","images/6_fearful_hi_lo_2_tab20b_decend_lgsm_bar.png",NA,NA
NA,"<div style=""width:500px;"">
                            <p style=""font-size:50px; font-weight:bold;""
                            >Fearful</p>
                            <div style=""width:480px; margin: auto;"">
                                <img src=""images/6_fearful_hi_md_2_tab10new_decend_lgsm_bar.png"" width=""480"" height=""420"" style=""object-fit:contain;"">
                            </div>
                        </div>","59","html-slider-response",67,217818,"0.0-57.0","dwxp9psrh9",5,"","","","","","",0,"",NA,"","Fearful","images/6_fearful_hi_md_2_tab10new_decend_lgsm_bar.png",NA,NA
NA,"<div style=""width:500px;"">
                            <p style=""font-size:50px; font-weight:bold;""
                            >Fearful</p>
                            <div style=""width:480px; margin: auto;"">
                                <img src=""images/6_fearful_hi_md_2_tab10new_ascend_lgsm_bar.png"" width=""480"" height=""420"" style=""object-fit:contain;"">
                            </div>
                        </div>","59","html-slider-response",68,219555,"0.0-58.0","dwxp9psrh9",5,"","","","","","",0,"",NA,"","Fearful","images/6_fearful_hi_md_2_tab10new_ascend_lgsm_bar.png",NA,NA
NA,"<div style=""width:500px;"">
                            <p style=""font-size:50px; font-weight:bold;""
                            >Fearful</p>
                            <div style=""width:480px; margin: auto;"">
                                <img src=""images/6_fearful_hi_hi_2_tab20_decend_lgsm_bar.png"" width=""480"" height=""420"" style=""object-fit:contain;"">
                            </div>
                        </div>","127","html-slider-response",69,221413,"0.0-59.0","dwxp9psrh9",5,"","","","","","",0,"",NA,"","Fearful","images/6_fearful_hi_hi_2_tab20_decend_lgsm_bar.png",NA,NA
NA,"<div style=""width:500px;"">
                            <p style=""font-size:50px; font-weight:bold;""
                            >Fearful</p>
                            <div style=""width:480px; margin: auto;"">
                                <img src=""images/6_fearful_med_med_1_tab20c_ascend_smlg_bar.png"" width=""480"" height=""420"" style=""object-fit:contain;"">
                            </div>
                        </div>","138","html-slider-response",70,223317,"0.0-60.0","dwxp9psrh9",5,"","","","","","",0,"",NA,"","Fearful","images/6_fearful_med_med_1_tab20c_ascend_smlg_bar.png",NA,NA
NA,"<div style=""width:500px;"">
                            <p style=""font-size:50px; font-weight:bold;""
                            >Fearful</p>
                            <div style=""width:480px; margin: auto;"">
                                <img src=""images/6_fearful_med_lo_1_Pastel1_ascend_smlg_bar.png"" width=""480"" height=""420"" style=""object-fit:contain;"">
                            </div>
                        </div>","-75","html-slider-response",71,225011,"0.0-61.0","dwxp9psrh9",5,"","","","","","",0,"",NA,"","Fearful","images/6_fearful_med_lo_1_Pastel1_ascend_smlg_bar.png",NA,NA
NA,"<div style=""width:500px;"">
                            <p style=""font-size:50px; font-weight:bold;""
                            >Fearful</p>
                            <div style=""width:480px; margin: auto;"">
                                <img src=""images/6_fearful_med_med_3_tab20b_ascend_smlg_bar.png"" width=""480"" height=""420"" style=""object-fit:contain;"">
                            </div>
                        </div>","-63","html-slider-response",72,227067,"0.0-62.0","dwxp9psrh9",5,"","","","","","",0,"",NA,"","Fearful","images/6_fearful_med_med_3_tab20b_ascend_smlg_bar.png",NA,NA
NA,"<div style=""width:500px;"">
                            <p style=""font-size:50px; font-weight:bold;""
                            >Fearful</p>
                            <div style=""width:480px; margin: auto;"">
                                <img src=""images/6_fearful_hi_md_1_tab20b_ascend_lgsm_bar.png"" width=""480"" height=""420"" style=""object-fit:contain;"">
                            </div>
                        </div>","-25","html-slider-response",73,228931,"0.0-63.0","dwxp9psrh9",5,"","","","","","",0,"",NA,"","Fearful","images/6_fearful_hi_md_1_tab20b_ascend_lgsm_bar.png",NA,NA
NA,"<div style=""width:500px;"">
                            <p style=""font-size:50px; font-weight:bold;""
                            >Fearful</p>
                            <div style=""width:480px; margin: auto;"">
                                <img src=""images/6_fearful_hi_hi_2_tab20_ascend_smlg_bar.png"" width=""480"" height=""420"" style=""object-fit:contain;"">
                            </div>
                        </div>","48","html-slider-response",74,231489,"0.0-64.0","dwxp9psrh9",5,"","","","","","",0,"",NA,"","Fearful","images/6_fearful_hi_hi_2_tab20_ascend_smlg_bar.png",NA,NA
NA,"<div style=""width:500px;"">
                            <p style=""font-size:50px; font-weight:bold;""
                            >Fearful</p>
                            <div style=""width:480px; margin: auto;"">
                                <img src=""images/6_fearful_hi_hi_3_tab10new_decend_lgsm_bar.png"" width=""480"" height=""420"" style=""object-fit:contain;"">
                            </div>
                        </div>","82","html-slider-response",75,233610,"0.0-65.0","dwxp9psrh9",5,"","","","","","",0,"",NA,"","Fearful","images/6_fearful_hi_hi_3_tab10new_decend_lgsm_bar.png",NA,NA
NA,"<div style=""width:500px;"">
                            <p style=""font-size:50px; font-weight:bold;""
                            >Fearful</p>
                            <div style=""width:480px; margin: auto;"">
                                <img src=""images/6_fearful_hi_hi_3_tab10new_decend_smlg_bar.png"" width=""480"" height=""420"" style=""object-fit:contain;"">
                            </div>
                        </div>","46","html-slider-response",76,242076,"0.0-66.0","dwxp9psrh9",5,"","","","","","",0,"",NA,"","Fearful","images/6_fearful_hi_hi_3_tab10new_decend_smlg_bar.png",NA,NA
NA,"<div style=""width:500px;"">
                            <p style=""font-size:50px; font-weight:bold;""
                            >Fearful</p>
                            <div style=""width:480px; margin: auto;"">
                                <img src=""images/6_fearful_med_lo_2_Set3_decend_smlg_bar.png"" width=""480"" height=""420"" style=""object-fit:contain;"">
                            </div>
                        </div>","-86","html-slider-response",77,244181,"0.0-67.0","dwxp9psrh9",5,"","","","","","",0,"",NA,"","Fearful","images/6_fearful_med_lo_2_Set3_decend_smlg_bar.png",NA,NA
NA,"<div style=""width:500px;"">
                            <p style=""font-size:50px; font-weight:bold;""
                            >Fearful</p>
                            <div style=""width:480px; margin: auto;"">
                                <img src=""images/6_fearful_med_lo_1_Pastel1_decend_smlg_bar.png"" width=""480"" height=""420"" style=""object-fit:contain;"">
                            </div>
                        </div>","-102","html-slider-response",78,246313,"0.0-68.0","dwxp9psrh9",5,"","","","","","",0,"",NA,"","Fearful","images/6_fearful_med_lo_1_Pastel1_decend_smlg_bar.png",NA,NA
NA,"<div style=""width:500px;"">
                            <p style=""font-size:50px; font-weight:bold;""
                            >Fearful</p>
                            <div style=""width:480px; margin: auto;"">
                                <img src=""images/6_fearful_lo_lo_2_Set3_decend_smlg_bar.png"" width=""480"" height=""420"" style=""object-fit:contain;"">
                            </div>
                        </div>","-131","html-slider-response",79,248077,"0.0-69.0","dwxp9psrh9",5,"","","","","","",0,"",NA,"","Fearful","images/6_fearful_lo_lo_2_Set3_decend_smlg_bar.png",NA,NA
NA,"<div style=""width:500px;"">
                            <p style=""font-size:50px; font-weight:bold;""
                            >Fearful</p>
                            <div style=""width:480px; margin: auto;"">
                                <img src=""images/6_fearful_med_lo_1_Pastel1_decend_lgsm_bar.png"" width=""480"" height=""420"" style=""object-fit:contain;"">
                            </div>
                        </div>","-62","html-slider-response",80,249698,"0.0-70.0","dwxp9psrh9",5,"","","","","","",0,"",NA,"","Fearful","images/6_fearful_med_lo_1_Pastel1_decend_lgsm_bar.png",NA,NA
NA,"<div style=""width:500px;"">
                            <p style=""font-size:50px; font-weight:bold;""
                            >Fearful</p>
                            <div style=""width:480px; margin: auto;"">
                                <img src=""images/6_fearful_hi_hi_3_tab10new_ascend_smlg_bar.png"" width=""480"" height=""420"" style=""object-fit:contain;"">
                            </div>
                        </div>","30","html-slider-response",81,251481,"0.0-71.0","dwxp9psrh9",5,"","","","","","",0,"",NA,"","Fearful","images/6_fearful_hi_hi_3_tab10new_ascend_smlg_bar.png",NA,NA
NA,"<div style=""width:500px;"">
                            <p style=""font-size:50px; font-weight:bold;""
                            >Fearful</p>
                            <div style=""width:480px; margin: auto;"">
                                <img src=""images/6_fearful_hi_lo_3_Accent_ascend_smlg_bar.png"" width=""480"" height=""420"" style=""object-fit:contain;"">
                            </div>
                        </div>","29","html-slider-response",82,253090,"0.0-72.0","dwxp9psrh9",5,"","","","","","",0,"",NA,"","Fearful","images/6_fearful_hi_lo_3_Accent_ascend_smlg_bar.png",NA,NA
NA,"<div style=""width:500px;"">
                            <p style=""font-size:50px; font-weight:bold;""
                            >Fearful</p>
                            <div style=""width:480px; margin: auto;"">
                                <img src=""images/6_fearful_hi_lo_1_tab20_ascend_smlg_bar.png"" width=""480"" height=""420"" style=""object-fit:contain;"">
                            </div>
                        </div>","162","html-slider-response",83,255082,"0.0-73.0","dwxp9psrh9",5,"","","","","","",0,"",NA,"","Fearful","images/6_fearful_hi_lo_1_tab20_ascend_smlg_bar.png",NA,NA
NA,"<div style=""width:500px;"">
                            <p style=""font-size:50px; font-weight:bold;""
                            >Fearful</p>
                            <div style=""width:480px; margin: auto;"">
                                <img src=""images/6_fearful_hi_lo_3_Accent_decend_lgsm_bar.png"" width=""480"" height=""420"" style=""object-fit:contain;"">
                            </div>
                        </div>","20","html-slider-response",84,257321,"0.0-74.0","dwxp9psrh9",5,"","","","","","",0,"",NA,"","Fearful","images/6_fearful_hi_lo_3_Accent_decend_lgsm_bar.png",NA,NA
NA,"<div style=""width:500px;"">
                            <p style=""font-size:50px; font-weight:bold;""
                            >Fearful</p>
                            <div style=""width:480px; margin: auto;"">
                                <img src=""images/6_fearful_lo_lo_1_Pastel1_ascend_lgsm_bar.png"" width=""480"" height=""420"" style=""object-fit:contain;"">
                            </div>
                        </div>","-128","html-slider-response",85,259153,"0.0-75.0","dwxp9psrh9",5,"","","","","","",0,"",NA,"","Fearful","images/6_fearful_lo_lo_1_Pastel1_ascend_lgsm_bar.png",NA,NA
NA,"<div style=""width:500px;"">
                            <p style=""font-size:50px; font-weight:bold;""
                            >Fearful</p>
                            <div style=""width:480px; margin: auto;"">
                                <img src=""images/6_fearful_hi_lo_2_tab20b_ascend_lgsm_bar.png"" width=""480"" height=""420"" style=""object-fit:contain;"">
                            </div>
                        </div>","26","html-slider-response",86,260835,"0.0-76.0","dwxp9psrh9",5,"","","","","","",0,"",NA,"","Fearful","images/6_fearful_hi_lo_2_tab20b_ascend_lgsm_bar.png",NA,NA
NA,"<div style=""width:500px;"">
                            <p style=""font-size:50px; font-weight:bold;""
                            >Fearful</p>
                            <div style=""width:480px; margin: auto;"">
                                <img src=""images/6_fearful_med_lo_1_Pastel1_ascend_lgsm_bar.png"" width=""480"" height=""420"" style=""object-fit:contain;"">
                            </div>
                        </div>","-152","html-slider-response",87,262459,"0.0-77.0","dwxp9psrh9",5,"","","","","","",0,"",NA,"","Fearful","images/6_fearful_med_lo_1_Pastel1_ascend_lgsm_bar.png",NA,NA
NA,"<div style=""width:500px;"">
                            <p style=""font-size:50px; font-weight:bold;""
                            >Fearful</p>
                            <div style=""width:480px; margin: auto;"">
                                <img src=""images/6_fearful_med_med_2_tab20_decend_lgsm_bar.png"" width=""480"" height=""420"" style=""object-fit:contain;"">
                            </div>
                        </div>","48","html-slider-response",88,264119,"0.0-78.0","dwxp9psrh9",5,"","","","","","",0,"",NA,"","Fearful","images/6_fearful_med_med_2_tab20_decend_lgsm_bar.png",NA,NA
NA,"<div style=""width:500px;"">
                            <p style=""font-size:50px; font-weight:bold;""
                            >Fearful</p>
                            <div style=""width:480px; margin: auto;"">
                                <img src=""images/6_fearful_lo_lo_1_Pastel1_decend_smlg_bar.png"" width=""480"" height=""420"" style=""object-fit:contain;"">
                            </div>
                        </div>","-200","html-slider-response",89,265619,"0.0-79.0","dwxp9psrh9",5,"","","","","","",0,"",NA,"","Fearful","images/6_fearful_lo_lo_1_Pastel1_decend_smlg_bar.png",NA,NA
NA,"<div style=""width:500px;"">
                            <p style=""font-size:50px; font-weight:bold;""
                            >Fearful</p>
                            <div style=""width:480px; margin: auto;"">
                                <img src=""images/6_fearful_med_med_2_tab20_ascend_smlg_bar.png"" width=""480"" height=""420"" style=""object-fit:contain;"">
                            </div>
                        </div>","33","html-slider-response",90,267341,"0.0-80.0","dwxp9psrh9",5,"","","","","","",0,"",NA,"","Fearful","images/6_fearful_med_med_2_tab20_ascend_smlg_bar.png",NA,NA
NA,"<div style=""width:500px;"">
                            <p style=""font-size:50px; font-weight:bold;""
                            >Fearful</p>
                            <div style=""width:480px; margin: auto;"">
                                <img src=""images/6_fearful_hi_md_1_tab20b_ascend_smlg_bar.png"" width=""480"" height=""420"" style=""object-fit:contain;"">
                            </div>
                        </div>","73","html-slider-response",91,268934,"0.0-81.0","dwxp9psrh9",5,"","","","","","",0,"",NA,"","Fearful","images/6_fearful_hi_md_1_tab20b_ascend_smlg_bar.png",NA,NA
NA,"<div style=""width:500px;"">
                            <p style=""font-size:50px; font-weight:bold;""
                            >Fearful</p>
                            <div style=""width:480px; margin: auto;"">
                                <img src=""images/6_fearful_lo_lo_2_Set3_decend_lgsm_bar.png"" width=""480"" height=""420"" style=""object-fit:contain;"">
                            </div>
                        </div>","-38","html-slider-response",92,272494,"0.0-82.0","dwxp9psrh9",5,"","","","","","",0,"",NA,"","Fearful","images/6_fearful_lo_lo_2_Set3_decend_lgsm_bar.png",NA,NA
NA,"<div style=""width:500px;"">
                            <p style=""font-size:50px; font-weight:bold;""
                            >Fearful</p>
                            <div style=""width:480px; margin: auto;"">
                                <img src=""images/6_fearful_med_med_3_tab20b_ascend_lgsm_bar.png"" width=""480"" height=""420"" style=""object-fit:contain;"">
                            </div>
                        </div>","-58","html-slider-response",93,274932,"0.0-83.0","dwxp9psrh9",5,"","","","","","",0,"",NA,"","Fearful","images/6_fearful_med_med_3_tab20b_ascend_lgsm_bar.png",NA,NA
NA,"<div style=""width:500px;"">
                            <p style=""font-size:50px; font-weight:bold;""
                            >Fearful</p>
                            <div style=""width:480px; margin: auto;"">
                                <img src=""images/6_fearful_med_lo_3_tab20_decend_smlg_bar.png"" width=""480"" height=""420"" style=""object-fit:contain;"">
                            </div>
                        </div>","-38","html-slider-response",94,278855,"0.0-84.0","dwxp9psrh9",5,"","","","","","",0,"",NA,"","Fearful","images/6_fearful_med_lo_3_tab20_decend_smlg_bar.png",NA,NA
NA,"<div style=""width:500px;"">
                            <p style=""font-size:50px; font-weight:bold;""
                            >Fearful</p>
                            <div style=""width:480px; margin: auto;"">
                                <img src=""images/6_fearful_med_med_2_tab20_decend_smlg_bar.png"" width=""480"" height=""420"" style=""object-fit:contain;"">
                            </div>
                        </div>","-74","html-slider-response",95,280599,"0.0-85.0","dwxp9psrh9",5,"","","","","","",0,"",NA,"","Fearful","images/6_fearful_med_med_2_tab20_decend_smlg_bar.png",NA,NA
2331,"<p>Great Job! You've finished block 1.<br></br> You have 4 block(s) left to go.<br></br></p>","0","html-button-response",96,283431,"0.0-86.0","dwxp9psrh9",5,"","","","","","",NA,"",NA,"","","",NA,NA
10511,"<p>In this block of trials, you will be asked to rate how much you associate each texture with the concept</p >
                        <p style = 'font-size:150%; font-weight: bold'>Happy</p><br></br>","0","html-button-response",97,293942,"0.0-87.0","dwxp9psrh9",5,"","","","","","",NA,"",NA,"","","",NA,NA
NA,"<div style=""width:500px;"">
                            <p style=""font-size:50px; font-weight:bold;""
                            >Happy</p>
                            <div style=""width:480px; margin: auto;"">
                                <img src=""images/6_happy_hi_hi_3_Paired_decend_lgsm_bar.png"" width=""480"" height=""420"" style=""object-fit:contain;"">
                            </div>
                        </div>","36","html-slider-response",98,296349,"0.0-88.0","dwxp9psrh9",5,"","","","","","",0,"",NA,"","Happy","images/6_happy_hi_hi_3_Paired_decend_lgsm_bar.png",NA,NA
NA,"<div style=""width:500px;"">
                            <p style=""font-size:50px; font-weight:bold;""
                            >Happy</p>
                            <div style=""width:480px; margin: auto;"">
                                <img src=""images/6_happy_lo_lo_1_tab20b_decend_lgsm_bar.png"" width=""480"" height=""420"" style=""object-fit:contain;"">
                            </div>
                        </div>","-154","html-slider-response",99,299103,"0.0-89.0","dwxp9psrh9",5,"","","","","","",0,"",NA,"","Happy","images/6_happy_lo_lo_1_tab20b_decend_lgsm_bar.png",NA,NA
NA,"<div style=""width:500px;"">
                            <p style=""font-size:50px; font-weight:bold;""
                            >Happy</p>
                            <div style=""width:480px; margin: auto;"">
                                <img src=""images/6_happy_hi_hi_2_tab20_ascend_smlg_bar.png"" width=""480"" height=""420"" style=""object-fit:contain;"">
                            </div>
                        </div>","-34","html-slider-response",100,301258,"0.0-90.0","dwxp9psrh9",5,"","","","","","",0,"",NA,"","Happy","images/6_happy_hi_hi_2_tab20_ascend_smlg_bar.png",NA,NA
NA,"<div style=""width:500px;"">
                            <p style=""font-size:50px; font-weight:bold;""
                            >Happy</p>
                            <div style=""width:480px; margin: auto;"">
                                <img src=""images/6_happy_med_med_2_tab20b_decend_smlg_bar.png"" width=""480"" height=""420"" style=""object-fit:contain;"">
                            </div>
                        </div>","-101","html-slider-response",101,303363,"0.0-91.0","dwxp9psrh9",5,"","","","","","",0,"",NA,"","Happy","images/6_happy_med_med_2_tab20b_decend_smlg_bar.png",NA,NA
NA,"<div style=""width:500px;"">
                            <p style=""font-size:50px; font-weight:bold;""
                            >Happy</p>
                            <div style=""width:480px; margin: auto;"">
                                <img src=""images/6_happy_hi_md_1_Set1_decend_smlg_bar.png"" width=""480"" height=""420"" style=""object-fit:contain;"">
                            </div>
                        </div>","-81","html-slider-response",102,305274,"0.0-92.0","dwxp9psrh9",5,"","","","","","",0,"",NA,"","Happy","images/6_happy_hi_md_1_Set1_decend_smlg_bar.png",NA,NA
NA,"<div style=""width:500px;"">
                            <p style=""font-size:50px; font-weight:bold;""
                            >Happy</p>
                            <div style=""width:480px; margin: auto;"">
                                <img src=""images/6_happy_med_lo_1_tab20b_decend_smlg_bar.png"" width=""480"" height=""420"" style=""object-fit:contain;"">
                            </div>
                        </div>","-139","html-slider-response",103,307383,"0.0-93.0","dwxp9psrh9",5,"","","","","","",0,"",NA,"","Happy","images/6_happy_med_lo_1_tab20b_decend_smlg_bar.png",NA,NA
NA,"<div style=""width:500px;"">
                            <p style=""font-size:50px; font-weight:bold;""
                            >Happy</p>
                            <div style=""width:480px; margin: auto;"">
                                <img src=""images/6_happy_med_lo_3_tab10new_ascend_lgsm_bar.png"" width=""480"" height=""420"" style=""object-fit:contain;"">
                            </div>
                        </div>","-118","html-slider-response",104,309241,"0.0-94.0","dwxp9psrh9",5,"","","","","","",0,"",NA,"","Happy","images/6_happy_med_lo_3_tab10new_ascend_lgsm_bar.png",NA,NA
NA,"<div style=""width:500px;"">
                            <p style=""font-size:50px; font-weight:bold;""
                            >Happy</p>
                            <div style=""width:480px; margin: auto;"">
                                <img src=""images/6_happy_hi_hi_1_Set1_ascend_smlg_bar.png"" width=""480"" height=""420"" style=""object-fit:contain;"">
                            </div>
                        </div>","76","html-slider-response",105,312132,"0.0-95.0","dwxp9psrh9",5,"","","","","","",0,"",NA,"","Happy","images/6_happy_hi_hi_1_Set1_ascend_smlg_bar.png",NA,NA
NA,"<div style=""width:500px;"">
                            <p style=""font-size:50px; font-weight:bold;""
                            >Happy</p>
                            <div style=""width:480px; margin: auto;"">
                                <img src=""images/6_happy_hi_lo_3_Dark2_decend_lgsm_bar.png"" width=""480"" height=""420"" style=""object-fit:contain;"">
                            </div>
                        </div>","-54","html-slider-response",106,314731,"0.0-96.0","dwxp9psrh9",5,"","","","","","",0,"",NA,"","Happy","images/6_happy_hi_lo_3_Dark2_decend_lgsm_bar.png",NA,NA
NA,"<div style=""width:500px;"">
                            <p style=""font-size:50px; font-weight:bold;""
                            >Happy</p>
                            <div style=""width:480px; margin: auto;"">
                                <img src=""images/6_happy_med_lo_1_tab20b_decend_lgsm_bar.png"" width=""480"" height=""420"" style=""object-fit:contain;"">
                            </div>
                        </div>","-110","html-slider-response",107,316634,"0.0-97.0","dwxp9psrh9",5,"","","","","","",0,"",NA,"","Happy","images/6_happy_med_lo_1_tab20b_decend_lgsm_bar.png",NA,NA
NA,"<div style=""width:500px;"">
                            <p style=""font-size:50px; font-weight:bold;""
                            >Happy</p>
                            <div style=""width:480px; margin: auto;"">
                                <img src=""images/6_happy_med_med_3_Set3_ascend_lgsm_bar.png"" width=""480"" height=""420"" style=""object-fit:contain;"">
                            </div>
                        </div>","-120","html-slider-response",108,318380,"0.0-98.0","dwxp9psrh9",5,"","","","","","",0,"",NA,"","Happy","images/6_happy_med_med_3_Set3_ascend_lgsm_bar.png",NA,NA
NA,"<div style=""width:500px;"">
                            <p style=""font-size:50px; font-weight:bold;""
                            >Happy</p>
                            <div style=""width:480px; margin: auto;"">
                                <img src=""images/6_happy_lo_lo_3_tab20_ascend_lgsm_bar.png"" width=""480"" height=""420"" style=""object-fit:contain;"">
                            </div>
                        </div>","-118","html-slider-response",109,319648,"0.0-99.0","dwxp9psrh9",5,"","","","","","",0,"",NA,"","Happy","images/6_happy_lo_lo_3_tab20_ascend_lgsm_bar.png",NA,NA
NA,"<div style=""width:500px;"">
                            <p style=""font-size:50px; font-weight:bold;""
                            >Happy</p>
                            <div style=""width:480px; margin: auto;"">
                                <img src=""images/6_happy_hi_md_3_Set2_ascend_lgsm_bar.png"" width=""480"" height=""420"" style=""object-fit:contain;"">
                            </div>
                        </div>","-153","html-slider-response",110,321160,"0.0-100.0","dwxp9psrh9",5,"","","","","","",0,"",NA,"","Happy","images/6_happy_hi_md_3_Set2_ascend_lgsm_bar.png",NA,NA
NA,"<div style=""width:500px;"">
                            <p style=""font-size:50px; font-weight:bold;""
                            >Happy</p>
                            <div style=""width:480px; margin: auto;"">
                                <img src=""images/6_happy_med_lo_1_tab20b_ascend_smlg_bar.png"" width=""480"" height=""420"" style=""object-fit:contain;"">
                            </div>
                        </div>","-175","html-slider-response",111,323401,"0.0-101.0","dwxp9psrh9",5,"","","","","","",0,"",NA,"","Happy","images/6_happy_med_lo_1_tab20b_ascend_smlg_bar.png",NA,NA
NA,"<div style=""width:500px;"">
                            <p style=""font-size:50px; font-weight:bold;""
                            >Happy</p>
                            <div style=""width:480px; margin: auto;"">
                                <img src=""images/6_happy_lo_lo_2_tab10new_decend_lgsm_bar.png"" width=""480"" height=""420"" style=""object-fit:contain;"">
                            </div>
                        </div>","-137","html-slider-response",112,325219,"0.0-102.0","dwxp9psrh9",5,"","","","","","",0,"",NA,"","Happy","images/6_happy_lo_lo_2_tab10new_decend_lgsm_bar.png",NA,NA
NA,"<div style=""width:500px;"">
                            <p style=""font-size:50px; font-weight:bold;""
                            >Happy</p>
                            <div style=""width:480px; margin: auto;"">
                                <img src=""images/6_happy_med_med_1_tab20c_decend_lgsm_bar.png"" width=""480"" height=""420"" style=""object-fit:contain;"">
                            </div>
                        </div>","-79","html-slider-response",113,327117,"0.0-103.0","dwxp9psrh9",5,"","","","","","",0,"",NA,"","Happy","images/6_happy_med_med_1_tab20c_decend_lgsm_bar.png",NA,NA
NA,"<div style=""width:500px;"">
                            <p style=""font-size:50px; font-weight:bold;""
                            >Happy</p>
                            <div style=""width:480px; margin: auto;"">
                                <img src=""images/6_happy_med_lo_3_tab10new_decend_smlg_bar.png"" width=""480"" height=""420"" style=""object-fit:contain;"">
                            </div>
                        </div>","-179","html-slider-response",114,329380,"0.0-104.0","dwxp9psrh9",5,"","","","","","",0,"",NA,"","Happy","images/6_happy_med_lo_3_tab10new_decend_smlg_bar.png",NA,NA
NA,"<div style=""width:500px;"">
                            <p style=""font-size:50px; font-weight:bold;""
                            >Happy</p>
                            <div style=""width:480px; margin: auto;"">
                                <img src=""images/6_happy_lo_lo_1_tab20b_ascend_lgsm_bar.png"" width=""480"" height=""420"" style=""object-fit:contain;"">
                            </div>
                        </div>","-130","html-slider-response",115,330932,"0.0-105.0","dwxp9psrh9",5,"","","","","","",0,"",NA,"","Happy","images/6_happy_lo_lo_1_tab20b_ascend_lgsm_bar.png",NA,NA
NA,"<div style=""width:500px;"">
                            <p style=""font-size:50px; font-weight:bold;""
                            >Happy</p>
                            <div style=""width:480px; margin: auto;"">
                                <img src=""images/6_happy_med_med_3_Set3_decend_lgsm_bar.png"" width=""480"" height=""420"" style=""object-fit:contain;"">
                            </div>
                        </div>","-159","html-slider-response",116,332972,"0.0-106.0","dwxp9psrh9",5,"","","","","","",0,"",NA,"","Happy","images/6_happy_med_med_3_Set3_decend_lgsm_bar.png",NA,NA
NA,"<div style=""width:500px;"">
                            <p style=""font-size:50px; font-weight:bold;""
                            >Happy</p>
                            <div style=""width:480px; margin: auto;"">
                                <img src=""images/6_happy_hi_lo_1_tab20_decend_lgsm_bar.png"" width=""480"" height=""420"" style=""object-fit:contain;"">
                            </div>
                        </div>","18","html-slider-response",117,334997,"0.0-107.0","dwxp9psrh9",5,"","","","","","",0,"",NA,"","Happy","images/6_happy_hi_lo_1_tab20_decend_lgsm_bar.png",NA,NA
NA,"<div style=""width:500px;"">
                            <p style=""font-size:50px; font-weight:bold;""
                            >Happy</p>
                            <div style=""width:480px; margin: auto;"">
                                <img src=""images/6_happy_hi_md_2_tab20_ascend_smlg_bar.png"" width=""480"" height=""420"" style=""object-fit:contain;"">
                            </div>
                        </div>","40","html-slider-response",118,336718,"0.0-108.0","dwxp9psrh9",5,"","","","","","",0,"",NA,"","Happy","images/6_happy_hi_md_2_tab20_ascend_smlg_bar.png",NA,NA
NA,"<div style=""width:500px;"">
                            <p style=""font-size:50px; font-weight:bold;""
                            >Happy</p>
                            <div style=""width:480px; margin: auto;"">
                                <img src=""images/6_happy_med_lo_3_tab10new_ascend_smlg_bar.png"" width=""480"" height=""420"" style=""object-fit:contain;"">
                            </div>
                        </div>","-38","html-slider-response",119,338747,"0.0-109.0","dwxp9psrh9",5,"","","","","","",0,"",NA,"","Happy","images/6_happy_med_lo_3_tab10new_ascend_smlg_bar.png",NA,NA
NA,"<div style=""width:500px;"">
                            <p style=""font-size:50px; font-weight:bold;""
                            >Happy</p>
                            <div style=""width:480px; margin: auto;"">
                                <img src=""images/6_happy_hi_lo_2_Set1_decend_lgsm_bar.png"" width=""480"" height=""420"" style=""object-fit:contain;"">
                            </div>
                        </div>","58","html-slider-response",120,340652,"0.0-110.0","dwxp9psrh9",5,"","","","","","",0,"",NA,"","Happy","images/6_happy_hi_lo_2_Set1_decend_lgsm_bar.png",NA,NA
NA,"<div style=""width:500px;"">
                            <p style=""font-size:50px; font-weight:bold;""
                            >Happy</p>
                            <div style=""width:480px; margin: auto;"">
                                <img src=""images/6_happy_hi_md_2_tab20_decend_lgsm_bar.png"" width=""480"" height=""420"" style=""object-fit:contain;"">
                            </div>
                        </div>","-98","html-slider-response",121,342272,"0.0-111.0","dwxp9psrh9",5,"","","","","","",0,"",NA,"","Happy","images/6_happy_hi_md_2_tab20_decend_lgsm_bar.png",NA,NA
NA,"<div style=""width:500px;"">
                            <p style=""font-size:50px; font-weight:bold;""
                            >Happy</p>
                            <div style=""width:480px; margin: auto;"">
                                <img src=""images/6_happy_med_med_3_Set3_decend_smlg_bar.png"" width=""480"" height=""420"" style=""object-fit:contain;"">
                            </div>
                        </div>","13","html-slider-response",122,344905,"0.0-112.0","dwxp9psrh9",5,"","","","","","",0,"",NA,"","Happy","images/6_happy_med_med_3_Set3_decend_smlg_bar.png",NA,NA
NA,"<div style=""width:500px;"">
                            <p style=""font-size:50px; font-weight:bold;""
                            >Happy</p>
                            <div style=""width:480px; margin: auto;"">
                                <img src=""images/6_happy_med_lo_2_tab20_decend_lgsm_bar.png"" width=""480"" height=""420"" style=""object-fit:contain;"">
                            </div>
                        </div>","-50","html-slider-response",123,346624,"0.0-113.0","dwxp9psrh9",5,"","","","","","",0,"",NA,"","Happy","images/6_happy_med_lo_2_tab20_decend_lgsm_bar.png",NA,NA
NA,"<div style=""width:500px;"">
                            <p style=""font-size:50px; font-weight:bold;""
                            >Happy</p>
                            <div style=""width:480px; margin: auto;"">
                                <img src=""images/6_happy_med_lo_2_tab20_decend_smlg_bar.png"" width=""480"" height=""420"" style=""object-fit:contain;"">
                            </div>
                        </div>","-58","html-slider-response",124,348263,"0.0-114.0","dwxp9psrh9",5,"","","","","","",0,"",NA,"","Happy","images/6_happy_med_lo_2_tab20_decend_smlg_bar.png",NA,NA
NA,"<div style=""width:500px;"">
                            <p style=""font-size:50px; font-weight:bold;""
                            >Happy</p>
                            <div style=""width:480px; margin: auto;"">
                                <img src=""images/6_happy_hi_lo_2_Set1_ascend_smlg_bar.png"" width=""480"" height=""420"" style=""object-fit:contain;"">
                            </div>
                        </div>","51","html-slider-response",125,350188,"0.0-115.0","dwxp9psrh9",5,"","","","","","",0,"",NA,"","Happy","images/6_happy_hi_lo_2_Set1_ascend_smlg_bar.png",NA,NA
NA,"<div style=""width:500px;"">
                            <p style=""font-size:50px; font-weight:bold;""
                            >Happy</p>
                            <div style=""width:480px; margin: auto;"">
                                <img src=""images/6_happy_hi_md_3_Set2_decend_smlg_bar.png"" width=""480"" height=""420"" style=""object-fit:contain;"">
                            </div>
                        </div>","-87","html-slider-response",126,352222,"0.0-116.0","dwxp9psrh9",5,"","","","","","",0,"",NA,"","Happy","images/6_happy_hi_md_3_Set2_decend_smlg_bar.png",NA,NA
NA,"<div style=""width:500px;"">
                            <p style=""font-size:50px; font-weight:bold;""
                            >Happy</p>
                            <div style=""width:480px; margin: auto;"">
                                <img src=""images/6_happy_med_lo_3_tab10new_decend_lgsm_bar.png"" width=""480"" height=""420"" style=""object-fit:contain;"">
                            </div>
                        </div>","-66","html-slider-response",127,354090,"0.0-117.0","dwxp9psrh9",5,"","","","","","",0,"",NA,"","Happy","images/6_happy_med_lo_3_tab10new_decend_lgsm_bar.png",NA,NA
NA,"<div style=""width:500px;"">
                            <p style=""font-size:50px; font-weight:bold;""
                            >Happy</p>
                            <div style=""width:480px; margin: auto;"">
                                <img src=""images/6_happy_med_med_2_tab20b_ascend_lgsm_bar.png"" width=""480"" height=""420"" style=""object-fit:contain;"">
                            </div>
                        </div>","-33","html-slider-response",128,356220,"0.0-118.0","dwxp9psrh9",5,"","","","","","",0,"",NA,"","Happy","images/6_happy_med_med_2_tab20b_ascend_lgsm_bar.png",NA,NA
NA,"<div style=""width:500px;"">
                            <p style=""font-size:50px; font-weight:bold;""
                            >Happy</p>
                            <div style=""width:480px; margin: auto;"">
                                <img src=""images/6_happy_med_med_2_tab20b_ascend_smlg_bar.png"" width=""480"" height=""420"" style=""object-fit:contain;"">
                            </div>
                        </div>","-38","html-slider-response",129,359439,"0.0-119.0","dwxp9psrh9",5,"","","","","","",0,"",NA,"","Happy","images/6_happy_med_med_2_tab20b_ascend_smlg_bar.png",NA,NA
NA,"<div style=""width:500px;"">
                            <p style=""font-size:50px; font-weight:bold;""
                            >Happy</p>
                            <div style=""width:480px; margin: auto;"">
                                <img src=""images/6_happy_hi_md_1_Set1_ascend_lgsm_bar.png"" width=""480"" height=""420"" style=""object-fit:contain;"">
                            </div>
                        </div>","-45","html-slider-response",130,361367,"0.0-120.0","dwxp9psrh9",5,"","","","","","",0,"",NA,"","Happy","images/6_happy_hi_md_1_Set1_ascend_lgsm_bar.png",NA,NA
NA,"<div style=""width:500px;"">
                            <p style=""font-size:50px; font-weight:bold;""
                            >Happy</p>
                            <div style=""width:480px; margin: auto;"">
                                <img src=""images/6_happy_med_med_1_tab20c_decend_smlg_bar.png"" width=""480"" height=""420"" style=""object-fit:contain;"">
                            </div>
                        </div>","-57","html-slider-response",131,363146,"0.0-121.0","dwxp9psrh9",5,"","","","","","",0,"",NA,"","Happy","images/6_happy_med_med_1_tab20c_decend_smlg_bar.png",NA,NA
NA,"<div style=""width:500px;"">
                            <p style=""font-size:50px; font-weight:bold;""
                            >Happy</p>
                            <div style=""width:480px; margin: auto;"">
                                <img src=""images/6_happy_hi_lo_1_tab20_ascend_lgsm_bar.png"" width=""480"" height=""420"" style=""object-fit:contain;"">
                            </div>
                        </div>","-141","html-slider-response",132,365469,"0.0-122.0","dwxp9psrh9",5,"","","","","","",0,"",NA,"","Happy","images/6_happy_hi_lo_1_tab20_ascend_lgsm_bar.png",NA,NA
NA,"<div style=""width:500px;"">
                            <p style=""font-size:50px; font-weight:bold;""
                            >Happy</p>
                            <div style=""width:480px; margin: auto;"">
                                <img src=""images/6_happy_hi_lo_1_tab20_decend_smlg_bar.png"" width=""480"" height=""420"" style=""object-fit:contain;"">
                            </div>
                        </div>","-146","html-slider-response",133,367308,"0.0-123.0","dwxp9psrh9",5,"","","","","","",0,"",NA,"","Happy","images/6_happy_hi_lo_1_tab20_decend_smlg_bar.png",NA,NA
NA,"<div style=""width:500px;"">
                            <p style=""font-size:50px; font-weight:bold;""
                            >Happy</p>
                            <div style=""width:480px; margin: auto;"">
                                <img src=""images/6_happy_hi_md_1_Set1_decend_lgsm_bar.png"" width=""480"" height=""420"" style=""object-fit:contain;"">
                            </div>
                        </div>","24","html-slider-response",134,369490,"0.0-124.0","dwxp9psrh9",5,"","","","","","",0,"",NA,"","Happy","images/6_happy_hi_md_1_Set1_decend_lgsm_bar.png",NA,NA
NA,"<div style=""width:500px;"">
                            <p style=""font-size:50px; font-weight:bold;""
                            >Happy</p>
                            <div style=""width:480px; margin: auto;"">
                                <img src=""images/6_happy_hi_hi_2_tab20_ascend_lgsm_bar.png"" width=""480"" height=""420"" style=""object-fit:contain;"">
                            </div>
                        </div>","98","html-slider-response",135,372223,"0.0-125.0","dwxp9psrh9",5,"","","","","","",0,"",NA,"","Happy","images/6_happy_hi_hi_2_tab20_ascend_lgsm_bar.png",NA,NA
NA,"<div style=""width:500px;"">
                            <p style=""font-size:50px; font-weight:bold;""
                            >Happy</p>
                            <div style=""width:480px; margin: auto;"">
                                <img src=""images/6_happy_hi_lo_3_Dark2_decend_smlg_bar.png"" width=""480"" height=""420"" style=""object-fit:contain;"">
                            </div>
                        </div>","-78","html-slider-response",136,374415,"0.0-126.0","dwxp9psrh9",5,"","","","","","",0,"",NA,"","Happy","images/6_happy_hi_lo_3_Dark2_decend_smlg_bar.png",NA,NA
NA,"<div style=""width:500px;"">
                            <p style=""font-size:50px; font-weight:bold;""
                            >Happy</p>
                            <div style=""width:480px; margin: auto;"">
                                <img src=""images/6_happy_lo_lo_2_tab10new_ascend_smlg_bar.png"" width=""480"" height=""420"" style=""object-fit:contain;"">
                            </div>
                        </div>","-162","html-slider-response",137,377034,"0.0-127.0","dwxp9psrh9",5,"","","","","","",0,"",NA,"","Happy","images/6_happy_lo_lo_2_tab10new_ascend_smlg_bar.png",NA,NA
NA,"<div style=""width:500px;"">
                            <p style=""font-size:50px; font-weight:bold;""
                            >Happy</p>
                            <div style=""width:480px; margin: auto;"">
                                <img src=""images/6_happy_lo_lo_3_tab20_decend_smlg_bar.png"" width=""480"" height=""420"" style=""object-fit:contain;"">
                            </div>
                        </div>","-191","html-slider-response",138,379159,"0.0-128.0","dwxp9psrh9",5,"","","","","","",0,"",NA,"","Happy","images/6_happy_lo_lo_3_tab20_decend_smlg_bar.png",NA,NA
NA,"<div style=""width:500px;"">
                            <p style=""font-size:50px; font-weight:bold;""
                            >Happy</p>
                            <div style=""width:480px; margin: auto;"">
                                <img src=""images/6_happy_hi_hi_3_Paired_decend_smlg_bar.png"" width=""480"" height=""420"" style=""object-fit:contain;"">
                            </div>
                        </div>","106","html-slider-response",139,381565,"0.0-129.0","dwxp9psrh9",5,"","","","","","",0,"",NA,"","Happy","images/6_happy_hi_hi_3_Paired_decend_smlg_bar.png",NA,NA
NA,"<div style=""width:500px;"">
                            <p style=""font-size:50px; font-weight:bold;""
                            >Happy</p>
                            <div style=""width:480px; margin: auto;"">
                                <img src=""images/6_happy_lo_lo_3_tab20_decend_lgsm_bar.png"" width=""480"" height=""420"" style=""object-fit:contain;"">
                            </div>
                        </div>","-82","html-slider-response",140,384113,"0.0-130.0","dwxp9psrh9",5,"","","","","","",0,"",NA,"","Happy","images/6_happy_lo_lo_3_tab20_decend_lgsm_bar.png",NA,NA
NA,"<div style=""width:500px;"">
                            <p style=""font-size:50px; font-weight:bold;""
                            >Happy</p>
                            <div style=""width:480px; margin: auto;"">
                                <img src=""images/6_happy_lo_lo_1_tab20b_ascend_smlg_bar.png"" width=""480"" height=""420"" style=""object-fit:contain;"">
                            </div>
                        </div>","-82","html-slider-response",141,385346,"0.0-131.0","dwxp9psrh9",5,"","","","","","",0,"",NA,"","Happy","images/6_happy_lo_lo_1_tab20b_ascend_smlg_bar.png",NA,NA
NA,"<div style=""width:500px;"">
                            <p style=""font-size:50px; font-weight:bold;""
                            >Happy</p>
                            <div style=""width:480px; margin: auto;"">
                                <img src=""images/6_happy_hi_md_1_Set1_ascend_smlg_bar.png"" width=""480"" height=""420"" style=""object-fit:contain;"">
                            </div>
                        </div>","74","html-slider-response",142,387727,"0.0-132.0","dwxp9psrh9",5,"","","","","","",0,"",NA,"","Happy","images/6_happy_hi_md_1_Set1_ascend_smlg_bar.png",NA,NA
NA,"<div style=""width:500px;"">
                            <p style=""font-size:50px; font-weight:bold;""
                            >Happy</p>
                            <div style=""width:480px; margin: auto;"">
                                <img src=""images/6_happy_med_med_2_tab20b_decend_lgsm_bar.png"" width=""480"" height=""420"" style=""object-fit:contain;"">
                            </div>
                        </div>","-46","html-slider-response",143,389713,"0.0-133.0","dwxp9psrh9",5,"","","","","","",0,"",NA,"","Happy","images/6_happy_med_med_2_tab20b_decend_lgsm_bar.png",NA,NA
NA,"<div style=""width:500px;"">
                            <p style=""font-size:50px; font-weight:bold;""
                            >Happy</p>
                            <div style=""width:480px; margin: auto;"">
                                <img src=""images/6_happy_lo_lo_2_tab10new_decend_smlg_bar.png"" width=""480"" height=""420"" style=""object-fit:contain;"">
                            </div>
                        </div>","-178","html-slider-response",144,393129,"0.0-134.0","dwxp9psrh9",5,"","","","","","",0,"",NA,"","Happy","images/6_happy_lo_lo_2_tab10new_decend_smlg_bar.png",NA,NA
NA,"<div style=""width:500px;"">
                            <p style=""font-size:50px; font-weight:bold;""
                            >Happy</p>
                            <div style=""width:480px; margin: auto;"">
                                <img src=""images/6_happy_hi_hi_3_Paired_ascend_lgsm_bar.png"" width=""480"" height=""420"" style=""object-fit:contain;"">
                            </div>
                        </div>","36","html-slider-response",145,396337,"0.0-135.0","dwxp9psrh9",5,"","","","","","",0,"",NA,"","Happy","images/6_happy_hi_hi_3_Paired_ascend_lgsm_bar.png",NA,NA
NA,"<div style=""width:500px;"">
                            <p style=""font-size:50px; font-weight:bold;""
                            >Happy</p>
                            <div style=""width:480px; margin: auto;"">
                                <img src=""images/6_happy_med_med_3_Set3_ascend_smlg_bar.png"" width=""480"" height=""420"" style=""object-fit:contain;"">
                            </div>
                        </div>","-86","html-slider-response",146,399100,"0.0-136.0","dwxp9psrh9",5,"","","","","","",0,"",NA,"","Happy","images/6_happy_med_med_3_Set3_ascend_smlg_bar.png",NA,NA
NA,"<div style=""width:500px;"">
                            <p style=""font-size:50px; font-weight:bold;""
                            >Happy</p>
                            <div style=""width:480px; margin: auto;"">
                                <img src=""images/6_happy_med_lo_2_tab20_ascend_lgsm_bar.png"" width=""480"" height=""420"" style=""object-fit:contain;"">
                            </div>
                        </div>","-147","html-slider-response",147,401516,"0.0-137.0","dwxp9psrh9",5,"","","","","","",0,"",NA,"","Happy","images/6_happy_med_lo_2_tab20_ascend_lgsm_bar.png",NA,NA
NA,"<div style=""width:500px;"">
                            <p style=""font-size:50px; font-weight:bold;""
                            >Happy</p>
                            <div style=""width:480px; margin: auto;"">
                                <img src=""images/6_happy_med_med_1_tab20c_ascend_smlg_bar.png"" width=""480"" height=""420"" style=""object-fit:contain;"">
                            </div>
                        </div>","-98","html-slider-response",148,409639,"0.0-138.0","dwxp9psrh9",5,"","","","","","",0,"",NA,"","Happy","images/6_happy_med_med_1_tab20c_ascend_smlg_bar.png",NA,NA
NA,"<div style=""width:500px;"">
                            <p style=""font-size:50px; font-weight:bold;""
                            >Happy</p>
                            <div style=""width:480px; margin: auto;"">
                                <img src=""images/6_happy_med_lo_2_tab20_ascend_smlg_bar.png"" width=""480"" height=""420"" style=""object-fit:contain;"">
                            </div>
                        </div>","-89","html-slider-response",149,413027,"0.0-139.0","dwxp9psrh9",5,"","","","","","",0,"",NA,"","Happy","images/6_happy_med_lo_2_tab20_ascend_smlg_bar.png",NA,NA
NA,"<div style=""width:500px;"">
                            <p style=""font-size:50px; font-weight:bold;""
                            >Happy</p>
                            <div style=""width:480px; margin: auto;"">
                                <img src=""images/6_happy_hi_lo_3_Dark2_ascend_smlg_bar.png"" width=""480"" height=""420"" style=""object-fit:contain;"">
                            </div>
                        </div>","-130","html-slider-response",150,415257,"0.0-140.0","dwxp9psrh9",5,"","","","","","",0,"",NA,"","Happy","images/6_happy_hi_lo_3_Dark2_ascend_smlg_bar.png",NA,NA
NA,"<div style=""width:500px;"">
                            <p style=""font-size:50px; font-weight:bold;""
                            >Happy</p>
                            <div style=""width:480px; margin: auto;"">
                                <img src=""images/6_happy_hi_hi_3_Paired_ascend_smlg_bar.png"" width=""480"" height=""420"" style=""object-fit:contain;"">
                            </div>
                        </div>","31","html-slider-response",151,420062,"0.0-141.0","dwxp9psrh9",5,"","","","","","",0,"",NA,"","Happy","images/6_happy_hi_hi_3_Paired_ascend_smlg_bar.png",NA,NA
NA,"<div style=""width:500px;"">
                            <p style=""font-size:50px; font-weight:bold;""
                            >Happy</p>
                            <div style=""width:480px; margin: auto;"">
                                <img src=""images/6_happy_hi_lo_3_Dark2_ascend_lgsm_bar.png"" width=""480"" height=""420"" style=""object-fit:contain;"">
                            </div>
                        </div>","-92","html-slider-response",152,423689,"0.0-142.0","dwxp9psrh9",5,"","","","","","",0,"",NA,"","Happy","images/6_happy_hi_lo_3_Dark2_ascend_lgsm_bar.png",NA,NA
NA,"<div style=""width:500px;"">
                            <p style=""font-size:50px; font-weight:bold;""
                            >Happy</p>
                            <div style=""width:480px; margin: auto;"">
                                <img src=""images/6_happy_hi_md_3_Set2_decend_lgsm_bar.png"" width=""480"" height=""420"" style=""object-fit:contain;"">
                            </div>
                        </div>","92","html-slider-response",153,426780,"0.0-143.0","dwxp9psrh9",5,"","","","","","",0,"",NA,"","Happy","images/6_happy_hi_md_3_Set2_decend_lgsm_bar.png",NA,NA
NA,"<div style=""width:500px;"">
                            <p style=""font-size:50px; font-weight:bold;""
                            >Happy</p>
                            <div style=""width:480px; margin: auto;"">
                                <img src=""images/6_happy_lo_lo_2_tab10new_ascend_lgsm_bar.png"" width=""480"" height=""420"" style=""object-fit:contain;"">
                            </div>
                        </div>","-147","html-slider-response",154,429152,"0.0-144.0","dwxp9psrh9",5,"","","","","","",0,"",NA,"","Happy","images/6_happy_lo_lo_2_tab10new_ascend_lgsm_bar.png",NA,NA
NA,"<div style=""width:500px;"">
                            <p style=""font-size:50px; font-weight:bold;""
                            >Happy</p>
                            <div style=""width:480px; margin: auto;"">
                                <img src=""images/6_happy_hi_hi_1_Set1_ascend_lgsm_bar.png"" width=""480"" height=""420"" style=""object-fit:contain;"">
                            </div>
                        </div>","131","html-slider-response",155,431694,"0.0-145.0","dwxp9psrh9",5,"","","","","","",0,"",NA,"","Happy","images/6_happy_hi_hi_1_Set1_ascend_lgsm_bar.png",NA,NA
NA,"<div style=""width:500px;"">
                            <p style=""font-size:50px; font-weight:bold;""
                            >Happy</p>
                            <div style=""width:480px; margin: auto;"">
                                <img src=""images/6_happy_med_lo_1_tab20b_ascend_lgsm_bar.png"" width=""480"" height=""420"" style=""object-fit:contain;"">
                            </div>
                        </div>","-98","html-slider-response",156,433676,"0.0-146.0","dwxp9psrh9",5,"","","","","","",0,"",NA,"","Happy","images/6_happy_med_lo_1_tab20b_ascend_lgsm_bar.png",NA,NA
NA,"<div style=""width:500px;"">
                            <p style=""font-size:50px; font-weight:bold;""
                            >Happy</p>
                            <div style=""width:480px; margin: auto;"">
                                <img src=""images/6_happy_hi_lo_1_tab20_ascend_smlg_bar.png"" width=""480"" height=""420"" style=""object-fit:contain;"">
                            </div>
                        </div>","-47","html-slider-response",157,435459,"0.0-147.0","dwxp9psrh9",5,"","","","","","",0,"",NA,"","Happy","images/6_happy_hi_lo_1_tab20_ascend_smlg_bar.png",NA,NA
NA,"<div style=""width:500px;"">
                            <p style=""font-size:50px; font-weight:bold;""
                            >Happy</p>
                            <div style=""width:480px; margin: auto;"">
                                <img src=""images/6_happy_med_med_1_tab20c_ascend_lgsm_bar.png"" width=""480"" height=""420"" style=""object-fit:contain;"">
                            </div>
                        </div>","-34","html-slider-response",158,437924,"0.0-148.0","dwxp9psrh9",5,"","","","","","",0,"",NA,"","Happy","images/6_happy_med_med_1_tab20c_ascend_lgsm_bar.png",NA,NA
NA,"<div style=""width:500px;"">
                            <p style=""font-size:50px; font-weight:bold;""
                            >Happy</p>
                            <div style=""width:480px; margin: auto;"">
                                <img src=""images/6_happy_hi_md_2_tab20_decend_smlg_bar.png"" width=""480"" height=""420"" style=""object-fit:contain;"">
                            </div>
                        </div>","-57","html-slider-response",159,440445,"0.0-149.0","dwxp9psrh9",5,"","","","","","",0,"",NA,"","Happy","images/6_happy_hi_md_2_tab20_decend_smlg_bar.png",NA,NA
NA,"<div style=""width:500px;"">
                            <p style=""font-size:50px; font-weight:bold;""
                            >Happy</p>
                            <div style=""width:480px; margin: auto;"">
                                <img src=""images/6_happy_hi_md_3_Set2_ascend_smlg_bar.png"" width=""480"" height=""420"" style=""object-fit:contain;"">
                            </div>
                        </div>","38","html-slider-response",160,443486,"0.0-150.0","dwxp9psrh9",5,"","","","","","",0,"",NA,"","Happy","images/6_happy_hi_md_3_Set2_ascend_smlg_bar.png",NA,NA
NA,"<div style=""width:500px;"">
                            <p style=""font-size:50px; font-weight:bold;""
                            >Happy</p>
                            <div style=""width:480px; margin: auto;"">
                                <img src=""images/6_happy_hi_lo_2_Set1_decend_smlg_bar.png"" width=""480"" height=""420"" style=""object-fit:contain;"">
                            </div>
                        </div>","-50","html-slider-response",161,445318,"0.0-151.0","dwxp9psrh9",5,"","","","","","",0,"",NA,"","Happy","images/6_happy_hi_lo_2_Set1_decend_smlg_bar.png",NA,NA
NA,"<div style=""width:500px;"">
                            <p style=""font-size:50px; font-weight:bold;""
                            >Happy</p>
                            <div style=""width:480px; margin: auto;"">
                                <img src=""images/6_happy_hi_hi_1_Set1_decend_lgsm_bar.png"" width=""480"" height=""420"" style=""object-fit:contain;"">
                            </div>
                        </div>","113","html-slider-response",162,447750,"0.0-152.0","dwxp9psrh9",5,"","","","","","",0,"",NA,"","Happy","images/6_happy_hi_hi_1_Set1_decend_lgsm_bar.png",NA,NA
NA,"<div style=""width:500px;"">
                            <p style=""font-size:50px; font-weight:bold;""
                            >Happy</p>
                            <div style=""width:480px; margin: auto;"">
                                <img src=""images/6_happy_hi_hi_2_tab20_decend_smlg_bar.png"" width=""480"" height=""420"" style=""object-fit:contain;"">
                            </div>
                        </div>","135","html-slider-response",163,450182,"0.0-153.0","dwxp9psrh9",5,"","","","","","",0,"",NA,"","Happy","images/6_happy_hi_hi_2_tab20_decend_smlg_bar.png",NA,NA
NA,"<div style=""width:500px;"">
                            <p style=""font-size:50px; font-weight:bold;""
                            >Happy</p>
                            <div style=""width:480px; margin: auto;"">
                                <img src=""images/6_happy_lo_lo_1_tab20b_decend_smlg_bar.png"" width=""480"" height=""420"" style=""object-fit:contain;"">
                            </div>
                        </div>","-171","html-slider-response",164,452780,"0.0-154.0","dwxp9psrh9",5,"","","","","","",0,"",NA,"","Happy","images/6_happy_lo_lo_1_tab20b_decend_smlg_bar.png",NA,NA
NA,"<div style=""width:500px;"">
                            <p style=""font-size:50px; font-weight:bold;""
                            >Happy</p>
                            <div style=""width:480px; margin: auto;"">
                                <img src=""images/6_happy_hi_lo_2_Set1_ascend_lgsm_bar.png"" width=""480"" height=""420"" style=""object-fit:contain;"">
                            </div>
                        </div>","-94","html-slider-response",165,455161,"0.0-155.0","dwxp9psrh9",5,"","","","","","",0,"",NA,"","Happy","images/6_happy_hi_lo_2_Set1_ascend_lgsm_bar.png",NA,NA
NA,"<div style=""width:500px;"">
                            <p style=""font-size:50px; font-weight:bold;""
                            >Happy</p>
                            <div style=""width:480px; margin: auto;"">
                                <img src=""images/6_happy_hi_md_2_tab20_ascend_lgsm_bar.png"" width=""480"" height=""420"" style=""object-fit:contain;"">
                            </div>
                        </div>","-26","html-slider-response",166,458242,"0.0-156.0","dwxp9psrh9",5,"","","","","","",0,"",NA,"","Happy","images/6_happy_hi_md_2_tab20_ascend_lgsm_bar.png",NA,NA
NA,"<div style=""width:500px;"">
                            <p style=""font-size:50px; font-weight:bold;""
                            >Happy</p>
                            <div style=""width:480px; margin: auto;"">
                                <img src=""images/6_happy_lo_lo_3_tab20_ascend_smlg_bar.png"" width=""480"" height=""420"" style=""object-fit:contain;"">
                            </div>
                        </div>","-62","html-slider-response",167,460391,"0.0-157.0","dwxp9psrh9",5,"","","","","","",0,"",NA,"","Happy","images/6_happy_lo_lo_3_tab20_ascend_smlg_bar.png",NA,NA
NA,"<div style=""width:500px;"">
                            <p style=""font-size:50px; font-weight:bold;""
                            >Happy</p>
                            <div style=""width:480px; margin: auto;"">
                                <img src=""images/6_happy_hi_hi_2_tab20_decend_lgsm_bar.png"" width=""480"" height=""420"" style=""object-fit:contain;"">
                            </div>
                        </div>","17","html-slider-response",168,462506,"0.0-158.0","dwxp9psrh9",5,"","","","","","",0,"",NA,"","Happy","images/6_happy_hi_hi_2_tab20_decend_lgsm_bar.png",NA,NA
NA,"<div style=""width:500px;"">
                            <p style=""font-size:50px; font-weight:bold;""
                            >Happy</p>
                            <div style=""width:480px; margin: auto;"">
                                <img src=""images/6_happy_hi_hi_1_Set1_decend_smlg_bar.png"" width=""480"" height=""420"" style=""object-fit:contain;"">
                            </div>
                        </div>","139","html-slider-response",169,465004,"0.0-159.0","dwxp9psrh9",5,"","","","","","",0,"",NA,"","Happy","images/6_happy_hi_hi_1_Set1_decend_smlg_bar.png",NA,NA
1440,"<p>Great Job! You've finished block 2.<br></br> You have 3 block(s) left to go.<br></br></p>","0","html-button-response",170,466947,"0.0-160.0","dwxp9psrh9",5,"","","","","","",NA,"",NA,"","","",NA,NA
1144,"<p>In this block of trials, you will be asked to rate how much you associate each texture with the concept</p >
                        <p style = 'font-size:150%; font-weight: bold'>Disgust</p><br></br>","0","html-button-response",171,468091,"0.0-161.0","dwxp9psrh9",5,"","","","","","",NA,"",NA,"","","",NA,NA
