"rt","stimulus","response","trial_type","trial_index","time_elapsed","internal_node_id","subject_id","condition_num","success","timeout","failed_images","failed_audio","failed_video","question_order","slider_start","practiceTrial","practiceTrialNum","correct","concept","texture_id","ishihara_plate","correct_response"
8870,"Welcome to our experiment!<p>At the bottom of this screen, you will see a button that says ""Begin Experiment"".<br>Please only click that button when you are ready to complete the 30 minute experiment in one sitting.</p><p> Once you click that button, it will not be possible to restart the experiment.","0","html-button-response",0,8875,"0.0-0.0","jpmlqlql33",4,"","","","","","",NA,"",NA,"","","",NA,NA
NA,"","","preload",1,10172,"0.0-1.0","jpmlqlql33",4,"true","false","[]","[]","[]","",NA,"",NA,"","","",NA,NA
2797,"","","fullscreen",2,13972,"0.0-2.0","jpmlqlql33",4,"true","","","","","",NA,"",NA,"","","",NA,NA
11233,"","{""Consent"":[""<strong>I consent</strong>""]}","survey-multi-select",3,25208,"0.0-3.0","jpmlqlql33",4,"","","","","","[0]",NA,"",NA,"","","",NA,NA
1576,"Welcome! <p> This experiment involves two parts: demographic information, followed by the experimental task.<p> It will take about 30 minutes to complete both parts.","0","html-button-response",4,26786,"0.0-4.0","jpmlqlql33",4,"","","","","","",NA,"",NA,"","","",NA,NA
13396,"","{""Age"":""19"",""Gender"":""female"",""Race/ethnicity"":""white"",""Languages"":""english""}","survey-text",5,40190,"0.0-5.0","jpmlqlql33",4,"","","","","","",NA,"",NA,"","","",NA,NA
58964,"
                        <div>
                            <div style='text-align:left; font-size:18px; line-height:25px; width: 1300px;'>
                                During this experiment you will be asked to rate how much you associate charts with                                different concepts. Below, you can see some examples of the charts you will be asked to rate. Above the charts
                                is the list of concepts. You will be asked
                                to rate how much you associate each chart with each concept on a scale from 'not at all' to 'very much' like the
                                one below. <br>

                        <div style=""text-align: left; width: 1300px;"">
                            <p style=""font-size:18px; line-height:20px; text-align:center; font-weight:bold"">
                                Sad, Disgust, Fearful, Angry, Happy
                            </p>
                        </div>

                        <div style=""display: flex; justify-content: center; width: 100%;"">
                            <div style=""
                                display: grid;
                                grid-template-columns: repeat(5, 1fr);
                                gap: 8px;
                                padding: 10px;
                                width: 900px;  
                                margin: 0 auto;
                            "">
                                
                                    <div style=""width: 100%;"">
                                        <img src=""images/5_sad_lo_lo_1_Set1_decend_smlg_bar.png"" style=""width: 100%; height: auto; object-fit: contain;"">
                                    </div>
                                
                                    <div style=""width: 100%;"">
                                        <img src=""images/5_fearful_lo_lo_1_Pastel1_decend_smlg_bar.png"" style=""width: 100%; height: auto; object-fit: contain;"">
                                    </div>
                                
                                    <div style=""width: 100%;"">
                                        <img src=""images/5_sad_hi_hi_1_tab20_ascend_lgsm_bar.png"" style=""width: 100%; height: auto; object-fit: contain;"">
                                    </div>
                                
                                    <div style=""width: 100%;"">
                                        <img src=""images/5_happy_lo_lo_1_tab20b_ascend_smlg_bar.png"" style=""width: 100%; height: auto; object-fit: contain;"">
                                    </div>
                                
                                    <div style=""width: 100%;"">
                                        <img src=""images/5_happy_hi_hi_1_Set1_decend_lgsm_bar.png"" style=""width: 100%; height: auto; object-fit: contain;"">
                                    </div>
                                
                                    <div style=""width: 100%;"">
                                        <img src=""images/5_angry_lo_lo_1_tab20c_ascend_lgsm_bar.png"" style=""width: 100%; height: auto; object-fit: contain;"">
                                    </div>
                                
                                    <div style=""width: 100%;"">
                                        <img src=""images/5_disgust_hi_hi_1_tab20b_decend_lgsm_bar.png"" style=""width: 100%; height: auto; object-fit: contain;"">
                                    </div>
                                
                                    <div style=""width: 100%;"">
                                        <img src=""images/5_fearful_hi_hi_1_tab20b_ascend_smlg_bar.png"" style=""width: 100%; height: auto; object-fit: contain;"">
                                    </div>
                                
                                    <div style=""width: 100%;"">
                                        <img src=""images/5_disgust_lo_lo_1_tab20c_decend_lgsm_bar.png"" style=""width: 100%; height: auto; object-fit: contain;"">
                                    </div>
                                
                                    <div style=""width: 100%;"">
                                        <img src=""images/5_angry_hi_hi_1_tab20_decend_smlg_bar.png"" style=""width: 100%; height: auto; object-fit: contain;"">
                                    </div>
                                
                            </div>
                        </div>
                    </div>
                </div>
                    ","null","html-slider-response",6,99155,"0.0-6.0","jpmlqlql33",4,"","","","","","",0,"true",NA,"","","",NA,NA
5012,"<div style=""width:1300px;""><p style=""text-align:left"">To move the slider, click and drag your cursor to the location of the scale where you would like to make your rating and then let go. When you let go of the slider, your response will be recorded and the next trial will begin. <br>
                    We are interested in your initial impressions of each chart for a given concept, so please go with your first intuition. 
                    Before you begin the experiment, there will be four training trials for you to practice using the slider. 
                     When you are ready to start the training trials, please click ""Continue"".</p><br></div>","0","html-button-response",7,104170,"0.0-7.0","jpmlqlql33",4,"","","","","","",NA,"",NA,"","","",NA,NA
NA,"<div style=""width:500px;"">
                                    <p style=""font-size:25px;"">Please move the slider all the way to the <br> right endpoint of the scale</p>

                                    </div>
                                </div>","200","html-slider-response",8,106780,"0.0-8.0-0.0","jpmlqlql33",4,"","","","","","",0,"true",0,"true","","",NA,NA
986,"<p align='center'><b>Good job!</b> Click on 'Continue' to proceed.</p>","0","html-button-response",9,108269,"0.0-8.0-1.0","jpmlqlql33",4,"","","","","","",NA,"",NA,"","","",NA,NA
NA,"<div style=""width:500px;"">
                                    <p style=""font-size:25px;"">Please move the slider all the way to the <br> left endpoint of the scale</p>

                                    </div>
                                </div>","-200","html-slider-response",10,109630,"0.0-9.0-0.0","jpmlqlql33",4,"","","","","","",0,"true",1,"true","","",NA,NA
1034,"<p align='center'><b>Good job!</b> Click on 'Continue' to proceed.</p>","0","html-button-response",11,111167,"0.0-9.0-1.0","jpmlqlql33",4,"","","","","","",NA,"",NA,"","","",NA,NA
NA,"<div style=""width:500px;"">
                                    <p style=""font-size:25px;"">Please move the slider halfway between the center and right endpoint of the scale</p>

                                    </div>
                                </div>","0","html-slider-response",12,113565,"0.0-10.0-0.0","jpmlqlql33",4,"","","","","","",0,"true",2,"false","","",NA,NA
2884,"<p align='center'><b>Not quite!</b> The slider was not placed near the instructed located. Click on 'Continue' to try again. </p>","0","html-button-response",13,116953,"0.0-10.0-1.0","jpmlqlql33",4,"","","","","","",NA,"",NA,"","","",NA,NA
NA,"<div style=""width:500px;"">
                                    <p style=""font-size:25px;"">Please move the slider halfway between the center and right endpoint of the scale</p>

                                    </div>
                                </div>","103","html-slider-response",14,121048,"0.0-10.1-0.1","jpmlqlql33",4,"","","","","","",0,"true",2,"true","","",NA,NA
753,"<p align='center'><b>Good job!</b> Click on 'Continue' to proceed.</p>","0","html-button-response",15,122303,"0.0-10.1-1.1","jpmlqlql33",4,"","","","","","",NA,"",NA,"","","",NA,NA
NA,"<div style=""width:500px;"">
                                    <p style=""font-size:25px;"">Please move the slider halfway between the center and left endpoint of the scale</p>

                                    </div>
                                </div>","-105","html-slider-response",16,124663,"0.0-11.0-0.0","jpmlqlql33",4,"","","","","","",0,"true",3,"true","","",NA,NA
704,"<p align='center'><b>Good job!</b> Click on 'Continue' to proceed.</p>","0","html-button-response",17,125869,"0.0-11.0-1.0","jpmlqlql33",4,"","","","","","",NA,"",NA,"","","",NA,NA
1349,"<p>Great job! You've completed the practice trials. Now you will begin the main task.</p>","0","html-button-response",18,127219,"0.0-12.0","jpmlqlql33",4,"","","","","","",NA,"",NA,"","","",NA,NA
2515,"<p>In this block of trials, you will be asked to rate how much you associate each texture with the concept</p >
                        <p style = 'font-size:150%; font-weight: bold'>Sad</p><br></br>","0","html-button-response",19,129736,"0.0-13.0","jpmlqlql33",4,"","","","","","",NA,"",NA,"","","",NA,NA
NA,"<div style=""width:500px;"">
                            <p style=""font-size:50px; font-weight:bold;""
                            >Sad</p>
                            <div style=""width:480px; margin: auto;"">
                                <img src=""images/5_sad_hi_lo_3_Accent_ascend_lgsm_bar.png"" width=""480"" height=""420"" style=""object-fit:contain;"">
                            </div>
                        </div>","-140","html-slider-response",20,132997,"0.0-14.0","jpmlqlql33",4,"","","","","","",0,"",NA,"","Sad","images/5_sad_hi_lo_3_Accent_ascend_lgsm_bar.png",NA,NA
NA,"<div style=""width:500px;"">
                            <p style=""font-size:50px; font-weight:bold;""
                            >Sad</p>
                            <div style=""width:480px; margin: auto;"">
                                <img src=""images/5_sad_lo_lo_3_tab20_ascend_smlg_bar.png"" width=""480"" height=""420"" style=""object-fit:contain;"">
                            </div>
                        </div>","-167","html-slider-response",21,135665,"0.0-15.0","jpmlqlql33",4,"","","","","","",0,"",NA,"","Sad","images/5_sad_lo_lo_3_tab20_ascend_smlg_bar.png",NA,NA
NA,"<div style=""width:500px;"">
                            <p style=""font-size:50px; font-weight:bold;""
                            >Sad</p>
                            <div style=""width:480px; margin: auto;"">
                                <img src=""images/5_sad_hi_lo_2_Set1_decend_smlg_bar.png"" width=""480"" height=""420"" style=""object-fit:contain;"">
                            </div>
                        </div>","70","html-slider-response",22,139331,"0.0-16.0","jpmlqlql33",4,"","","","","","",0,"",NA,"","Sad","images/5_sad_hi_lo_2_Set1_decend_smlg_bar.png",NA,NA
NA,"<div style=""width:500px;"">
                            <p style=""font-size:50px; font-weight:bold;""
                            >Sad</p>
                            <div style=""width:480px; margin: auto;"">
                                <img src=""images/5_sad_hi_hi_3_Set3_decend_smlg_bar.png"" width=""480"" height=""420"" style=""object-fit:contain;"">
                            </div>
                        </div>","135","html-slider-response",23,141646,"0.0-17.0","jpmlqlql33",4,"","","","","","",0,"",NA,"","Sad","images/5_sad_hi_hi_3_Set3_decend_smlg_bar.png",NA,NA
NA,"<div style=""width:500px;"">
                            <p style=""font-size:50px; font-weight:bold;""
                            >Sad</p>
                            <div style=""width:480px; margin: auto;"">
                                <img src=""images/5_sad_med_med_3_tab20b_ascend_lgsm_bar.png"" width=""480"" height=""420"" style=""object-fit:contain;"">
                            </div>
                        </div>","-83","html-slider-response",24,143797,"0.0-18.0","jpmlqlql33",4,"","","","","","",0,"",NA,"","Sad","images/5_sad_med_med_3_tab20b_ascend_lgsm_bar.png",NA,NA
NA,"<div style=""width:500px;"">
                            <p style=""font-size:50px; font-weight:bold;""
                            >Sad</p>
                            <div style=""width:480px; margin: auto;"">
                                <img src=""images/5_sad_med_lo_3_tab20_decend_smlg_bar.png"" width=""480"" height=""420"" style=""object-fit:contain;"">
                            </div>
                        </div>","-200","html-slider-response",25,146178,"0.0-19.0","jpmlqlql33",4,"","","","","","",0,"",NA,"","Sad","images/5_sad_med_lo_3_tab20_decend_smlg_bar.png",NA,NA
NA,"<div style=""width:500px;"">
                            <p style=""font-size:50px; font-weight:bold;""
                            >Sad</p>
                            <div style=""width:480px; margin: auto;"">
                                <img src=""images/5_sad_hi_lo_3_Accent_ascend_smlg_bar.png"" width=""480"" height=""420"" style=""object-fit:contain;"">
                            </div>
                        </div>","105","html-slider-response",26,149364,"0.0-20.0","jpmlqlql33",4,"","","","","","",0,"",NA,"","Sad","images/5_sad_hi_lo_3_Accent_ascend_smlg_bar.png",NA,NA
NA,"<div style=""width:500px;"">
                            <p style=""font-size:50px; font-weight:bold;""
                            >Sad</p>
                            <div style=""width:480px; margin: auto;"">
                                <img src=""images/5_sad_hi_md_3_Accent_ascend_smlg_bar.png"" width=""480"" height=""420"" style=""object-fit:contain;"">
                            </div>
                        </div>","148","html-slider-response",27,151812,"0.0-21.0","jpmlqlql33",4,"","","","","","",0,"",NA,"","Sad","images/5_sad_hi_md_3_Accent_ascend_smlg_bar.png",NA,NA
NA,"<div style=""width:500px;"">
                            <p style=""font-size:50px; font-weight:bold;""
                            >Sad</p>
                            <div style=""width:480px; margin: auto;"">
                                <img src=""images/5_sad_hi_md_1_tab20_ascend_lgsm_bar.png"" width=""480"" height=""420"" style=""object-fit:contain;"">
                            </div>
                        </div>","160","html-slider-response",28,154196,"0.0-22.0","jpmlqlql33",4,"","","","","","",0,"",NA,"","Sad","images/5_sad_hi_md_1_tab20_ascend_lgsm_bar.png",NA,NA
NA,"<div style=""width:500px;"">
                            <p style=""font-size:50px; font-weight:bold;""
                            >Sad</p>
                            <div style=""width:480px; margin: auto;"">
                                <img src=""images/5_sad_hi_md_3_Accent_decend_lgsm_bar.png"" width=""480"" height=""420"" style=""object-fit:contain;"">
                            </div>
                        </div>","94","html-slider-response",29,156464,"0.0-23.0","jpmlqlql33",4,"","","","","","",0,"",NA,"","Sad","images/5_sad_hi_md_3_Accent_decend_lgsm_bar.png",NA,NA
NA,"<div style=""width:500px;"">
                            <p style=""font-size:50px; font-weight:bold;""
                            >Sad</p>
                            <div style=""width:480px; margin: auto;"">
                                <img src=""images/5_sad_lo_lo_3_tab20_decend_smlg_bar.png"" width=""480"" height=""420"" style=""object-fit:contain;"">
                            </div>
                        </div>","-197","html-slider-response",30,158295,"0.0-24.0","jpmlqlql33",4,"","","","","","",0,"",NA,"","Sad","images/5_sad_lo_lo_3_tab20_decend_smlg_bar.png",NA,NA
NA,"<div style=""width:500px;"">
                            <p style=""font-size:50px; font-weight:bold;""
                            >Sad</p>
                            <div style=""width:480px; margin: auto;"">
                                <img src=""images/5_sad_hi_lo_1_tab20c_decend_lgsm_bar.png"" width=""480"" height=""420"" style=""object-fit:contain;"">
                            </div>
                        </div>","42","html-slider-response",31,160880,"0.0-25.0","jpmlqlql33",4,"","","","","","",0,"",NA,"","Sad","images/5_sad_hi_lo_1_tab20c_decend_lgsm_bar.png",NA,NA
NA,"<div style=""width:500px;"">
                            <p style=""font-size:50px; font-weight:bold;""
                            >Sad</p>
                            <div style=""width:480px; margin: auto;"">
                                <img src=""images/5_sad_lo_lo_2_Paired_decend_smlg_bar.png"" width=""480"" height=""420"" style=""object-fit:contain;"">
                            </div>
                        </div>","-200","html-slider-response",32,163529,"0.0-26.0","jpmlqlql33",4,"","","","","","",0,"",NA,"","Sad","images/5_sad_lo_lo_2_Paired_decend_smlg_bar.png",NA,NA
NA,"<div style=""width:500px;"">
                            <p style=""font-size:50px; font-weight:bold;""
                            >Sad</p>
                            <div style=""width:480px; margin: auto;"">
                                <img src=""images/5_sad_hi_md_3_Accent_decend_smlg_bar.png"" width=""480"" height=""420"" style=""object-fit:contain;"">
                            </div>
                        </div>","35","html-slider-response",33,168028,"0.0-27.0","jpmlqlql33",4,"","","","","","",0,"",NA,"","Sad","images/5_sad_hi_md_3_Accent_decend_smlg_bar.png",NA,NA
NA,"<div style=""width:500px;"">
                            <p style=""font-size:50px; font-weight:bold;""
                            >Sad</p>
                            <div style=""width:480px; margin: auto;"">
                                <img src=""images/5_sad_lo_lo_2_Paired_ascend_lgsm_bar.png"" width=""480"" height=""420"" style=""object-fit:contain;"">
                            </div>
                        </div>","-200","html-slider-response",34,170262,"0.0-28.0","jpmlqlql33",4,"","","","","","",0,"",NA,"","Sad","images/5_sad_lo_lo_2_Paired_ascend_lgsm_bar.png",NA,NA
NA,"<div style=""width:500px;"">
                            <p style=""font-size:50px; font-weight:bold;""
                            >Sad</p>
                            <div style=""width:480px; margin: auto;"">
                                <img src=""images/5_sad_hi_md_1_tab20_decend_smlg_bar.png"" width=""480"" height=""420"" style=""object-fit:contain;"">
                            </div>
                        </div>","161","html-slider-response",35,172813,"0.0-29.0","jpmlqlql33",4,"","","","","","",0,"",NA,"","Sad","images/5_sad_hi_md_1_tab20_decend_smlg_bar.png",NA,NA
NA,"<div style=""width:500px;"">
                            <p style=""font-size:50px; font-weight:bold;""
                            >Sad</p>
                            <div style=""width:480px; margin: auto;"">
                                <img src=""images/5_sad_med_med_2_tab10new_ascend_lgsm_bar.png"" width=""480"" height=""420"" style=""object-fit:contain;"">
                            </div>
                        </div>","73","html-slider-response",36,175230,"0.0-30.0","jpmlqlql33",4,"","","","","","",0,"",NA,"","Sad","images/5_sad_med_med_2_tab10new_ascend_lgsm_bar.png",NA,NA
NA,"<div style=""width:500px;"">
                            <p style=""font-size:50px; font-weight:bold;""
                            >Sad</p>
                            <div style=""width:480px; margin: auto;"">
                                <img src=""images/5_sad_hi_hi_2_Paired_ascend_smlg_bar.png"" width=""480"" height=""420"" style=""object-fit:contain;"">
                            </div>
                        </div>","58","html-slider-response",37,177664,"0.0-31.0","jpmlqlql33",4,"","","","","","",0,"",NA,"","Sad","images/5_sad_hi_hi_2_Paired_ascend_smlg_bar.png",NA,NA
NA,"<div style=""width:500px;"">
                            <p style=""font-size:50px; font-weight:bold;""
                            >Sad</p>
                            <div style=""width:480px; margin: auto;"">
                                <img src=""images/5_sad_hi_hi_3_Set3_ascend_lgsm_bar.png"" width=""480"" height=""420"" style=""object-fit:contain;"">
                            </div>
                        </div>","63","html-slider-response",38,179863,"0.0-32.0","jpmlqlql33",4,"","","","","","",0,"",NA,"","Sad","images/5_sad_hi_hi_3_Set3_ascend_lgsm_bar.png",NA,NA
NA,"<div style=""width:500px;"">
                            <p style=""font-size:50px; font-weight:bold;""
                            >Sad</p>
                            <div style=""width:480px; margin: auto;"">
                                <img src=""images/5_sad_med_lo_2_Paired_ascend_smlg_bar.png"" width=""480"" height=""420"" style=""object-fit:contain;"">
                            </div>
                        </div>","-200","html-slider-response",39,182046,"0.0-33.0","jpmlqlql33",4,"","","","","","",0,"",NA,"","Sad","images/5_sad_med_lo_2_Paired_ascend_smlg_bar.png",NA,NA
NA,"<div style=""width:500px;"">
                            <p style=""font-size:50px; font-weight:bold;""
                            >Sad</p>
                            <div style=""width:480px; margin: auto;"">
                                <img src=""images/5_sad_med_lo_1_Set1_decend_smlg_bar.png"" width=""480"" height=""420"" style=""object-fit:contain;"">
                            </div>
                        </div>","-143","html-slider-response",40,185495,"0.0-34.0","jpmlqlql33",4,"","","","","","",0,"",NA,"","Sad","images/5_sad_med_lo_1_Set1_decend_smlg_bar.png",NA,NA
NA,"<div style=""width:500px;"">
                            <p style=""font-size:50px; font-weight:bold;""
                            >Sad</p>
                            <div style=""width:480px; margin: auto;"">
                                <img src=""images/5_sad_med_med_1_tab20_decend_lgsm_bar.png"" width=""480"" height=""420"" style=""object-fit:contain;"">
                            </div>
                        </div>","-200","html-slider-response",41,188145,"0.0-35.0","jpmlqlql33",4,"","","","","","",0,"",NA,"","Sad","images/5_sad_med_med_1_tab20_decend_lgsm_bar.png",NA,NA
NA,"<div style=""width:500px;"">
                            <p style=""font-size:50px; font-weight:bold;""
                            >Sad</p>
                            <div style=""width:480px; margin: auto;"">
                                <img src=""images/5_sad_lo_lo_1_Set1_decend_lgsm_bar.png"" width=""480"" height=""420"" style=""object-fit:contain;"">
                            </div>
                        </div>","-200","html-slider-response",42,189812,"0.0-36.0","jpmlqlql33",4,"","","","","","",0,"",NA,"","Sad","images/5_sad_lo_lo_1_Set1_decend_lgsm_bar.png",NA,NA
NA,"<div style=""width:500px;"">
                            <p style=""font-size:50px; font-weight:bold;""
                            >Sad</p>
                            <div style=""width:480px; margin: auto;"">
                                <img src=""images/5_sad_hi_lo_2_Set1_ascend_lgsm_bar.png"" width=""480"" height=""420"" style=""object-fit:contain;"">
                            </div>
                        </div>","-62","html-slider-response",43,192945,"0.0-37.0","jpmlqlql33",4,"","","","","","",0,"",NA,"","Sad","images/5_sad_hi_lo_2_Set1_ascend_lgsm_bar.png",NA,NA
NA,"<div style=""width:500px;"">
                            <p style=""font-size:50px; font-weight:bold;""
                            >Sad</p>
                            <div style=""width:480px; margin: auto;"">
                                <img src=""images/5_sad_lo_lo_2_Paired_ascend_smlg_bar.png"" width=""480"" height=""420"" style=""object-fit:contain;"">
                            </div>
                        </div>","-200","html-slider-response",44,194946,"0.0-38.0","jpmlqlql33",4,"","","","","","",0,"",NA,"","Sad","images/5_sad_lo_lo_2_Paired_ascend_smlg_bar.png",NA,NA
NA,"<div style=""width:500px;"">
                            <p style=""font-size:50px; font-weight:bold;""
                            >Sad</p>
                            <div style=""width:480px; margin: auto;"">
                                <img src=""images/5_sad_hi_lo_3_Accent_decend_lgsm_bar.png"" width=""480"" height=""420"" style=""object-fit:contain;"">
                            </div>
                        </div>","24","html-slider-response",45,198130,"0.0-39.0","jpmlqlql33",4,"","","","","","",0,"",NA,"","Sad","images/5_sad_hi_lo_3_Accent_decend_lgsm_bar.png",NA,NA
NA,"<div style=""width:500px;"">
                            <p style=""font-size:50px; font-weight:bold;""
                            >Sad</p>
                            <div style=""width:480px; margin: auto;"">
                                <img src=""images/5_sad_hi_lo_1_tab20c_ascend_lgsm_bar.png"" width=""480"" height=""420"" style=""object-fit:contain;"">
                            </div>
                        </div>","-105","html-slider-response",46,200528,"0.0-40.0","jpmlqlql33",4,"","","","","","",0,"",NA,"","Sad","images/5_sad_hi_lo_1_tab20c_ascend_lgsm_bar.png",NA,NA
NA,"<div style=""width:500px;"">
                            <p style=""font-size:50px; font-weight:bold;""
                            >Sad</p>
                            <div style=""width:480px; margin: auto;"">
                                <img src=""images/5_sad_hi_hi_1_tab20_ascend_lgsm_bar.png"" width=""480"" height=""420"" style=""object-fit:contain;"">
                            </div>
                        </div>","200","html-slider-response",47,202411,"0.0-41.0","jpmlqlql33",4,"","","","","","",0,"",NA,"","Sad","images/5_sad_hi_hi_1_tab20_ascend_lgsm_bar.png",NA,NA
NA,"<div style=""width:500px;"">
                            <p style=""font-size:50px; font-weight:bold;""
                            >Sad</p>
                            <div style=""width:480px; margin: auto;"">
                                <img src=""images/5_sad_hi_md_2_Set1_ascend_smlg_bar.png"" width=""480"" height=""420"" style=""object-fit:contain;"">
                            </div>
                        </div>","60","html-slider-response",48,204678,"0.0-42.0","jpmlqlql33",4,"","","","","","",0,"",NA,"","Sad","images/5_sad_hi_md_2_Set1_ascend_smlg_bar.png",NA,NA
NA,"<div style=""width:500px;"">
                            <p style=""font-size:50px; font-weight:bold;""
                            >Sad</p>
                            <div style=""width:480px; margin: auto;"">
                                <img src=""images/5_sad_hi_hi_1_tab20_decend_lgsm_bar.png"" width=""480"" height=""420"" style=""object-fit:contain;"">
                            </div>
                        </div>","200","html-slider-response",49,209460,"0.0-43.0","jpmlqlql33",4,"","","","","","",0,"",NA,"","Sad","images/5_sad_hi_hi_1_tab20_decend_lgsm_bar.png",NA,NA
NA,"<div style=""width:500px;"">
                            <p style=""font-size:50px; font-weight:bold;""
                            >Sad</p>
                            <div style=""width:480px; margin: auto;"">
                                <img src=""images/5_sad_hi_md_1_tab20_ascend_smlg_bar.png"" width=""480"" height=""420"" style=""object-fit:contain;"">
                            </div>
                        </div>","-89","html-slider-response",50,211962,"0.0-44.0","jpmlqlql33",4,"","","","","","",0,"",NA,"","Sad","images/5_sad_hi_md_1_tab20_ascend_smlg_bar.png",NA,NA
NA,"<div style=""width:500px;"">
                            <p style=""font-size:50px; font-weight:bold;""
                            >Sad</p>
                            <div style=""width:480px; margin: auto;"">
                                <img src=""images/5_sad_med_lo_3_tab20_ascend_lgsm_bar.png"" width=""480"" height=""420"" style=""object-fit:contain;"">
                            </div>
                        </div>","-124","html-slider-response",51,215245,"0.0-45.0","jpmlqlql33",4,"","","","","","",0,"",NA,"","Sad","images/5_sad_med_lo_3_tab20_ascend_lgsm_bar.png",NA,NA
NA,"<div style=""width:500px;"">
                            <p style=""font-size:50px; font-weight:bold;""
                            >Sad</p>
                            <div style=""width:480px; margin: auto;"">
                                <img src=""images/5_sad_hi_hi_2_Paired_decend_smlg_bar.png"" width=""480"" height=""420"" style=""object-fit:contain;"">
                            </div>
                        </div>","-58","html-slider-response",52,218144,"0.0-46.0","jpmlqlql33",4,"","","","","","",0,"",NA,"","Sad","images/5_sad_hi_hi_2_Paired_decend_smlg_bar.png",NA,NA
NA,"<div style=""width:500px;"">
                            <p style=""font-size:50px; font-weight:bold;""
                            >Sad</p>
                            <div style=""width:480px; margin: auto;"">
                                <img src=""images/5_sad_lo_lo_1_Set1_ascend_smlg_bar.png"" width=""480"" height=""420"" style=""object-fit:contain;"">
                            </div>
                        </div>","-191","html-slider-response",53,219978,"0.0-47.0","jpmlqlql33",4,"","","","","","",0,"",NA,"","Sad","images/5_sad_lo_lo_1_Set1_ascend_smlg_bar.png",NA,NA
NA,"<div style=""width:500px;"">
                            <p style=""font-size:50px; font-weight:bold;""
                            >Sad</p>
                            <div style=""width:480px; margin: auto;"">
                                <img src=""images/5_sad_med_med_1_tab20_decend_smlg_bar.png"" width=""480"" height=""420"" style=""object-fit:contain;"">
                            </div>
                        </div>","18","html-slider-response",54,224946,"0.0-48.0","jpmlqlql33",4,"","","","","","",0,"",NA,"","Sad","images/5_sad_med_med_1_tab20_decend_smlg_bar.png",NA,NA
NA,"<div style=""width:500px;"">
                            <p style=""font-size:50px; font-weight:bold;""
                            >Sad</p>
                            <div style=""width:480px; margin: auto;"">
                                <img src=""images/5_sad_lo_lo_3_tab20_ascend_lgsm_bar.png"" width=""480"" height=""420"" style=""object-fit:contain;"">
                            </div>
                        </div>","-200","html-slider-response",55,227544,"0.0-49.0","jpmlqlql33",4,"","","","","","",0,"",NA,"","Sad","images/5_sad_lo_lo_3_tab20_ascend_lgsm_bar.png",NA,NA
NA,"<div style=""width:500px;"">
                            <p style=""font-size:50px; font-weight:bold;""
                            >Sad</p>
                            <div style=""width:480px; margin: auto;"">
                                <img src=""images/5_sad_med_lo_1_Set1_ascend_smlg_bar.png"" width=""480"" height=""420"" style=""object-fit:contain;"">
                            </div>
                        </div>","-67","html-slider-response",56,230127,"0.0-50.0","jpmlqlql33",4,"","","","","","",0,"",NA,"","Sad","images/5_sad_med_lo_1_Set1_ascend_smlg_bar.png",NA,NA
NA,"<div style=""width:500px;"">
                            <p style=""font-size:50px; font-weight:bold;""
                            >Sad</p>
                            <div style=""width:480px; margin: auto;"">
                                <img src=""images/5_sad_med_lo_1_Set1_decend_lgsm_bar.png"" width=""480"" height=""420"" style=""object-fit:contain;"">
                            </div>
                        </div>","-87","html-slider-response",57,233612,"0.0-51.0","jpmlqlql33",4,"","","","","","",0,"",NA,"","Sad","images/5_sad_med_lo_1_Set1_decend_lgsm_bar.png",NA,NA
NA,"<div style=""width:500px;"">
                            <p style=""font-size:50px; font-weight:bold;""
                            >Sad</p>
                            <div style=""width:480px; margin: auto;"">
                                <img src=""images/5_sad_hi_lo_1_tab20c_decend_smlg_bar.png"" width=""480"" height=""420"" style=""object-fit:contain;"">
                            </div>
                        </div>","8","html-slider-response",58,235395,"0.0-52.0","jpmlqlql33",4,"","","","","","",0,"",NA,"","Sad","images/5_sad_hi_lo_1_tab20c_decend_smlg_bar.png",NA,NA
NA,"<div style=""width:500px;"">
                            <p style=""font-size:50px; font-weight:bold;""
                            >Sad</p>
                            <div style=""width:480px; margin: auto;"">
                                <img src=""images/5_sad_med_med_2_tab10new_ascend_smlg_bar.png"" width=""480"" height=""420"" style=""object-fit:contain;"">
                            </div>
                        </div>","-103","html-slider-response",59,238993,"0.0-53.0","jpmlqlql33",4,"","","","","","",0,"",NA,"","Sad","images/5_sad_med_med_2_tab10new_ascend_smlg_bar.png",NA,NA
NA,"<div style=""width:500px;"">
                            <p style=""font-size:50px; font-weight:bold;""
                            >Sad</p>
                            <div style=""width:480px; margin: auto;"">
                                <img src=""images/5_sad_med_lo_2_Paired_decend_smlg_bar.png"" width=""480"" height=""420"" style=""object-fit:contain;"">
                            </div>
                        </div>","-180","html-slider-response",60,241678,"0.0-54.0","jpmlqlql33",4,"","","","","","",0,"",NA,"","Sad","images/5_sad_med_lo_2_Paired_decend_smlg_bar.png",NA,NA
NA,"<div style=""width:500px;"">
                            <p style=""font-size:50px; font-weight:bold;""
                            >Sad</p>
                            <div style=""width:480px; margin: auto;"">
                                <img src=""images/5_sad_hi_md_2_Set1_decend_smlg_bar.png"" width=""480"" height=""420"" style=""object-fit:contain;"">
                            </div>
                        </div>","-15","html-slider-response",61,244212,"0.0-55.0","jpmlqlql33",4,"","","","","","",0,"",NA,"","Sad","images/5_sad_hi_md_2_Set1_decend_smlg_bar.png",NA,NA
NA,"<div style=""width:500px;"">
                            <p style=""font-size:50px; font-weight:bold;""
                            >Sad</p>
                            <div style=""width:480px; margin: auto;"">
                                <img src=""images/5_sad_med_med_2_tab10new_decend_smlg_bar.png"" width=""480"" height=""420"" style=""object-fit:contain;"">
                            </div>
                        </div>","23","html-slider-response",62,246910,"0.0-56.0","jpmlqlql33",4,"","","","","","",0,"",NA,"","Sad","images/5_sad_med_med_2_tab10new_decend_smlg_bar.png",NA,NA
NA,"<div style=""width:500px;"">
                            <p style=""font-size:50px; font-weight:bold;""
                            >Sad</p>
                            <div style=""width:480px; margin: auto;"">
                                <img src=""images/5_sad_med_med_1_tab20_ascend_smlg_bar.png"" width=""480"" height=""420"" style=""object-fit:contain;"">
                            </div>
                        </div>","-82","html-slider-response",63,249093,"0.0-57.0","jpmlqlql33",4,"","","","","","",0,"",NA,"","Sad","images/5_sad_med_med_1_tab20_ascend_smlg_bar.png",NA,NA
NA,"<div style=""width:500px;"">
                            <p style=""font-size:50px; font-weight:bold;""
                            >Sad</p>
                            <div style=""width:480px; margin: auto;"">
                                <img src=""images/5_sad_med_lo_3_tab20_ascend_smlg_bar.png"" width=""480"" height=""420"" style=""object-fit:contain;"">
                            </div>
                        </div>","-75","html-slider-response",64,250845,"0.0-58.0","jpmlqlql33",4,"","","","","","",0,"",NA,"","Sad","images/5_sad_med_lo_3_tab20_ascend_smlg_bar.png",NA,NA
NA,"<div style=""width:500px;"">
                            <p style=""font-size:50px; font-weight:bold;""
                            >Sad</p>
                            <div style=""width:480px; margin: auto;"">
                                <img src=""images/5_sad_hi_md_1_tab20_decend_lgsm_bar.png"" width=""480"" height=""420"" style=""object-fit:contain;"">
                            </div>
                        </div>","96","html-slider-response",65,255261,"0.0-59.0","jpmlqlql33",4,"","","","","","",0,"",NA,"","Sad","images/5_sad_hi_md_1_tab20_decend_lgsm_bar.png",NA,NA
NA,"<div style=""width:500px;"">
                            <p style=""font-size:50px; font-weight:bold;""
                            >Sad</p>
                            <div style=""width:480px; margin: auto;"">
                                <img src=""images/5_sad_med_med_2_tab10new_decend_lgsm_bar.png"" width=""480"" height=""420"" style=""object-fit:contain;"">
                            </div>
                        </div>","-47","html-slider-response",66,257961,"0.0-60.0","jpmlqlql33",4,"","","","","","",0,"",NA,"","Sad","images/5_sad_med_med_2_tab10new_decend_lgsm_bar.png",NA,NA
NA,"<div style=""width:500px;"">
                            <p style=""font-size:50px; font-weight:bold;""
                            >Sad</p>
                            <div style=""width:480px; margin: auto;"">
                                <img src=""images/5_sad_hi_hi_3_Set3_decend_lgsm_bar.png"" width=""480"" height=""420"" style=""object-fit:contain;"">
                            </div>
                        </div>","114","html-slider-response",67,260795,"0.0-61.0","jpmlqlql33",4,"","","","","","",0,"",NA,"","Sad","images/5_sad_hi_hi_3_Set3_decend_lgsm_bar.png",NA,NA
NA,"<div style=""width:500px;"">
                            <p style=""font-size:50px; font-weight:bold;""
                            >Sad</p>
                            <div style=""width:480px; margin: auto;"">
                                <img src=""images/5_sad_med_lo_2_Paired_decend_lgsm_bar.png"" width=""480"" height=""420"" style=""object-fit:contain;"">
                            </div>
                        </div>","-118","html-slider-response",68,262776,"0.0-62.0","jpmlqlql33",4,"","","","","","",0,"",NA,"","Sad","images/5_sad_med_lo_2_Paired_decend_lgsm_bar.png",NA,NA
NA,"<div style=""width:500px;"">
                            <p style=""font-size:50px; font-weight:bold;""
                            >Sad</p>
                            <div style=""width:480px; margin: auto;"">
                                <img src=""images/5_sad_med_med_3_tab20b_decend_lgsm_bar.png"" width=""480"" height=""420"" style=""object-fit:contain;"">
                            </div>
                        </div>","26","html-slider-response",69,265643,"0.0-63.0","jpmlqlql33",4,"","","","","","",0,"",NA,"","Sad","images/5_sad_med_med_3_tab20b_decend_lgsm_bar.png",NA,NA
NA,"<div style=""width:500px;"">
                            <p style=""font-size:50px; font-weight:bold;""
                            >Sad</p>
                            <div style=""width:480px; margin: auto;"">
                                <img src=""images/5_sad_lo_lo_1_Set1_ascend_lgsm_bar.png"" width=""480"" height=""420"" style=""object-fit:contain;"">
                            </div>
                        </div>","-195","html-slider-response",70,268061,"0.0-64.0","jpmlqlql33",4,"","","","","","",0,"",NA,"","Sad","images/5_sad_lo_lo_1_Set1_ascend_lgsm_bar.png",NA,NA
NA,"<div style=""width:500px;"">
                            <p style=""font-size:50px; font-weight:bold;""
                            >Sad</p>
                            <div style=""width:480px; margin: auto;"">
                                <img src=""images/5_sad_hi_hi_1_tab20_decend_smlg_bar.png"" width=""480"" height=""420"" style=""object-fit:contain;"">
                            </div>
                        </div>","200","html-slider-response",71,271144,"0.0-65.0","jpmlqlql33",4,"","","","","","",0,"",NA,"","Sad","images/5_sad_hi_hi_1_tab20_decend_smlg_bar.png",NA,NA
NA,"<div style=""width:500px;"">
                            <p style=""font-size:50px; font-weight:bold;""
                            >Sad</p>
                            <div style=""width:480px; margin: auto;"">
                                <img src=""images/5_sad_hi_md_3_Accent_ascend_lgsm_bar.png"" width=""480"" height=""420"" style=""object-fit:contain;"">
                            </div>
                        </div>","-30","html-slider-response",72,273745,"0.0-66.0","jpmlqlql33",4,"","","","","","",0,"",NA,"","Sad","images/5_sad_hi_md_3_Accent_ascend_lgsm_bar.png",NA,NA
NA,"<div style=""width:500px;"">
                            <p style=""font-size:50px; font-weight:bold;""
                            >Sad</p>
                            <div style=""width:480px; margin: auto;"">
                                <img src=""images/5_sad_hi_md_2_Set1_decend_lgsm_bar.png"" width=""480"" height=""420"" style=""object-fit:contain;"">
                            </div>
                        </div>","54","html-slider-response",73,277277,"0.0-67.0","jpmlqlql33",4,"","","","","","",0,"",NA,"","Sad","images/5_sad_hi_md_2_Set1_decend_lgsm_bar.png",NA,NA
NA,"<div style=""width:500px;"">
                            <p style=""font-size:50px; font-weight:bold;""
                            >Sad</p>
                            <div style=""width:480px; margin: auto;"">
                                <img src=""images/5_sad_med_med_3_tab20b_decend_smlg_bar.png"" width=""480"" height=""420"" style=""object-fit:contain;"">
                            </div>
                        </div>","-110","html-slider-response",74,279894,"0.0-68.0","jpmlqlql33",4,"","","","","","",0,"",NA,"","Sad","images/5_sad_med_med_3_tab20b_decend_smlg_bar.png",NA,NA
NA,"<div style=""width:500px;"">
                            <p style=""font-size:50px; font-weight:bold;""
                            >Sad</p>
                            <div style=""width:480px; margin: auto;"">
                                <img src=""images/5_sad_med_lo_2_Paired_ascend_lgsm_bar.png"" width=""480"" height=""420"" style=""object-fit:contain;"">
                            </div>
                        </div>","-163","html-slider-response",75,282727,"0.0-69.0","jpmlqlql33",4,"","","","","","",0,"",NA,"","Sad","images/5_sad_med_lo_2_Paired_ascend_lgsm_bar.png",NA,NA
NA,"<div style=""width:500px;"">
                            <p style=""font-size:50px; font-weight:bold;""
                            >Sad</p>
                            <div style=""width:480px; margin: auto;"">
                                <img src=""images/5_sad_med_lo_3_tab20_decend_lgsm_bar.png"" width=""480"" height=""420"" style=""object-fit:contain;"">
                            </div>
                        </div>","-168","html-slider-response",76,285361,"0.0-70.0","jpmlqlql33",4,"","","","","","",0,"",NA,"","Sad","images/5_sad_med_lo_3_tab20_decend_lgsm_bar.png",NA,NA
NA,"<div style=""width:500px;"">
                            <p style=""font-size:50px; font-weight:bold;""
                            >Sad</p>
                            <div style=""width:480px; margin: auto;"">
                                <img src=""images/5_sad_hi_md_2_Set1_ascend_lgsm_bar.png"" width=""480"" height=""420"" style=""object-fit:contain;"">
                            </div>
                        </div>","-140","html-slider-response",77,287528,"0.0-71.0","jpmlqlql33",4,"","","","","","",0,"",NA,"","Sad","images/5_sad_hi_md_2_Set1_ascend_lgsm_bar.png",NA,NA
NA,"<div style=""width:500px;"">
                            <p style=""font-size:50px; font-weight:bold;""
                            >Sad</p>
                            <div style=""width:480px; margin: auto;"">
                                <img src=""images/5_sad_hi_hi_2_Paired_decend_lgsm_bar.png"" width=""480"" height=""420"" style=""object-fit:contain;"">
                            </div>
                        </div>","80","html-slider-response",78,289844,"0.0-72.0","jpmlqlql33",4,"","","","","","",0,"",NA,"","Sad","images/5_sad_hi_hi_2_Paired_decend_lgsm_bar.png",NA,NA
NA,"<div style=""width:500px;"">
                            <p style=""font-size:50px; font-weight:bold;""
                            >Sad</p>
                            <div style=""width:480px; margin: auto;"">
                                <img src=""images/5_sad_hi_hi_1_tab20_ascend_smlg_bar.png"" width=""480"" height=""420"" style=""object-fit:contain;"">
                            </div>
                        </div>","200","html-slider-response",79,292659,"0.0-73.0","jpmlqlql33",4,"","","","","","",0,"",NA,"","Sad","images/5_sad_hi_hi_1_tab20_ascend_smlg_bar.png",NA,NA
NA,"<div style=""width:500px;"">
                            <p style=""font-size:50px; font-weight:bold;""
                            >Sad</p>
                            <div style=""width:480px; margin: auto;"">
                                <img src=""images/5_sad_lo_lo_3_tab20_decend_lgsm_bar.png"" width=""480"" height=""420"" style=""object-fit:contain;"">
                            </div>
                        </div>","-189","html-slider-response",80,295910,"0.0-74.0","jpmlqlql33",4,"","","","","","",0,"",NA,"","Sad","images/5_sad_lo_lo_3_tab20_decend_lgsm_bar.png",NA,NA
NA,"<div style=""width:500px;"">
                            <p style=""font-size:50px; font-weight:bold;""
                            >Sad</p>
                            <div style=""width:480px; margin: auto;"">
                                <img src=""images/5_sad_hi_hi_2_Paired_ascend_lgsm_bar.png"" width=""480"" height=""420"" style=""object-fit:contain;"">
                            </div>
                        </div>","89","html-slider-response",81,298745,"0.0-75.0","jpmlqlql33",4,"","","","","","",0,"",NA,"","Sad","images/5_sad_hi_hi_2_Paired_ascend_lgsm_bar.png",NA,NA
NA,"<div style=""width:500px;"">
                            <p style=""font-size:50px; font-weight:bold;""
                            >Sad</p>
                            <div style=""width:480px; margin: auto;"">
                                <img src=""images/5_sad_lo_lo_1_Set1_decend_smlg_bar.png"" width=""480"" height=""420"" style=""object-fit:contain;"">
                            </div>
                        </div>","-196","html-slider-response",82,300826,"0.0-76.0","jpmlqlql33",4,"","","","","","",0,"",NA,"","Sad","images/5_sad_lo_lo_1_Set1_decend_smlg_bar.png",NA,NA
NA,"<div style=""width:500px;"">
                            <p style=""font-size:50px; font-weight:bold;""
                            >Sad</p>
                            <div style=""width:480px; margin: auto;"">
                                <img src=""images/5_sad_hi_lo_2_Set1_ascend_smlg_bar.png"" width=""480"" height=""420"" style=""object-fit:contain;"">
                            </div>
                        </div>","14","html-slider-response",83,303094,"0.0-77.0","jpmlqlql33",4,"","","","","","",0,"",NA,"","Sad","images/5_sad_hi_lo_2_Set1_ascend_smlg_bar.png",NA,NA
NA,"<div style=""width:500px;"">
                            <p style=""font-size:50px; font-weight:bold;""
                            >Sad</p>
                            <div style=""width:480px; margin: auto;"">
                                <img src=""images/5_sad_lo_lo_2_Paired_decend_lgsm_bar.png"" width=""480"" height=""420"" style=""object-fit:contain;"">
                            </div>
                        </div>","-200","html-slider-response",84,305342,"0.0-78.0","jpmlqlql33",4,"","","","","","",0,"",NA,"","Sad","images/5_sad_lo_lo_2_Paired_decend_lgsm_bar.png",NA,NA
NA,"<div style=""width:500px;"">
                            <p style=""font-size:50px; font-weight:bold;""
                            >Sad</p>
                            <div style=""width:480px; margin: auto;"">
                                <img src=""images/5_sad_med_lo_1_Set1_ascend_lgsm_bar.png"" width=""480"" height=""420"" style=""object-fit:contain;"">
                            </div>
                        </div>","-200","html-slider-response",85,307678,"0.0-79.0","jpmlqlql33",4,"","","","","","",0,"",NA,"","Sad","images/5_sad_med_lo_1_Set1_ascend_lgsm_bar.png",NA,NA
NA,"<div style=""width:500px;"">
                            <p style=""font-size:50px; font-weight:bold;""
                            >Sad</p>
                            <div style=""width:480px; margin: auto;"">
                                <img src=""images/5_sad_med_med_3_tab20b_ascend_smlg_bar.png"" width=""480"" height=""420"" style=""object-fit:contain;"">
                            </div>
                        </div>","-199","html-slider-response",86,310210,"0.0-80.0","jpmlqlql33",4,"","","","","","",0,"",NA,"","Sad","images/5_sad_med_med_3_tab20b_ascend_smlg_bar.png",NA,NA
NA,"<div style=""width:500px;"">
                            <p style=""font-size:50px; font-weight:bold;""
                            >Sad</p>
                            <div style=""width:480px; margin: auto;"">
                                <img src=""images/5_sad_hi_lo_3_Accent_decend_smlg_bar.png"" width=""480"" height=""420"" style=""object-fit:contain;"">
                            </div>
                        </div>","39","html-slider-response",87,314194,"0.0-81.0","jpmlqlql33",4,"","","","","","",0,"",NA,"","Sad","images/5_sad_hi_lo_3_Accent_decend_smlg_bar.png",NA,NA
NA,"<div style=""width:500px;"">
                            <p style=""font-size:50px; font-weight:bold;""
                            >Sad</p>
                            <div style=""width:480px; margin: auto;"">
                                <img src=""images/5_sad_hi_lo_2_Set1_decend_lgsm_bar.png"" width=""480"" height=""420"" style=""object-fit:contain;"">
                            </div>
                        </div>","63","html-slider-response",88,316226,"0.0-82.0","jpmlqlql33",4,"","","","","","",0,"",NA,"","Sad","images/5_sad_hi_lo_2_Set1_decend_lgsm_bar.png",NA,NA
NA,"<div style=""width:500px;"">
                            <p style=""font-size:50px; font-weight:bold;""
                            >Sad</p>
                            <div style=""width:480px; margin: auto;"">
                                <img src=""images/5_sad_med_med_1_tab20_ascend_lgsm_bar.png"" width=""480"" height=""420"" style=""object-fit:contain;"">
                            </div>
                        </div>","-46","html-slider-response",89,318378,"0.0-83.0","jpmlqlql33",4,"","","","","","",0,"",NA,"","Sad","images/5_sad_med_med_1_tab20_ascend_lgsm_bar.png",NA,NA
NA,"<div style=""width:500px;"">
                            <p style=""font-size:50px; font-weight:bold;""
                            >Sad</p>
                            <div style=""width:480px; margin: auto;"">
                                <img src=""images/5_sad_hi_lo_1_tab20c_ascend_smlg_bar.png"" width=""480"" height=""420"" style=""object-fit:contain;"">
                            </div>
                        </div>","41","html-slider-response",90,320794,"0.0-84.0","jpmlqlql33",4,"","","","","","",0,"",NA,"","Sad","images/5_sad_hi_lo_1_tab20c_ascend_smlg_bar.png",NA,NA
NA,"<div style=""width:500px;"">
                            <p style=""font-size:50px; font-weight:bold;""
                            >Sad</p>
                            <div style=""width:480px; margin: auto;"">
                                <img src=""images/5_sad_hi_hi_3_Set3_ascend_smlg_bar.png"" width=""480"" height=""420"" style=""object-fit:contain;"">
                            </div>
                        </div>","37","html-slider-response",91,324009,"0.0-85.0","jpmlqlql33",4,"","","","","","",0,"",NA,"","Sad","images/5_sad_hi_hi_3_Set3_ascend_smlg_bar.png",NA,NA
1787,"<p>Great Job! You've finished block 1.<br></br> You have 4 block(s) left to go.<br></br></p>","0","html-button-response",92,326299,"0.0-86.0","jpmlqlql33",4,"","","","","","",NA,"",NA,"","","",NA,NA
931,"<p>In this block of trials, you will be asked to rate how much you associate each texture with the concept</p >
                        <p style = 'font-size:150%; font-weight: bold'>Disgust</p><br></br>","0","html-button-response",93,327231,"0.0-87.0","jpmlqlql33",4,"","","","","","",NA,"",NA,"","","",NA,NA
NA,"<div style=""width:500px;"">
                            <p style=""font-size:50px; font-weight:bold;""
                            >Disgust</p>
                            <div style=""width:480px; margin: auto;"">
                                <img src=""images/5_disgust_hi_lo_3_Paired_ascend_smlg_bar.png"" width=""480"" height=""420"" style=""object-fit:contain;"">
                            </div>
                        </div>","78","html-slider-response",94,329060,"0.0-88.0","jpmlqlql33",4,"","","","","","",0,"",NA,"","Disgust","images/5_disgust_hi_lo_3_Paired_ascend_smlg_bar.png",NA,NA
NA,"<div style=""width:500px;"">
                            <p style=""font-size:50px; font-weight:bold;""
                            >Disgust</p>
                            <div style=""width:480px; margin: auto;"">
                                <img src=""images/5_disgust_lo_lo_2_Pastel1_decend_smlg_bar.png"" width=""480"" height=""420"" style=""object-fit:contain;"">
                            </div>
                        </div>","-162","html-slider-response",95,331376,"0.0-89.0","jpmlqlql33",4,"","","","","","",0,"",NA,"","Disgust","images/5_disgust_lo_lo_2_Pastel1_decend_smlg_bar.png",NA,NA
NA,"<div style=""width:500px;"">
                            <p style=""font-size:50px; font-weight:bold;""
                            >Disgust</p>
                            <div style=""width:480px; margin: auto;"">
                                <img src=""images/5_disgust_lo_lo_3_tab20_decend_lgsm_bar.png"" width=""480"" height=""420"" style=""object-fit:contain;"">
                            </div>
                        </div>","-149","html-slider-response",96,333044,"0.0-90.0","jpmlqlql33",4,"","","","","","",0,"",NA,"","Disgust","images/5_disgust_lo_lo_3_tab20_decend_lgsm_bar.png",NA,NA
NA,"<div style=""width:500px;"">
                            <p style=""font-size:50px; font-weight:bold;""
                            >Disgust</p>
                            <div style=""width:480px; margin: auto;"">
                                <img src=""images/5_disgust_hi_md_2_Dark2_decend_smlg_bar.png"" width=""480"" height=""420"" style=""object-fit:contain;"">
                            </div>
                        </div>","102","html-slider-response",97,336010,"0.0-91.0","jpmlqlql33",4,"","","","","","",0,"",NA,"","Disgust","images/5_disgust_hi_md_2_Dark2_decend_smlg_bar.png",NA,NA
NA,"<div style=""width:500px;"">
                            <p style=""font-size:50px; font-weight:bold;""
                            >Disgust</p>
                            <div style=""width:480px; margin: auto;"">
                                <img src=""images/5_disgust_med_med_2_tab20_decend_lgsm_bar.png"" width=""480"" height=""420"" style=""object-fit:contain;"">
                            </div>
                        </div>","-22","html-slider-response",98,343242,"0.0-92.0","jpmlqlql33",4,"","","","","","",0,"",NA,"","Disgust","images/5_disgust_med_med_2_tab20_decend_lgsm_bar.png",NA,NA
NA,"<div style=""width:500px;"">
                            <p style=""font-size:50px; font-weight:bold;""
                            >Disgust</p>
                            <div style=""width:480px; margin: auto;"">
                                <img src=""images/5_disgust_hi_md_2_Dark2_ascend_lgsm_bar.png"" width=""480"" height=""420"" style=""object-fit:contain;"">
                            </div>
                        </div>","59","html-slider-response",99,345058,"0.0-93.0","jpmlqlql33",4,"","","","","","",0,"",NA,"","Disgust","images/5_disgust_hi_md_2_Dark2_ascend_lgsm_bar.png",NA,NA
NA,"<div style=""width:500px;"">
                            <p style=""font-size:50px; font-weight:bold;""
                            >Disgust</p>
                            <div style=""width:480px; margin: auto;"">
                                <img src=""images/5_disgust_hi_md_3_tab20_ascend_smlg_bar.png"" width=""480"" height=""420"" style=""object-fit:contain;"">
                            </div>
                        </div>","178","html-slider-response",100,348292,"0.0-94.0","jpmlqlql33",4,"","","","","","",0,"",NA,"","Disgust","images/5_disgust_hi_md_3_tab20_ascend_smlg_bar.png",NA,NA
NA,"<div style=""width:500px;"">
                            <p style=""font-size:50px; font-weight:bold;""
                            >Disgust</p>
                            <div style=""width:480px; margin: auto;"">
                                <img src=""images/5_disgust_hi_md_2_Dark2_ascend_smlg_bar.png"" width=""480"" height=""420"" style=""object-fit:contain;"">
                            </div>
                        </div>","199","html-slider-response",101,351009,"0.0-95.0","jpmlqlql33",4,"","","","","","",0,"",NA,"","Disgust","images/5_disgust_hi_md_2_Dark2_ascend_smlg_bar.png",NA,NA
NA,"<div style=""width:500px;"">
                            <p style=""font-size:50px; font-weight:bold;""
                            >Disgust</p>
                            <div style=""width:480px; margin: auto;"">
                                <img src=""images/5_disgust_lo_lo_1_tab20c_ascend_lgsm_bar.png"" width=""480"" height=""420"" style=""object-fit:contain;"">
                            </div>
                        </div>","-194","html-slider-response",102,356193,"0.0-96.0","jpmlqlql33",4,"","","","","","",0,"",NA,"","Disgust","images/5_disgust_lo_lo_1_tab20c_ascend_lgsm_bar.png",NA,NA
NA,"<div style=""width:500px;"">
                            <p style=""font-size:50px; font-weight:bold;""
                            >Disgust</p>
                            <div style=""width:480px; margin: auto;"">
                                <img src=""images/5_disgust_med_lo_3_Pastel2_ascend_lgsm_bar.png"" width=""480"" height=""420"" style=""object-fit:contain;"">
                            </div>
                        </div>","-200","html-slider-response",103,359359,"0.0-97.0","jpmlqlql33",4,"","","","","","",0,"",NA,"","Disgust","images/5_disgust_med_lo_3_Pastel2_ascend_lgsm_bar.png",NA,NA
NA,"<div style=""width:500px;"">
                            <p style=""font-size:50px; font-weight:bold;""
                            >Disgust</p>
                            <div style=""width:480px; margin: auto;"">
                                <img src=""images/5_disgust_hi_lo_1_tab20b_ascend_lgsm_bar.png"" width=""480"" height=""420"" style=""object-fit:contain;"">
                            </div>
                        </div>","-142","html-slider-response",104,361908,"0.0-98.0","jpmlqlql33",4,"","","","","","",0,"",NA,"","Disgust","images/5_disgust_hi_lo_1_tab20b_ascend_lgsm_bar.png",NA,NA
NA,"<div style=""width:500px;"">
                            <p style=""font-size:50px; font-weight:bold;""
                            >Disgust</p>
                            <div style=""width:480px; margin: auto;"">
                                <img src=""images/5_disgust_lo_lo_3_tab20_ascend_lgsm_bar.png"" width=""480"" height=""420"" style=""object-fit:contain;"">
                            </div>
                        </div>","-200","html-slider-response",105,364393,"0.0-99.0","jpmlqlql33",4,"","","","","","",0,"",NA,"","Disgust","images/5_disgust_lo_lo_3_tab20_ascend_lgsm_bar.png",NA,NA
NA,"<div style=""width:500px;"">
                            <p style=""font-size:50px; font-weight:bold;""
                            >Disgust</p>
                            <div style=""width:480px; margin: auto;"">
                                <img src=""images/5_disgust_med_lo_3_Pastel2_ascend_smlg_bar.png"" width=""480"" height=""420"" style=""object-fit:contain;"">
                            </div>
                        </div>","-101","html-slider-response",106,366425,"0.0-100.0","jpmlqlql33",4,"","","","","","",0,"",NA,"","Disgust","images/5_disgust_med_lo_3_Pastel2_ascend_smlg_bar.png",NA,NA
NA,"<div style=""width:500px;"">
                            <p style=""font-size:50px; font-weight:bold;""
                            >Disgust</p>
                            <div style=""width:480px; margin: auto;"">
                                <img src=""images/5_disgust_med_med_3_Paired_decend_smlg_bar.png"" width=""480"" height=""420"" style=""object-fit:contain;"">
                            </div>
                        </div>","-63","html-slider-response",107,368475,"0.0-101.0","jpmlqlql33",4,"","","","","","",0,"",NA,"","Disgust","images/5_disgust_med_med_3_Paired_decend_smlg_bar.png",NA,NA
NA,"<div style=""width:500px;"">
                            <p style=""font-size:50px; font-weight:bold;""
                            >Disgust</p>
                            <div style=""width:480px; margin: auto;"">
                                <img src=""images/5_disgust_med_med_2_tab20_decend_smlg_bar.png"" width=""480"" height=""420"" style=""object-fit:contain;"">
                            </div>
                        </div>","-25","html-slider-response",108,373560,"0.0-102.0","jpmlqlql33",4,"","","","","","",0,"",NA,"","Disgust","images/5_disgust_med_med_2_tab20_decend_smlg_bar.png",NA,NA
NA,"<div style=""width:500px;"">
                            <p style=""font-size:50px; font-weight:bold;""
                            >Disgust</p>
                            <div style=""width:480px; margin: auto;"">
                                <img src=""images/5_disgust_med_med_1_tab20b_decend_lgsm_bar.png"" width=""480"" height=""420"" style=""object-fit:contain;"">
                            </div>
                        </div>","-88","html-slider-response",109,376243,"0.0-103.0","jpmlqlql33",4,"","","","","","",0,"",NA,"","Disgust","images/5_disgust_med_med_1_tab20b_decend_lgsm_bar.png",NA,NA
NA,"<div style=""width:500px;"">
                            <p style=""font-size:50px; font-weight:bold;""
                            >Disgust</p>
                            <div style=""width:480px; margin: auto;"">
                                <img src=""images/5_disgust_hi_hi_3_Dark2_decend_lgsm_bar.png"" width=""480"" height=""420"" style=""object-fit:contain;"">
                            </div>
                        </div>","200","html-slider-response",110,377991,"0.0-104.0","jpmlqlql33",4,"","","","","","",0,"",NA,"","Disgust","images/5_disgust_hi_hi_3_Dark2_decend_lgsm_bar.png",NA,NA
NA,"<div style=""width:500px;"">
                            <p style=""font-size:50px; font-weight:bold;""
                            >Disgust</p>
                            <div style=""width:480px; margin: auto;"">
                                <img src=""images/5_disgust_med_lo_3_Pastel2_decend_lgsm_bar.png"" width=""480"" height=""420"" style=""object-fit:contain;"">
                            </div>
                        </div>","-93","html-slider-response",111,380292,"0.0-105.0","jpmlqlql33",4,"","","","","","",0,"",NA,"","Disgust","images/5_disgust_med_lo_3_Pastel2_decend_lgsm_bar.png",NA,NA
NA,"<div style=""width:500px;"">
                            <p style=""font-size:50px; font-weight:bold;""
                            >Disgust</p>
                            <div style=""width:480px; margin: auto;"">
                                <img src=""images/5_disgust_hi_md_3_tab20_decend_lgsm_bar.png"" width=""480"" height=""420"" style=""object-fit:contain;"">
                            </div>
                        </div>","139","html-slider-response",112,383075,"0.0-106.0","jpmlqlql33",4,"","","","","","",0,"",NA,"","Disgust","images/5_disgust_hi_md_3_tab20_decend_lgsm_bar.png",NA,NA
NA,"<div style=""width:500px;"">
                            <p style=""font-size:50px; font-weight:bold;""
                            >Disgust</p>
                            <div style=""width:480px; margin: auto;"">
                                <img src=""images/5_disgust_hi_hi_2_tab20_decend_lgsm_bar.png"" width=""480"" height=""420"" style=""object-fit:contain;"">
                            </div>
                        </div>","155","html-slider-response",113,385109,"0.0-107.0","jpmlqlql33",4,"","","","","","",0,"",NA,"","Disgust","images/5_disgust_hi_hi_2_tab20_decend_lgsm_bar.png",NA,NA
NA,"<div style=""width:500px;"">
                            <p style=""font-size:50px; font-weight:bold;""
                            >Disgust</p>
                            <div style=""width:480px; margin: auto;"">
                                <img src=""images/5_disgust_hi_hi_3_Dark2_ascend_lgsm_bar.png"" width=""480"" height=""420"" style=""object-fit:contain;"">
                            </div>
                        </div>","198","html-slider-response",114,388376,"0.0-108.0","jpmlqlql33",4,"","","","","","",0,"",NA,"","Disgust","images/5_disgust_hi_hi_3_Dark2_ascend_lgsm_bar.png",NA,NA
NA,"<div style=""width:500px;"">
                            <p style=""font-size:50px; font-weight:bold;""
                            >Disgust</p>
                            <div style=""width:480px; margin: auto;"">
                                <img src=""images/5_disgust_hi_lo_2_tab20_ascend_smlg_bar.png"" width=""480"" height=""420"" style=""object-fit:contain;"">
                            </div>
                        </div>","37","html-slider-response",115,390575,"0.0-109.0","jpmlqlql33",4,"","","","","","",0,"",NA,"","Disgust","images/5_disgust_hi_lo_2_tab20_ascend_smlg_bar.png",NA,NA
NA,"<div style=""width:500px;"">
                            <p style=""font-size:50px; font-weight:bold;""
                            >Disgust</p>
                            <div style=""width:480px; margin: auto;"">
                                <img src=""images/5_disgust_hi_lo_3_Paired_decend_lgsm_bar.png"" width=""480"" height=""420"" style=""object-fit:contain;"">
                            </div>
                        </div>","76","html-slider-response",116,392509,"0.0-110.0","jpmlqlql33",4,"","","","","","",0,"",NA,"","Disgust","images/5_disgust_hi_lo_3_Paired_decend_lgsm_bar.png",NA,NA
NA,"<div style=""width:500px;"">
                            <p style=""font-size:50px; font-weight:bold;""
                            >Disgust</p>
                            <div style=""width:480px; margin: auto;"">
                                <img src=""images/5_disgust_med_med_1_tab20b_ascend_smlg_bar.png"" width=""480"" height=""420"" style=""object-fit:contain;"">
                            </div>
                        </div>","-95","html-slider-response",117,396259,"0.0-111.0","jpmlqlql33",4,"","","","","","",0,"",NA,"","Disgust","images/5_disgust_med_med_1_tab20b_ascend_smlg_bar.png",NA,NA
NA,"<div style=""width:500px;"">
                            <p style=""font-size:50px; font-weight:bold;""
                            >Disgust</p>
                            <div style=""width:480px; margin: auto;"">
                                <img src=""images/5_disgust_hi_hi_1_tab20b_decend_lgsm_bar.png"" width=""480"" height=""420"" style=""object-fit:contain;"">
                            </div>
                        </div>","200","html-slider-response",118,399024,"0.0-112.0","jpmlqlql33",4,"","","","","","",0,"",NA,"","Disgust","images/5_disgust_hi_hi_1_tab20b_decend_lgsm_bar.png",NA,NA
NA,"<div style=""width:500px;"">
                            <p style=""font-size:50px; font-weight:bold;""
                            >Disgust</p>
                            <div style=""width:480px; margin: auto;"">
                                <img src=""images/5_disgust_hi_md_1_tab20b_ascend_lgsm_bar.png"" width=""480"" height=""420"" style=""object-fit:contain;"">
                            </div>
                        </div>","-40","html-slider-response",119,401957,"0.0-113.0","jpmlqlql33",4,"","","","","","",0,"",NA,"","Disgust","images/5_disgust_hi_md_1_tab20b_ascend_lgsm_bar.png",NA,NA
NA,"<div style=""width:500px;"">
                            <p style=""font-size:50px; font-weight:bold;""
                            >Disgust</p>
                            <div style=""width:480px; margin: auto;"">
                                <img src=""images/5_disgust_med_med_2_tab20_ascend_smlg_bar.png"" width=""480"" height=""420"" style=""object-fit:contain;"">
                            </div>
                        </div>","46","html-slider-response",120,404325,"0.0-114.0","jpmlqlql33",4,"","","","","","",0,"",NA,"","Disgust","images/5_disgust_med_med_2_tab20_ascend_smlg_bar.png",NA,NA
NA,"<div style=""width:500px;"">
                            <p style=""font-size:50px; font-weight:bold;""
                            >Disgust</p>
                            <div style=""width:480px; margin: auto;"">
                                <img src=""images/5_disgust_med_lo_1_tab20c_ascend_smlg_bar.png"" width=""480"" height=""420"" style=""object-fit:contain;"">
                            </div>
                        </div>","-27","html-slider-response",121,406524,"0.0-115.0","jpmlqlql33",4,"","","","","","",0,"",NA,"","Disgust","images/5_disgust_med_lo_1_tab20c_ascend_smlg_bar.png",NA,NA
NA,"<div style=""width:500px;"">
                            <p style=""font-size:50px; font-weight:bold;""
                            >Disgust</p>
                            <div style=""width:480px; margin: auto;"">
                                <img src=""images/5_disgust_hi_lo_1_tab20b_decend_smlg_bar.png"" width=""480"" height=""420"" style=""object-fit:contain;"">
                            </div>
                        </div>","-74","html-slider-response",122,408792,"0.0-116.0","jpmlqlql33",4,"","","","","","",0,"",NA,"","Disgust","images/5_disgust_hi_lo_1_tab20b_decend_smlg_bar.png",NA,NA
NA,"<div style=""width:500px;"">
                            <p style=""font-size:50px; font-weight:bold;""
                            >Disgust</p>
                            <div style=""width:480px; margin: auto;"">
                                <img src=""images/5_disgust_lo_lo_2_Pastel1_ascend_smlg_bar.png"" width=""480"" height=""420"" style=""object-fit:contain;"">
                            </div>
                        </div>","-196","html-slider-response",123,411375,"0.0-117.0","jpmlqlql33",4,"","","","","","",0,"",NA,"","Disgust","images/5_disgust_lo_lo_2_Pastel1_ascend_smlg_bar.png",NA,NA
NA,"<div style=""width:500px;"">
                            <p style=""font-size:50px; font-weight:bold;""
                            >Disgust</p>
                            <div style=""width:480px; margin: auto;"">
                                <img src=""images/5_disgust_hi_md_1_tab20b_ascend_smlg_bar.png"" width=""480"" height=""420"" style=""object-fit:contain;"">
                            </div>
                        </div>","101","html-slider-response",124,415209,"0.0-118.0","jpmlqlql33",4,"","","","","","",0,"",NA,"","Disgust","images/5_disgust_hi_md_1_tab20b_ascend_smlg_bar.png",NA,NA
NA,"<div style=""width:500px;"">
                            <p style=""font-size:50px; font-weight:bold;""
                            >Disgust</p>
                            <div style=""width:480px; margin: auto;"">
                                <img src=""images/5_disgust_med_med_3_Paired_ascend_lgsm_bar.png"" width=""480"" height=""420"" style=""object-fit:contain;"">
                            </div>
                        </div>","-73","html-slider-response",125,418057,"0.0-119.0","jpmlqlql33",4,"","","","","","",0,"",NA,"","Disgust","images/5_disgust_med_med_3_Paired_ascend_lgsm_bar.png",NA,NA
NA,"<div style=""width:500px;"">
                            <p style=""font-size:50px; font-weight:bold;""
                            >Disgust</p>
                            <div style=""width:480px; margin: auto;"">
                                <img src=""images/5_disgust_hi_hi_1_tab20b_decend_smlg_bar.png"" width=""480"" height=""420"" style=""object-fit:contain;"">
                            </div>
                        </div>","200","html-slider-response",126,420559,"0.0-120.0","jpmlqlql33",4,"","","","","","",0,"",NA,"","Disgust","images/5_disgust_hi_hi_1_tab20b_decend_smlg_bar.png",NA,NA
NA,"<div style=""width:500px;"">
                            <p style=""font-size:50px; font-weight:bold;""
                            >Disgust</p>
                            <div style=""width:480px; margin: auto;"">
                                <img src=""images/5_disgust_med_lo_1_tab20c_decend_smlg_bar.png"" width=""480"" height=""420"" style=""object-fit:contain;"">
                            </div>
                        </div>","-138","html-slider-response",127,422491,"0.0-121.0","jpmlqlql33",4,"","","","","","",0,"",NA,"","Disgust","images/5_disgust_med_lo_1_tab20c_decend_smlg_bar.png",NA,NA
NA,"<div style=""width:500px;"">
                            <p style=""font-size:50px; font-weight:bold;""
                            >Disgust</p>
                            <div style=""width:480px; margin: auto;"">
                                <img src=""images/5_disgust_med_lo_2_tab20_ascend_smlg_bar.png"" width=""480"" height=""420"" style=""object-fit:contain;"">
                            </div>
                        </div>","-115","html-slider-response",128,424392,"0.0-122.0","jpmlqlql33",4,"","","","","","",0,"",NA,"","Disgust","images/5_disgust_med_lo_2_tab20_ascend_smlg_bar.png",NA,NA
NA,"<div style=""width:500px;"">
                            <p style=""font-size:50px; font-weight:bold;""
                            >Disgust</p>
                            <div style=""width:480px; margin: auto;"">
                                <img src=""images/5_disgust_med_med_2_tab20_ascend_lgsm_bar.png"" width=""480"" height=""420"" style=""object-fit:contain;"">
                            </div>
                        </div>","32","html-slider-response",129,427408,"0.0-123.0","jpmlqlql33",4,"","","","","","",0,"",NA,"","Disgust","images/5_disgust_med_med_2_tab20_ascend_lgsm_bar.png",NA,NA
NA,"<div style=""width:500px;"">
                            <p style=""font-size:50px; font-weight:bold;""
                            >Disgust</p>
                            <div style=""width:480px; margin: auto;"">
                                <img src=""images/5_disgust_hi_hi_1_tab20b_ascend_smlg_bar.png"" width=""480"" height=""420"" style=""object-fit:contain;"">
                            </div>
                        </div>","200","html-slider-response",130,428993,"0.0-124.0","jpmlqlql33",4,"","","","","","",0,"",NA,"","Disgust","images/5_disgust_hi_hi_1_tab20b_ascend_smlg_bar.png",NA,NA
NA,"<div style=""width:500px;"">
                            <p style=""font-size:50px; font-weight:bold;""
                            >Disgust</p>
                            <div style=""width:480px; margin: auto;"">
                                <img src=""images/5_disgust_lo_lo_1_tab20c_decend_lgsm_bar.png"" width=""480"" height=""420"" style=""object-fit:contain;"">
                            </div>
                        </div>","-200","html-slider-response",131,431058,"0.0-125.0","jpmlqlql33",4,"","","","","","",0,"",NA,"","Disgust","images/5_disgust_lo_lo_1_tab20c_decend_lgsm_bar.png",NA,NA
NA,"<div style=""width:500px;"">
                            <p style=""font-size:50px; font-weight:bold;""
                            >Disgust</p>
                            <div style=""width:480px; margin: auto;"">
                                <img src=""images/5_disgust_lo_lo_3_tab20_ascend_smlg_bar.png"" width=""480"" height=""420"" style=""object-fit:contain;"">
                            </div>
                        </div>","-200","html-slider-response",132,433341,"0.0-126.0","jpmlqlql33",4,"","","","","","",0,"",NA,"","Disgust","images/5_disgust_lo_lo_3_tab20_ascend_smlg_bar.png",NA,NA
NA,"<div style=""width:500px;"">
                            <p style=""font-size:50px; font-weight:bold;""
                            >Disgust</p>
                            <div style=""width:480px; margin: auto;"">
                                <img src=""images/5_disgust_hi_hi_2_tab20_decend_smlg_bar.png"" width=""480"" height=""420"" style=""object-fit:contain;"">
                            </div>
                        </div>","129","html-slider-response",133,436840,"0.0-127.0","jpmlqlql33",4,"","","","","","",0,"",NA,"","Disgust","images/5_disgust_hi_hi_2_tab20_decend_smlg_bar.png",NA,NA
NA,"<div style=""width:500px;"">
                            <p style=""font-size:50px; font-weight:bold;""
                            >Disgust</p>
                            <div style=""width:480px; margin: auto;"">
                                <img src=""images/5_disgust_hi_md_2_Dark2_decend_lgsm_bar.png"" width=""480"" height=""420"" style=""object-fit:contain;"">
                            </div>
                        </div>","50","html-slider-response",134,438875,"0.0-128.0","jpmlqlql33",4,"","","","","","",0,"",NA,"","Disgust","images/5_disgust_hi_md_2_Dark2_decend_lgsm_bar.png",NA,NA
NA,"<div style=""width:500px;"">
                            <p style=""font-size:50px; font-weight:bold;""
                            >Disgust</p>
                            <div style=""width:480px; margin: auto;"">
                                <img src=""images/5_disgust_med_med_1_tab20b_ascend_lgsm_bar.png"" width=""480"" height=""420"" style=""object-fit:contain;"">
                            </div>
                        </div>","-200","html-slider-response",135,440591,"0.0-129.0","jpmlqlql33",4,"","","","","","",0,"",NA,"","Disgust","images/5_disgust_med_med_1_tab20b_ascend_lgsm_bar.png",NA,NA
NA,"<div style=""width:500px;"">
                            <p style=""font-size:50px; font-weight:bold;""
                            >Disgust</p>
                            <div style=""width:480px; margin: auto;"">
                                <img src=""images/5_disgust_hi_lo_1_tab20b_ascend_smlg_bar.png"" width=""480"" height=""420"" style=""object-fit:contain;"">
                            </div>
                        </div>","70","html-slider-response",136,442808,"0.0-130.0","jpmlqlql33",4,"","","","","","",0,"",NA,"","Disgust","images/5_disgust_hi_lo_1_tab20b_ascend_smlg_bar.png",NA,NA
NA,"<div style=""width:500px;"">
                            <p style=""font-size:50px; font-weight:bold;""
                            >Disgust</p>
                            <div style=""width:480px; margin: auto;"">
                                <img src=""images/5_disgust_hi_hi_3_Dark2_ascend_smlg_bar.png"" width=""480"" height=""420"" style=""object-fit:contain;"">
                            </div>
                        </div>","200","html-slider-response",137,446259,"0.0-131.0","jpmlqlql33",4,"","","","","","",0,"",NA,"","Disgust","images/5_disgust_hi_hi_3_Dark2_ascend_smlg_bar.png",NA,NA
NA,"<div style=""width:500px;"">
                            <p style=""font-size:50px; font-weight:bold;""
                            >Disgust</p>
                            <div style=""width:480px; margin: auto;"">
                                <img src=""images/5_disgust_med_lo_2_tab20_ascend_lgsm_bar.png"" width=""480"" height=""420"" style=""object-fit:contain;"">
                            </div>
                        </div>","-121","html-slider-response",138,448424,"0.0-132.0","jpmlqlql33",4,"","","","","","",0,"",NA,"","Disgust","images/5_disgust_med_lo_2_tab20_ascend_lgsm_bar.png",NA,NA
NA,"<div style=""width:500px;"">
                            <p style=""font-size:50px; font-weight:bold;""
                            >Disgust</p>
                            <div style=""width:480px; margin: auto;"">
                                <img src=""images/5_disgust_hi_md_3_tab20_ascend_lgsm_bar.png"" width=""480"" height=""420"" style=""object-fit:contain;"">
                            </div>
                        </div>","-38","html-slider-response",139,450807,"0.0-133.0","jpmlqlql33",4,"","","","","","",0,"",NA,"","Disgust","images/5_disgust_hi_md_3_tab20_ascend_lgsm_bar.png",NA,NA
NA,"<div style=""width:500px;"">
                            <p style=""font-size:50px; font-weight:bold;""
                            >Disgust</p>
                            <div style=""width:480px; margin: auto;"">
                                <img src=""images/5_disgust_med_lo_1_tab20c_decend_lgsm_bar.png"" width=""480"" height=""420"" style=""object-fit:contain;"">
                            </div>
                        </div>","22","html-slider-response",140,453241,"0.0-134.0","jpmlqlql33",4,"","","","","","",0,"",NA,"","Disgust","images/5_disgust_med_lo_1_tab20c_decend_lgsm_bar.png",NA,NA
NA,"<div style=""width:500px;"">
                            <p style=""font-size:50px; font-weight:bold;""
                            >Disgust</p>
                            <div style=""width:480px; margin: auto;"">
                                <img src=""images/5_disgust_hi_lo_2_tab20_decend_lgsm_bar.png"" width=""480"" height=""420"" style=""object-fit:contain;"">
                            </div>
                        </div>","26","html-slider-response",141,454874,"0.0-135.0","jpmlqlql33",4,"","","","","","",0,"",NA,"","Disgust","images/5_disgust_hi_lo_2_tab20_decend_lgsm_bar.png",NA,NA
NA,"<div style=""width:500px;"">
                            <p style=""font-size:50px; font-weight:bold;""
                            >Disgust</p>
                            <div style=""width:480px; margin: auto;"">
                                <img src=""images/5_disgust_lo_lo_2_Pastel1_decend_lgsm_bar.png"" width=""480"" height=""420"" style=""object-fit:contain;"">
                            </div>
                        </div>","-195","html-slider-response",142,457040,"0.0-136.0","jpmlqlql33",4,"","","","","","",0,"",NA,"","Disgust","images/5_disgust_lo_lo_2_Pastel1_decend_lgsm_bar.png",NA,NA
NA,"<div style=""width:500px;"">
                            <p style=""font-size:50px; font-weight:bold;""
                            >Disgust</p>
                            <div style=""width:480px; margin: auto;"">
                                <img src=""images/5_disgust_hi_hi_1_tab20b_ascend_lgsm_bar.png"" width=""480"" height=""420"" style=""object-fit:contain;"">
                            </div>
                        </div>","200","html-slider-response",143,459158,"0.0-137.0","jpmlqlql33",4,"","","","","","",0,"",NA,"","Disgust","images/5_disgust_hi_hi_1_tab20b_ascend_lgsm_bar.png",NA,NA
NA,"<div style=""width:500px;"">
                            <p style=""font-size:50px; font-weight:bold;""
                            >Disgust</p>
                            <div style=""width:480px; margin: auto;"">
                                <img src=""images/5_disgust_hi_md_3_tab20_decend_smlg_bar.png"" width=""480"" height=""420"" style=""object-fit:contain;"">
                            </div>
                        </div>","-42","html-slider-response",144,461274,"0.0-138.0","jpmlqlql33",4,"","","","","","",0,"",NA,"","Disgust","images/5_disgust_hi_md_3_tab20_decend_smlg_bar.png",NA,NA
NA,"<div style=""width:500px;"">
                            <p style=""font-size:50px; font-weight:bold;""
                            >Disgust</p>
                            <div style=""width:480px; margin: auto;"">
                                <img src=""images/5_disgust_hi_lo_1_tab20b_decend_lgsm_bar.png"" width=""480"" height=""420"" style=""object-fit:contain;"">
                            </div>
                        </div>","18","html-slider-response",145,463057,"0.0-139.0","jpmlqlql33",4,"","","","","","",0,"",NA,"","Disgust","images/5_disgust_hi_lo_1_tab20b_decend_lgsm_bar.png",NA,NA
NA,"<div style=""width:500px;"">
                            <p style=""font-size:50px; font-weight:bold;""
                            >Disgust</p>
                            <div style=""width:480px; margin: auto;"">
                                <img src=""images/5_disgust_med_med_1_tab20b_decend_smlg_bar.png"" width=""480"" height=""420"" style=""object-fit:contain;"">
                            </div>
                        </div>","-200","html-slider-response",146,468659,"0.0-140.0","jpmlqlql33",4,"","","","","","",0,"",NA,"","Disgust","images/5_disgust_med_med_1_tab20b_decend_smlg_bar.png",NA,NA
NA,"<div style=""width:500px;"">
                            <p style=""font-size:50px; font-weight:bold;""
                            >Disgust</p>
                            <div style=""width:480px; margin: auto;"">
                                <img src=""images/5_disgust_hi_hi_2_tab20_ascend_lgsm_bar.png"" width=""480"" height=""420"" style=""object-fit:contain;"">
                            </div>
                        </div>","175","html-slider-response",147,470857,"0.0-141.0","jpmlqlql33",4,"","","","","","",0,"",NA,"","Disgust","images/5_disgust_hi_hi_2_tab20_ascend_lgsm_bar.png",NA,NA
NA,"<div style=""width:500px;"">
                            <p style=""font-size:50px; font-weight:bold;""
                            >Disgust</p>
                            <div style=""width:480px; margin: auto;"">
                                <img src=""images/5_disgust_hi_lo_2_tab20_ascend_lgsm_bar.png"" width=""480"" height=""420"" style=""object-fit:contain;"">
                            </div>
                        </div>","-49","html-slider-response",148,473424,"0.0-142.0","jpmlqlql33",4,"","","","","","",0,"",NA,"","Disgust","images/5_disgust_hi_lo_2_tab20_ascend_lgsm_bar.png",NA,NA
NA,"<div style=""width:500px;"">
                            <p style=""font-size:50px; font-weight:bold;""
                            >Disgust</p>
                            <div style=""width:480px; margin: auto;"">
                                <img src=""images/5_disgust_lo_lo_3_tab20_decend_smlg_bar.png"" width=""480"" height=""420"" style=""object-fit:contain;"">
                            </div>
                        </div>","-195","html-slider-response",149,476474,"0.0-143.0","jpmlqlql33",4,"","","","","","",0,"",NA,"","Disgust","images/5_disgust_lo_lo_3_tab20_decend_smlg_bar.png",NA,NA
NA,"<div style=""width:500px;"">
                            <p style=""font-size:50px; font-weight:bold;""
                            >Disgust</p>
                            <div style=""width:480px; margin: auto;"">
                                <img src=""images/5_disgust_med_lo_1_tab20c_ascend_lgsm_bar.png"" width=""480"" height=""420"" style=""object-fit:contain;"">
                            </div>
                        </div>","-151","html-slider-response",150,478524,"0.0-144.0","jpmlqlql33",4,"","","","","","",0,"",NA,"","Disgust","images/5_disgust_med_lo_1_tab20c_ascend_lgsm_bar.png",NA,NA
NA,"<div style=""width:500px;"">
                            <p style=""font-size:50px; font-weight:bold;""
                            >Disgust</p>
                            <div style=""width:480px; margin: auto;"">
                                <img src=""images/5_disgust_med_med_3_Paired_decend_lgsm_bar.png"" width=""480"" height=""420"" style=""object-fit:contain;"">
                            </div>
                        </div>","-152","html-slider-response",151,482039,"0.0-145.0","jpmlqlql33",4,"","","","","","",0,"",NA,"","Disgust","images/5_disgust_med_med_3_Paired_decend_lgsm_bar.png",NA,NA
NA,"<div style=""width:500px;"">
                            <p style=""font-size:50px; font-weight:bold;""
                            >Disgust</p>
                            <div style=""width:480px; margin: auto;"">
                                <img src=""images/5_disgust_lo_lo_2_Pastel1_ascend_lgsm_bar.png"" width=""480"" height=""420"" style=""object-fit:contain;"">
                            </div>
                        </div>","-190","html-slider-response",152,484173,"0.0-146.0","jpmlqlql33",4,"","","","","","",0,"",NA,"","Disgust","images/5_disgust_lo_lo_2_Pastel1_ascend_lgsm_bar.png",NA,NA
NA,"<div style=""width:500px;"">
                            <p style=""font-size:50px; font-weight:bold;""
                            >Disgust</p>
                            <div style=""width:480px; margin: auto;"">
                                <img src=""images/5_disgust_lo_lo_1_tab20c_decend_smlg_bar.png"" width=""480"" height=""420"" style=""object-fit:contain;"">
                            </div>
                        </div>","-195","html-slider-response",153,486690,"0.0-147.0","jpmlqlql33",4,"","","","","","",0,"",NA,"","Disgust","images/5_disgust_lo_lo_1_tab20c_decend_smlg_bar.png",NA,NA
NA,"<div style=""width:500px;"">
                            <p style=""font-size:50px; font-weight:bold;""
                            >Disgust</p>
                            <div style=""width:480px; margin: auto;"">
                                <img src=""images/5_disgust_hi_lo_3_Paired_ascend_lgsm_bar.png"" width=""480"" height=""420"" style=""object-fit:contain;"">
                            </div>
                        </div>","-101","html-slider-response",154,489273,"0.0-148.0","jpmlqlql33",4,"","","","","","",0,"",NA,"","Disgust","images/5_disgust_hi_lo_3_Paired_ascend_lgsm_bar.png",NA,NA
NA,"<div style=""width:500px;"">
                            <p style=""font-size:50px; font-weight:bold;""
                            >Disgust</p>
                            <div style=""width:480px; margin: auto;"">
                                <img src=""images/5_disgust_hi_lo_3_Paired_decend_smlg_bar.png"" width=""480"" height=""420"" style=""object-fit:contain;"">
                            </div>
                        </div>","27","html-slider-response",155,492007,"0.0-149.0","jpmlqlql33",4,"","","","","","",0,"",NA,"","Disgust","images/5_disgust_hi_lo_3_Paired_decend_smlg_bar.png",NA,NA
NA,"<div style=""width:500px;"">
                            <p style=""font-size:50px; font-weight:bold;""
                            >Disgust</p>
                            <div style=""width:480px; margin: auto;"">
                                <img src=""images/5_disgust_hi_md_1_tab20b_decend_lgsm_bar.png"" width=""480"" height=""420"" style=""object-fit:contain;"">
                            </div>
                        </div>","119","html-slider-response",156,494274,"0.0-150.0","jpmlqlql33",4,"","","","","","",0,"",NA,"","Disgust","images/5_disgust_hi_md_1_tab20b_decend_lgsm_bar.png",NA,NA
NA,"<div style=""width:500px;"">
                            <p style=""font-size:50px; font-weight:bold;""
                            >Disgust</p>
                            <div style=""width:480px; margin: auto;"">
                                <img src=""images/5_disgust_med_med_3_Paired_ascend_smlg_bar.png"" width=""480"" height=""420"" style=""object-fit:contain;"">
                            </div>
                        </div>","-29","html-slider-response",157,496490,"0.0-151.0","jpmlqlql33",4,"","","","","","",0,"",NA,"","Disgust","images/5_disgust_med_med_3_Paired_ascend_smlg_bar.png",NA,NA
NA,"<div style=""width:500px;"">
                            <p style=""font-size:50px; font-weight:bold;""
                            >Disgust</p>
                            <div style=""width:480px; margin: auto;"">
                                <img src=""images/5_disgust_hi_lo_2_tab20_decend_smlg_bar.png"" width=""480"" height=""420"" style=""object-fit:contain;"">
                            </div>
                        </div>","-54","html-slider-response",158,498589,"0.0-152.0","jpmlqlql33",4,"","","","","","",0,"",NA,"","Disgust","images/5_disgust_hi_lo_2_tab20_decend_smlg_bar.png",NA,NA
NA,"<div style=""width:500px;"">
                            <p style=""font-size:50px; font-weight:bold;""
                            >Disgust</p>
                            <div style=""width:480px; margin: auto;"">
                                <img src=""images/5_disgust_lo_lo_1_tab20c_ascend_smlg_bar.png"" width=""480"" height=""420"" style=""object-fit:contain;"">
                            </div>
                        </div>","-193","html-slider-response",159,501574,"0.0-153.0","jpmlqlql33",4,"","","","","","",0,"",NA,"","Disgust","images/5_disgust_lo_lo_1_tab20c_ascend_smlg_bar.png",NA,NA
NA,"<div style=""width:500px;"">
                            <p style=""font-size:50px; font-weight:bold;""
                            >Disgust</p>
                            <div style=""width:480px; margin: auto;"">
                                <img src=""images/5_disgust_hi_hi_3_Dark2_decend_smlg_bar.png"" width=""480"" height=""420"" style=""object-fit:contain;"">
                            </div>
                        </div>","200","html-slider-response",160,504023,"0.0-154.0","jpmlqlql33",4,"","","","","","",0,"",NA,"","Disgust","images/5_disgust_hi_hi_3_Dark2_decend_smlg_bar.png",NA,NA
NA,"<div style=""width:500px;"">
                            <p style=""font-size:50px; font-weight:bold;""
                            >Disgust</p>
                            <div style=""width:480px; margin: auto;"">
                                <img src=""images/5_disgust_med_lo_2_tab20_decend_smlg_bar.png"" width=""480"" height=""420"" style=""object-fit:contain;"">
                            </div>
                        </div>","-109","html-slider-response",161,507975,"0.0-155.0","jpmlqlql33",4,"","","","","","",0,"",NA,"","Disgust","images/5_disgust_med_lo_2_tab20_decend_smlg_bar.png",NA,NA
NA,"<div style=""width:500px;"">
                            <p style=""font-size:50px; font-weight:bold;""
                            >Disgust</p>
                            <div style=""width:480px; margin: auto;"">
                                <img src=""images/5_disgust_hi_hi_2_tab20_ascend_smlg_bar.png"" width=""480"" height=""420"" style=""object-fit:contain;"">
                            </div>
                        </div>","200","html-slider-response",162,511341,"0.0-156.0","jpmlqlql33",4,"","","","","","",0,"",NA,"","Disgust","images/5_disgust_hi_hi_2_tab20_ascend_smlg_bar.png",NA,NA
NA,"<div style=""width:500px;"">
                            <p style=""font-size:50px; font-weight:bold;""
                            >Disgust</p>
                            <div style=""width:480px; margin: auto;"">
                                <img src=""images/5_disgust_hi_md_1_tab20b_decend_smlg_bar.png"" width=""480"" height=""420"" style=""object-fit:contain;"">
                            </div>
                        </div>","-37","html-slider-response",163,513557,"0.0-157.0","jpmlqlql33",4,"","","","","","",0,"",NA,"","Disgust","images/5_disgust_hi_md_1_tab20b_decend_smlg_bar.png",NA,NA
NA,"<div style=""width:500px;"">
                            <p style=""font-size:50px; font-weight:bold;""
                            >Disgust</p>
                            <div style=""width:480px; margin: auto;"">
                                <img src=""images/5_disgust_med_lo_2_tab20_decend_lgsm_bar.png"" width=""480"" height=""420"" style=""object-fit:contain;"">
                            </div>
                        </div>","-87","html-slider-response",164,515623,"0.0-158.0","jpmlqlql33",4,"","","","","","",0,"",NA,"","Disgust","images/5_disgust_med_lo_2_tab20_decend_lgsm_bar.png",NA,NA
NA,"<div style=""width:500px;"">
                            <p style=""font-size:50px; font-weight:bold;""
                            >Disgust</p>
                            <div style=""width:480px; margin: auto;"">
                                <img src=""images/5_disgust_med_lo_3_Pastel2_decend_smlg_bar.png"" width=""480"" height=""420"" style=""object-fit:contain;"">
                            </div>
                        </div>","-200","html-slider-response",165,517490,"0.0-159.0","jpmlqlql33",4,"","","","","","",0,"",NA,"","Disgust","images/5_disgust_med_lo_3_Pastel2_decend_smlg_bar.png",NA,NA
1067,"<p>Great Job! You've finished block 2.<br></br> You have 3 block(s) left to go.<br></br></p>","0","html-button-response",166,519061,"0.0-160.0","jpmlqlql33",4,"","","","","","",NA,"",NA,"","","",NA,NA
800,"<p>In this block of trials, you will be asked to rate how much you associate each texture with the concept</p >
                        <p style = 'font-size:150%; font-weight: bold'>Fearful</p><br></br>","0","html-button-response",167,519862,"0.0-161.0","jpmlqlql33",4,"","","","","","",NA,"",NA,"","","",NA,NA
NA,"<div style=""width:500px;"">
                            <p style=""font-size:50px; font-weight:bold;""
                            >Fearful</p>
                            <div style=""width:480px; margin: auto;"">
                                <img src=""images/5_fearful_med_med_3_tab20b_ascend_smlg_bar.png"" width=""480"" height=""420"" style=""object-fit:contain;"">
                            </div>
                        </div>","-104","html-slider-response",168,522056,"0.0-162.0","jpmlqlql33",4,"","","","","","",0,"",NA,"","Fearful","images/5_fearful_med_med_3_tab20b_ascend_smlg_bar.png",NA,NA
NA,"<div style=""width:500px;"">
                            <p style=""font-size:50px; font-weight:bold;""
                            >Fearful</p>
                            <div style=""width:480px; margin: auto;"">
                                <img src=""images/5_fearful_med_lo_3_tab20_decend_smlg_bar.png"" width=""480"" height=""420"" style=""object-fit:contain;"">
                            </div>
                        </div>","150","html-slider-response",169,524739,"0.0-163.0","jpmlqlql33",4,"","","","","","",0,"",NA,"","Fearful","images/5_fearful_med_lo_3_tab20_decend_smlg_bar.png",NA,NA
NA,"<div style=""width:500px;"">
                            <p style=""font-size:50px; font-weight:bold;""
                            >Fearful</p>
                            <div style=""width:480px; margin: auto;"">
                                <img src=""images/5_fearful_hi_hi_3_tab10new_decend_smlg_bar.png"" width=""480"" height=""420"" style=""object-fit:contain;"">
                            </div>
                        </div>","-142","html-slider-response",170,527007,"0.0-164.0","jpmlqlql33",4,"","","","","","",0,"",NA,"","Fearful","images/5_fearful_hi_hi_3_tab10new_decend_smlg_bar.png",NA,NA
NA,"<div style=""width:500px;"">
