"rt","stimulus","response","trial_type","trial_index","time_elapsed","internal_node_id","subject_id","condition_num","success","timeout","failed_images","failed_audio","failed_video","question_order","slider_start","practiceTrial","practiceTrialNum","correct","concept","texture_id","ishihara_plate","correct_response"
904,"Welcome to our experiment!<p>At the bottom of this screen, you will see a button that says ""Begin Experiment"".<br>Please only click that button when you are ready to complete the 30 minute experiment in one sitting.</p><p> Once you click that button, it will not be possible to restart the experiment.","0","html-button-response",0,906,"0.0-0.0","reloj9c0rj",13,"","","","","","",NA,"",NA,"","","",NA,NA
NA,"","","preload",1,2139,"0.0-1.0","reloj9c0rj",13,"true","false","[]","[]","[]","",NA,"",NA,"","","",NA,NA
1183,"","","fullscreen",2,4325,"0.0-2.0","reloj9c0rj",13,"true","","","","","",NA,"",NA,"","","",NA,NA
6112,"","{""Consent"":[""<strong>I consent</strong>""]}","survey-multi-select",3,10442,"0.0-3.0","reloj9c0rj",13,"","","","","","[0]",NA,"",NA,"","","",NA,NA
2813,"Welcome! <p> This experiment involves two parts: demographic information, followed by the experimental task.<p> It will take about 30 minutes to complete both parts.","0","html-button-response",4,13257,"0.0-4.0","reloj9c0rj",13,"","","","","","",NA,"",NA,"","","",NA,NA
9355,"","{""Age"":""22"",""Gender"":""female"",""Race/ethnicity"":""white"",""Languages"":""English""}","survey-text",5,22623,"0.0-5.0","reloj9c0rj",13,"","","","","","",NA,"",NA,"","","",NA,NA
87598,"
                        <div>
                            <div style='text-align:left; font-size:18px; line-height:25px; width: 1300px;'>
                                During this experiment you will be asked to rate how much you associate charts with                                different concepts. Below, you can see some examples of the charts you will be asked to rate. Above the charts
                                is the list of concepts. You will be asked
                                to rate how much you associate each chart with each concept on a scale from 'not at all' to 'very much' like the
                                one below. <br>

                        <div style=""text-align: left; width: 1300px;"">
                            <p style=""font-size:18px; line-height:20px; text-align:center; font-weight:bold"">
                                Fearful, Sad, Happy, Angry, Disgust
                            </p>
                        </div>

                        <div style=""display: flex; justify-content: center; width: 100%;"">
                            <div style=""
                                display: grid;
                                grid-template-columns: repeat(5, 1fr);
                                gap: 8px;
                                padding: 10px;
                                width: 900px;  
                                margin: 0 auto;
                            "">
                                
                                    <div style=""width: 100%;"">
                                        <img src=""images/14_happy_lo_lo_1_tab20b_ascend_lgsm_bar.png"" style=""width: 100%; height: auto; object-fit: contain;"">
                                    </div>
                                
                                    <div style=""width: 100%;"">
                                        <img src=""images/14_fearful_hi_hi_1_tab20b_ascend_smlg_bar.png"" style=""width: 100%; height: auto; object-fit: contain;"">
                                    </div>
                                
                                    <div style=""width: 100%;"">
                                        <img src=""images/14_disgust_lo_lo_1_tab20c_ascend_lgsm_bar.png"" style=""width: 100%; height: auto; object-fit: contain;"">
                                    </div>
                                
                                    <div style=""width: 100%;"">
                                        <img src=""images/14_happy_hi_hi_1_Set1_ascend_lgsm_bar.png"" style=""width: 100%; height: auto; object-fit: contain;"">
                                    </div>
                                
                                    <div style=""width: 100%;"">
                                        <img src=""images/14_sad_lo_lo_1_Set1_ascend_smlg_bar.png"" style=""width: 100%; height: auto; object-fit: contain;"">
                                    </div>
                                
                                    <div style=""width: 100%;"">
                                        <img src=""images/14_fearful_lo_lo_1_Pastel1_decend_lgsm_bar.png"" style=""width: 100%; height: auto; object-fit: contain;"">
                                    </div>
                                
                                    <div style=""width: 100%;"">
                                        <img src=""images/14_sad_hi_hi_1_tab20_ascend_smlg_bar.png"" style=""width: 100%; height: auto; object-fit: contain;"">
                                    </div>
                                
                                    <div style=""width: 100%;"">
                                        <img src=""images/14_angry_lo_lo_1_tab20c_ascend_lgsm_bar.png"" style=""width: 100%; height: auto; object-fit: contain;"">
                                    </div>
                                
                                    <div style=""width: 100%;"">
                                        <img src=""images/14_angry_hi_hi_1_tab20_decend_lgsm_bar.png"" style=""width: 100%; height: auto; object-fit: contain;"">
                                    </div>
                                
                                    <div style=""width: 100%;"">
                                        <img src=""images/14_disgust_hi_hi_1_tab20b_decend_lgsm_bar.png"" style=""width: 100%; height: auto; object-fit: contain;"">
                                    </div>
                                
                            </div>
                        </div>
                    </div>
                </div>
                    ","-1","html-slider-response",6,110222,"0.0-6.0","reloj9c0rj",13,"","","","","","",0,"true",NA,"","","",NA,NA
14031,"<div style=""width:1300px;""><p style=""text-align:left"">To move the slider, click and drag your cursor to the location of the scale where you would like to make your rating and then let go. When you let go of the slider, your response will be recorded and the next trial will begin. <br>
                    We are interested in your initial impressions of each chart for a given concept, so please go with your first intuition. 
                    Before you begin the experiment, there will be four training trials for you to practice using the slider. 
                     When you are ready to start the training trials, please click ""Continue"".</p><br></div>","0","html-button-response",7,124254,"0.0-7.0","reloj9c0rj",13,"","","","","","",NA,"",NA,"","","",NA,NA
NA,"<div style=""width:500px;"">
                                    <p style=""font-size:25px;"">Please move the slider all the way to the <br> right endpoint of the scale</p>

                                    </div>
                                </div>","200","html-slider-response",8,128286,"0.0-8.0-0.0","reloj9c0rj",13,"","","","","","",0,"true",0,"true","","",NA,NA
1200,"<p align='center'><b>Good job!</b> Click on 'Continue' to proceed.</p>","0","html-button-response",9,129989,"0.0-8.0-1.0","reloj9c0rj",13,"","","","","","",NA,"",NA,"","","",NA,NA
NA,"<div style=""width:500px;"">
                                    <p style=""font-size:25px;"">Please move the slider all the way to the <br> left endpoint of the scale</p>

                                    </div>
                                </div>","-200","html-slider-response",10,132366,"0.0-9.0-0.0","reloj9c0rj",13,"","","","","","",0,"true",1,"true","","",NA,NA
852,"<p align='center'><b>Good job!</b> Click on 'Continue' to proceed.</p>","0","html-button-response",11,133721,"0.0-9.0-1.0","reloj9c0rj",13,"","","","","","",NA,"",NA,"","","",NA,NA
NA,"<div style=""width:500px;"">
                                    <p style=""font-size:25px;"">Please move the slider halfway between the center and right endpoint of the scale</p>

                                    </div>
                                </div>","99","html-slider-response",12,138183,"0.0-10.0-0.0","reloj9c0rj",13,"","","","","","",0,"true",2,"true","","",NA,NA
585,"<p align='center'><b>Good job!</b> Click on 'Continue' to proceed.</p>","0","html-button-response",13,139270,"0.0-10.0-1.0","reloj9c0rj",13,"","","","","","",NA,"",NA,"","","",NA,NA
NA,"<div style=""width:500px;"">
                                    <p style=""font-size:25px;"">Please move the slider halfway between the center and left endpoint of the scale</p>

                                    </div>
                                </div>","-107","html-slider-response",14,141934,"0.0-11.0-0.0","reloj9c0rj",13,"","","","","","",0,"true",3,"true","","",NA,NA
1368,"<p align='center'><b>Good job!</b> Click on 'Continue' to proceed.</p>","0","html-button-response",15,143804,"0.0-11.0-1.0","reloj9c0rj",13,"","","","","","",NA,"",NA,"","","",NA,NA
2449,"<p>Great job! You've completed the practice trials. Now you will begin the main task.</p>","0","html-button-response",16,146253,"0.0-12.0","reloj9c0rj",13,"","","","","","",NA,"",NA,"","","",NA,NA
3500,"<p>In this block of trials, you will be asked to rate how much you associate each texture with the concept</p >
                        <p style = 'font-size:150%; font-weight: bold'>Fearful</p><br></br>","0","html-button-response",17,149754,"0.0-13.0","reloj9c0rj",13,"","","","","","",NA,"",NA,"","","",NA,NA
NA,"<div style=""width:500px;"">
                            <p style=""font-size:50px; font-weight:bold;""
                            >Fearful</p>
                            <div style=""width:480px; margin: auto;"">
                                <img src=""images/14_fearful_hi_md_2_tab10new_ascend_lgsm_bar.png"" width=""480"" height=""420"" style=""object-fit:contain;"">
                            </div>
                        </div>","118","html-slider-response",18,153334,"0.0-14.0","reloj9c0rj",13,"","","","","","",0,"",NA,"","Fearful","images/14_fearful_hi_md_2_tab10new_ascend_lgsm_bar.png",NA,NA
NA,"<div style=""width:500px;"">
                            <p style=""font-size:50px; font-weight:bold;""
                            >Fearful</p>
                            <div style=""width:480px; margin: auto;"">
                                <img src=""images/14_fearful_hi_md_2_tab10new_ascend_smlg_bar.png"" width=""480"" height=""420"" style=""object-fit:contain;"">
                            </div>
                        </div>","31","html-slider-response",19,157300,"0.0-15.0","reloj9c0rj",13,"","","","","","",0,"",NA,"","Fearful","images/14_fearful_hi_md_2_tab10new_ascend_smlg_bar.png",NA,NA
NA,"<div style=""width:500px;"">
                            <p style=""font-size:50px; font-weight:bold;""
                            >Fearful</p>
                            <div style=""width:480px; margin: auto;"">
                                <img src=""images/14_fearful_hi_hi_3_tab10new_decend_smlg_bar.png"" width=""480"" height=""420"" style=""object-fit:contain;"">
                            </div>
                        </div>","-38","html-slider-response",20,160183,"0.0-16.0","reloj9c0rj",13,"","","","","","",0,"",NA,"","Fearful","images/14_fearful_hi_hi_3_tab10new_decend_smlg_bar.png",NA,NA
NA,"<div style=""width:500px;"">
                            <p style=""font-size:50px; font-weight:bold;""
                            >Fearful</p>
                            <div style=""width:480px; margin: auto;"">
                                <img src=""images/14_fearful_hi_lo_1_tab20_decend_smlg_bar.png"" width=""480"" height=""420"" style=""object-fit:contain;"">
                            </div>
                        </div>","-33","html-slider-response",21,163401,"0.0-17.0","reloj9c0rj",13,"","","","","","",0,"",NA,"","Fearful","images/14_fearful_hi_lo_1_tab20_decend_smlg_bar.png",NA,NA
NA,"<div style=""width:500px;"">
                            <p style=""font-size:50px; font-weight:bold;""
                            >Fearful</p>
                            <div style=""width:480px; margin: auto;"">
                                <img src=""images/14_fearful_lo_lo_2_Set3_ascend_lgsm_bar.png"" width=""480"" height=""420"" style=""object-fit:contain;"">
                            </div>
                        </div>","-187","html-slider-response",22,166934,"0.0-18.0","reloj9c0rj",13,"","","","","","",0,"",NA,"","Fearful","images/14_fearful_lo_lo_2_Set3_ascend_lgsm_bar.png",NA,NA
NA,"<div style=""width:500px;"">
                            <p style=""font-size:50px; font-weight:bold;""
                            >Fearful</p>
                            <div style=""width:480px; margin: auto;"">
                                <img src=""images/14_fearful_med_lo_2_Set3_ascend_smlg_bar.png"" width=""480"" height=""420"" style=""object-fit:contain;"">
                            </div>
                        </div>","-182","html-slider-response",23,169798,"0.0-19.0","reloj9c0rj",13,"","","","","","",0,"",NA,"","Fearful","images/14_fearful_med_lo_2_Set3_ascend_smlg_bar.png",NA,NA
NA,"<div style=""width:500px;"">
                            <p style=""font-size:50px; font-weight:bold;""
                            >Fearful</p>
                            <div style=""width:480px; margin: auto;"">
                                <img src=""images/14_fearful_hi_lo_1_tab20_ascend_lgsm_bar.png"" width=""480"" height=""420"" style=""object-fit:contain;"">
                            </div>
                        </div>","-2","html-slider-response",24,172216,"0.0-20.0","reloj9c0rj",13,"","","","","","",0,"",NA,"","Fearful","images/14_fearful_hi_lo_1_tab20_ascend_lgsm_bar.png",NA,NA
NA,"<div style=""width:500px;"">
                            <p style=""font-size:50px; font-weight:bold;""
                            >Fearful</p>
                            <div style=""width:480px; margin: auto;"">
                                <img src=""images/14_fearful_hi_md_1_tab20b_decend_smlg_bar.png"" width=""480"" height=""420"" style=""object-fit:contain;"">
                            </div>
                        </div>","24","html-slider-response",25,175185,"0.0-21.0","reloj9c0rj",13,"","","","","","",0,"",NA,"","Fearful","images/14_fearful_hi_md_1_tab20b_decend_smlg_bar.png",NA,NA
NA,"<div style=""width:500px;"">
                            <p style=""font-size:50px; font-weight:bold;""
                            >Fearful</p>
                            <div style=""width:480px; margin: auto;"">
                                <img src=""images/14_fearful_hi_hi_3_tab10new_decend_lgsm_bar.png"" width=""480"" height=""420"" style=""object-fit:contain;"">
                            </div>
                        </div>","24","html-slider-response",26,176849,"0.0-22.0","reloj9c0rj",13,"","","","","","",0,"",NA,"","Fearful","images/14_fearful_hi_hi_3_tab10new_decend_lgsm_bar.png",NA,NA
NA,"<div style=""width:500px;"">
                            <p style=""font-size:50px; font-weight:bold;""
                            >Fearful</p>
                            <div style=""width:480px; margin: auto;"">
                                <img src=""images/14_fearful_hi_hi_3_tab10new_ascend_smlg_bar.png"" width=""480"" height=""420"" style=""object-fit:contain;"">
                            </div>
                        </div>","30","html-slider-response",27,178749,"0.0-23.0","reloj9c0rj",13,"","","","","","",0,"",NA,"","Fearful","images/14_fearful_hi_hi_3_tab10new_ascend_smlg_bar.png",NA,NA
NA,"<div style=""width:500px;"">
                            <p style=""font-size:50px; font-weight:bold;""
                            >Fearful</p>
                            <div style=""width:480px; margin: auto;"">
                                <img src=""images/14_fearful_hi_hi_2_tab20_decend_lgsm_bar.png"" width=""480"" height=""420"" style=""object-fit:contain;"">
                            </div>
                        </div>","12","html-slider-response",28,181900,"0.0-24.0","reloj9c0rj",13,"","","","","","",0,"",NA,"","Fearful","images/14_fearful_hi_hi_2_tab20_decend_lgsm_bar.png",NA,NA
NA,"<div style=""width:500px;"">
                            <p style=""font-size:50px; font-weight:bold;""
                            >Fearful</p>
                            <div style=""width:480px; margin: auto;"">
                                <img src=""images/14_fearful_med_lo_3_tab20_decend_lgsm_bar.png"" width=""480"" height=""420"" style=""object-fit:contain;"">
                            </div>
                        </div>","-69","html-slider-response",29,184465,"0.0-25.0","reloj9c0rj",13,"","","","","","",0,"",NA,"","Fearful","images/14_fearful_med_lo_3_tab20_decend_lgsm_bar.png",NA,NA
NA,"<div style=""width:500px;"">
                            <p style=""font-size:50px; font-weight:bold;""
                            >Fearful</p>
                            <div style=""width:480px; margin: auto;"">
                                <img src=""images/14_fearful_hi_md_3_tab20_decend_smlg_bar.png"" width=""480"" height=""420"" style=""object-fit:contain;"">
                            </div>
                        </div>","-30","html-slider-response",30,187899,"0.0-26.0","reloj9c0rj",13,"","","","","","",0,"",NA,"","Fearful","images/14_fearful_hi_md_3_tab20_decend_smlg_bar.png",NA,NA
NA,"<div style=""width:500px;"">
                            <p style=""font-size:50px; font-weight:bold;""
                            >Fearful</p>
                            <div style=""width:480px; margin: auto;"">
                                <img src=""images/14_fearful_med_med_3_tab20b_decend_lgsm_bar.png"" width=""480"" height=""420"" style=""object-fit:contain;"">
                            </div>
                        </div>","-24","html-slider-response",31,190682,"0.0-27.0","reloj9c0rj",13,"","","","","","",0,"",NA,"","Fearful","images/14_fearful_med_med_3_tab20b_decend_lgsm_bar.png",NA,NA
NA,"<div style=""width:500px;"">
                            <p style=""font-size:50px; font-weight:bold;""
                            >Fearful</p>
                            <div style=""width:480px; margin: auto;"">
                                <img src=""images/14_fearful_hi_lo_3_Accent_ascend_lgsm_bar.png"" width=""480"" height=""420"" style=""object-fit:contain;"">
                            </div>
                        </div>","1","html-slider-response",32,194131,"0.0-28.0","reloj9c0rj",13,"","","","","","",0,"",NA,"","Fearful","images/14_fearful_hi_lo_3_Accent_ascend_lgsm_bar.png",NA,NA
NA,"<div style=""width:500px;"">
                            <p style=""font-size:50px; font-weight:bold;""
                            >Fearful</p>
                            <div style=""width:480px; margin: auto;"">
                                <img src=""images/14_fearful_hi_md_2_tab10new_decend_lgsm_bar.png"" width=""480"" height=""420"" style=""object-fit:contain;"">
                            </div>
                        </div>","19","html-slider-response",33,196432,"0.0-29.0","reloj9c0rj",13,"","","","","","",0,"",NA,"","Fearful","images/14_fearful_hi_md_2_tab10new_decend_lgsm_bar.png",NA,NA
NA,"<div style=""width:500px;"">
                            <p style=""font-size:50px; font-weight:bold;""
                            >Fearful</p>
                            <div style=""width:480px; margin: auto;"">
                                <img src=""images/14_fearful_hi_hi_2_tab20_decend_smlg_bar.png"" width=""480"" height=""420"" style=""object-fit:contain;"">
                            </div>
                        </div>","114","html-slider-response",34,198918,"0.0-30.0","reloj9c0rj",13,"","","","","","",0,"",NA,"","Fearful","images/14_fearful_hi_hi_2_tab20_decend_smlg_bar.png",NA,NA
NA,"<div style=""width:500px;"">
                            <p style=""font-size:50px; font-weight:bold;""
                            >Fearful</p>
                            <div style=""width:480px; margin: auto;"">
                                <img src=""images/14_fearful_med_lo_2_Set3_ascend_lgsm_bar.png"" width=""480"" height=""420"" style=""object-fit:contain;"">
                            </div>
                        </div>","-125","html-slider-response",35,201015,"0.0-31.0","reloj9c0rj",13,"","","","","","",0,"",NA,"","Fearful","images/14_fearful_med_lo_2_Set3_ascend_lgsm_bar.png",NA,NA
NA,"<div style=""width:500px;"">
                            <p style=""font-size:50px; font-weight:bold;""
                            >Fearful</p>
                            <div style=""width:480px; margin: auto;"">
                                <img src=""images/14_fearful_hi_md_3_tab20_ascend_lgsm_bar.png"" width=""480"" height=""420"" style=""object-fit:contain;"">
                            </div>
                        </div>","54","html-slider-response",36,204099,"0.0-32.0","reloj9c0rj",13,"","","","","","",0,"",NA,"","Fearful","images/14_fearful_hi_md_3_tab20_ascend_lgsm_bar.png",NA,NA
NA,"<div style=""width:500px;"">
                            <p style=""font-size:50px; font-weight:bold;""
                            >Fearful</p>
                            <div style=""width:480px; margin: auto;"">
                                <img src=""images/14_fearful_hi_md_2_tab10new_decend_smlg_bar.png"" width=""480"" height=""420"" style=""object-fit:contain;"">
                            </div>
                        </div>","110","html-slider-response",37,208333,"0.0-33.0","reloj9c0rj",13,"","","","","","",0,"",NA,"","Fearful","images/14_fearful_hi_md_2_tab10new_decend_smlg_bar.png",NA,NA
NA,"<div style=""width:500px;"">
                            <p style=""font-size:50px; font-weight:bold;""
                            >Fearful</p>
                            <div style=""width:480px; margin: auto;"">
                                <img src=""images/14_fearful_med_med_2_tab20_decend_smlg_bar.png"" width=""480"" height=""420"" style=""object-fit:contain;"">
                            </div>
                        </div>","-166","html-slider-response",38,210965,"0.0-34.0","reloj9c0rj",13,"","","","","","",0,"",NA,"","Fearful","images/14_fearful_med_med_2_tab20_decend_smlg_bar.png",NA,NA
NA,"<div style=""width:500px;"">
                            <p style=""font-size:50px; font-weight:bold;""
                            >Fearful</p>
                            <div style=""width:480px; margin: auto;"">
                                <img src=""images/14_fearful_lo_lo_3_tab20c_ascend_smlg_bar.png"" width=""480"" height=""420"" style=""object-fit:contain;"">
                            </div>
                        </div>","-107","html-slider-response",39,213201,"0.0-35.0","reloj9c0rj",13,"","","","","","",0,"",NA,"","Fearful","images/14_fearful_lo_lo_3_tab20c_ascend_smlg_bar.png",NA,NA
NA,"<div style=""width:500px;"">
                            <p style=""font-size:50px; font-weight:bold;""
                            >Fearful</p>
                            <div style=""width:480px; margin: auto;"">
                                <img src=""images/14_fearful_med_lo_1_Pastel1_decend_smlg_bar.png"" width=""480"" height=""420"" style=""object-fit:contain;"">
                            </div>
                        </div>","-93","html-slider-response",40,215799,"0.0-36.0","reloj9c0rj",13,"","","","","","",0,"",NA,"","Fearful","images/14_fearful_med_lo_1_Pastel1_decend_smlg_bar.png",NA,NA
NA,"<div style=""width:500px;"">
                            <p style=""font-size:50px; font-weight:bold;""
                            >Fearful</p>
                            <div style=""width:480px; margin: auto;"">
                                <img src=""images/14_fearful_lo_lo_1_Pastel1_decend_smlg_bar.png"" width=""480"" height=""420"" style=""object-fit:contain;"">
                            </div>
                        </div>","-96","html-slider-response",41,217883,"0.0-37.0","reloj9c0rj",13,"","","","","","",0,"",NA,"","Fearful","images/14_fearful_lo_lo_1_Pastel1_decend_smlg_bar.png",NA,NA
NA,"<div style=""width:500px;"">
                            <p style=""font-size:50px; font-weight:bold;""
                            >Fearful</p>
                            <div style=""width:480px; margin: auto;"">
                                <img src=""images/14_fearful_med_lo_3_tab20_ascend_smlg_bar.png"" width=""480"" height=""420"" style=""object-fit:contain;"">
                            </div>
                        </div>","-2","html-slider-response",42,220016,"0.0-38.0","reloj9c0rj",13,"","","","","","",0,"",NA,"","Fearful","images/14_fearful_med_lo_3_tab20_ascend_smlg_bar.png",NA,NA
NA,"<div style=""width:500px;"">
                            <p style=""font-size:50px; font-weight:bold;""
                            >Fearful</p>
                            <div style=""width:480px; margin: auto;"">
                                <img src=""images/14_fearful_lo_lo_3_tab20c_decend_lgsm_bar.png"" width=""480"" height=""420"" style=""object-fit:contain;"">
                            </div>
                        </div>","-86","html-slider-response",43,222532,"0.0-39.0","reloj9c0rj",13,"","","","","","",0,"",NA,"","Fearful","images/14_fearful_lo_lo_3_tab20c_decend_lgsm_bar.png",NA,NA
NA,"<div style=""width:500px;"">
                            <p style=""font-size:50px; font-weight:bold;""
                            >Fearful</p>
                            <div style=""width:480px; margin: auto;"">
                                <img src=""images/14_fearful_med_med_2_tab20_decend_lgsm_bar.png"" width=""480"" height=""420"" style=""object-fit:contain;"">
                            </div>
                        </div>","-90","html-slider-response",44,224715,"0.0-40.0","reloj9c0rj",13,"","","","","","",0,"",NA,"","Fearful","images/14_fearful_med_med_2_tab20_decend_lgsm_bar.png",NA,NA
NA,"<div style=""width:500px;"">
                            <p style=""font-size:50px; font-weight:bold;""
                            >Fearful</p>
                            <div style=""width:480px; margin: auto;"">
                                <img src=""images/14_fearful_lo_lo_3_tab20c_decend_smlg_bar.png"" width=""480"" height=""420"" style=""object-fit:contain;"">
                            </div>
                        </div>","-126","html-slider-response",45,227215,"0.0-41.0","reloj9c0rj",13,"","","","","","",0,"",NA,"","Fearful","images/14_fearful_lo_lo_3_tab20c_decend_smlg_bar.png",NA,NA
NA,"<div style=""width:500px;"">
                            <p style=""font-size:50px; font-weight:bold;""
                            >Fearful</p>
                            <div style=""width:480px; margin: auto;"">
                                <img src=""images/14_fearful_hi_hi_1_tab20b_decend_smlg_bar.png"" width=""480"" height=""420"" style=""object-fit:contain;"">
                            </div>
                        </div>","87","html-slider-response",46,229430,"0.0-42.0","reloj9c0rj",13,"","","","","","",0,"",NA,"","Fearful","images/14_fearful_hi_hi_1_tab20b_decend_smlg_bar.png",NA,NA
NA,"<div style=""width:500px;"">
                            <p style=""font-size:50px; font-weight:bold;""
                            >Fearful</p>
                            <div style=""width:480px; margin: auto;"">
                                <img src=""images/14_fearful_hi_lo_2_tab20b_ascend_smlg_bar.png"" width=""480"" height=""420"" style=""object-fit:contain;"">
                            </div>
                        </div>","37","html-slider-response",47,231565,"0.0-43.0","reloj9c0rj",13,"","","","","","",0,"",NA,"","Fearful","images/14_fearful_hi_lo_2_tab20b_ascend_smlg_bar.png",NA,NA
NA,"<div style=""width:500px;"">
                            <p style=""font-size:50px; font-weight:bold;""
                            >Fearful</p>
                            <div style=""width:480px; margin: auto;"">
                                <img src=""images/14_fearful_hi_lo_2_tab20b_ascend_lgsm_bar.png"" width=""480"" height=""420"" style=""object-fit:contain;"">
                            </div>
                        </div>","34","html-slider-response",48,234015,"0.0-44.0","reloj9c0rj",13,"","","","","","",0,"",NA,"","Fearful","images/14_fearful_hi_lo_2_tab20b_ascend_lgsm_bar.png",NA,NA
NA,"<div style=""width:500px;"">
                            <p style=""font-size:50px; font-weight:bold;""
                            >Fearful</p>
                            <div style=""width:480px; margin: auto;"">
                                <img src=""images/14_fearful_med_lo_2_Set3_decend_smlg_bar.png"" width=""480"" height=""420"" style=""object-fit:contain;"">
                            </div>
                        </div>","-147","html-slider-response",49,238833,"0.0-45.0","reloj9c0rj",13,"","","","","","",0,"",NA,"","Fearful","images/14_fearful_med_lo_2_Set3_decend_smlg_bar.png",NA,NA
NA,"<div style=""width:500px;"">
                            <p style=""font-size:50px; font-weight:bold;""
                            >Fearful</p>
                            <div style=""width:480px; margin: auto;"">
                                <img src=""images/14_fearful_lo_lo_2_Set3_decend_smlg_bar.png"" width=""480"" height=""420"" style=""object-fit:contain;"">
                            </div>
                        </div>","-130","html-slider-response",50,240615,"0.0-46.0","reloj9c0rj",13,"","","","","","",0,"",NA,"","Fearful","images/14_fearful_lo_lo_2_Set3_decend_smlg_bar.png",NA,NA
NA,"<div style=""width:500px;"">
                            <p style=""font-size:50px; font-weight:bold;""
                            >Fearful</p>
                            <div style=""width:480px; margin: auto;"">
                                <img src=""images/14_fearful_lo_lo_2_Set3_decend_lgsm_bar.png"" width=""480"" height=""420"" style=""object-fit:contain;"">
                            </div>
                        </div>","-113","html-slider-response",51,242348,"0.0-47.0","reloj9c0rj",13,"","","","","","",0,"",NA,"","Fearful","images/14_fearful_lo_lo_2_Set3_decend_lgsm_bar.png",NA,NA
NA,"<div style=""width:500px;"">
                            <p style=""font-size:50px; font-weight:bold;""
                            >Fearful</p>
                            <div style=""width:480px; margin: auto;"">
                                <img src=""images/14_fearful_hi_lo_2_tab20b_decend_lgsm_bar.png"" width=""480"" height=""420"" style=""object-fit:contain;"">
                            </div>
                        </div>","34","html-slider-response",52,245014,"0.0-48.0","reloj9c0rj",13,"","","","","","",0,"",NA,"","Fearful","images/14_fearful_hi_lo_2_tab20b_decend_lgsm_bar.png",NA,NA
NA,"<div style=""width:500px;"">
                            <p style=""font-size:50px; font-weight:bold;""
                            >Fearful</p>
                            <div style=""width:480px; margin: auto;"">
                                <img src=""images/14_fearful_hi_hi_2_tab20_ascend_smlg_bar.png"" width=""480"" height=""420"" style=""object-fit:contain;"">
                            </div>
                        </div>","33","html-slider-response",53,248149,"0.0-49.0","reloj9c0rj",13,"","","","","","",0,"",NA,"","Fearful","images/14_fearful_hi_hi_2_tab20_ascend_smlg_bar.png",NA,NA
NA,"<div style=""width:500px;"">
                            <p style=""font-size:50px; font-weight:bold;""
                            >Fearful</p>
                            <div style=""width:480px; margin: auto;"">
                                <img src=""images/14_fearful_hi_hi_1_tab20b_ascend_smlg_bar.png"" width=""480"" height=""420"" style=""object-fit:contain;"">
                            </div>
                        </div>","46","html-slider-response",54,249949,"0.0-50.0","reloj9c0rj",13,"","","","","","",0,"",NA,"","Fearful","images/14_fearful_hi_hi_1_tab20b_ascend_smlg_bar.png",NA,NA
NA,"<div style=""width:500px;"">
                            <p style=""font-size:50px; font-weight:bold;""
                            >Fearful</p>
                            <div style=""width:480px; margin: auto;"">
                                <img src=""images/14_fearful_med_med_2_tab20_ascend_smlg_bar.png"" width=""480"" height=""420"" style=""object-fit:contain;"">
                            </div>
                        </div>","-58","html-slider-response",55,252433,"0.0-51.0","reloj9c0rj",13,"","","","","","",0,"",NA,"","Fearful","images/14_fearful_med_med_2_tab20_ascend_smlg_bar.png",NA,NA
NA,"<div style=""width:500px;"">
                            <p style=""font-size:50px; font-weight:bold;""
                            >Fearful</p>
                            <div style=""width:480px; margin: auto;"">
                                <img src=""images/14_fearful_hi_lo_3_Accent_decend_smlg_bar.png"" width=""480"" height=""420"" style=""object-fit:contain;"">
                            </div>
                        </div>","58","html-slider-response",56,254849,"0.0-52.0","reloj9c0rj",13,"","","","","","",0,"",NA,"","Fearful","images/14_fearful_hi_lo_3_Accent_decend_smlg_bar.png",NA,NA
NA,"<div style=""width:500px;"">
                            <p style=""font-size:50px; font-weight:bold;""
                            >Fearful</p>
                            <div style=""width:480px; margin: auto;"">
                                <img src=""images/14_fearful_hi_md_1_tab20b_ascend_smlg_bar.png"" width=""480"" height=""420"" style=""object-fit:contain;"">
                            </div>
                        </div>","37","html-slider-response",57,257031,"0.0-53.0","reloj9c0rj",13,"","","","","","",0,"",NA,"","Fearful","images/14_fearful_hi_md_1_tab20b_ascend_smlg_bar.png",NA,NA
NA,"<div style=""width:500px;"">
                            <p style=""font-size:50px; font-weight:bold;""
                            >Fearful</p>
                            <div style=""width:480px; margin: auto;"">
                                <img src=""images/14_fearful_med_lo_2_Set3_decend_lgsm_bar.png"" width=""480"" height=""420"" style=""object-fit:contain;"">
                            </div>
                        </div>","-82","html-slider-response",58,259047,"0.0-54.0","reloj9c0rj",13,"","","","","","",0,"",NA,"","Fearful","images/14_fearful_med_lo_2_Set3_decend_lgsm_bar.png",NA,NA
NA,"<div style=""width:500px;"">
                            <p style=""font-size:50px; font-weight:bold;""
                            >Fearful</p>
                            <div style=""width:480px; margin: auto;"">
                                <img src=""images/14_fearful_hi_hi_2_tab20_ascend_lgsm_bar.png"" width=""480"" height=""420"" style=""object-fit:contain;"">
                            </div>
                        </div>","49","html-slider-response",59,261031,"0.0-55.0","reloj9c0rj",13,"","","","","","",0,"",NA,"","Fearful","images/14_fearful_hi_hi_2_tab20_ascend_lgsm_bar.png",NA,NA
NA,"<div style=""width:500px;"">
                            <p style=""font-size:50px; font-weight:bold;""
                            >Fearful</p>
                            <div style=""width:480px; margin: auto;"">
                                <img src=""images/14_fearful_hi_lo_3_Accent_ascend_smlg_bar.png"" width=""480"" height=""420"" style=""object-fit:contain;"">
                            </div>
                        </div>","32","html-slider-response",60,263031,"0.0-56.0","reloj9c0rj",13,"","","","","","",0,"",NA,"","Fearful","images/14_fearful_hi_lo_3_Accent_ascend_smlg_bar.png",NA,NA
NA,"<div style=""width:500px;"">
                            <p style=""font-size:50px; font-weight:bold;""
                            >Fearful</p>
                            <div style=""width:480px; margin: auto;"">
                                <img src=""images/14_fearful_hi_md_3_tab20_decend_lgsm_bar.png"" width=""480"" height=""420"" style=""object-fit:contain;"">
                            </div>
                        </div>","0","html-slider-response",61,265682,"0.0-57.0","reloj9c0rj",13,"","","","","","",0,"",NA,"","Fearful","images/14_fearful_hi_md_3_tab20_decend_lgsm_bar.png",NA,NA
NA,"<div style=""width:500px;"">
                            <p style=""font-size:50px; font-weight:bold;""
                            >Fearful</p>
                            <div style=""width:480px; margin: auto;"">
                                <img src=""images/14_fearful_lo_lo_1_Pastel1_ascend_smlg_bar.png"" width=""480"" height=""420"" style=""object-fit:contain;"">
                            </div>
                        </div>","-133","html-slider-response",62,267715,"0.0-58.0","reloj9c0rj",13,"","","","","","",0,"",NA,"","Fearful","images/14_fearful_lo_lo_1_Pastel1_ascend_smlg_bar.png",NA,NA
NA,"<div style=""width:500px;"">
                            <p style=""font-size:50px; font-weight:bold;""
                            >Fearful</p>
                            <div style=""width:480px; margin: auto;"">
                                <img src=""images/14_fearful_med_lo_1_Pastel1_decend_lgsm_bar.png"" width=""480"" height=""420"" style=""object-fit:contain;"">
                            </div>
                        </div>","-71","html-slider-response",63,269951,"0.0-59.0","reloj9c0rj",13,"","","","","","",0,"",NA,"","Fearful","images/14_fearful_med_lo_1_Pastel1_decend_lgsm_bar.png",NA,NA
NA,"<div style=""width:500px;"">
                            <p style=""font-size:50px; font-weight:bold;""
                            >Fearful</p>
                            <div style=""width:480px; margin: auto;"">
                                <img src=""images/14_fearful_lo_lo_1_Pastel1_ascend_lgsm_bar.png"" width=""480"" height=""420"" style=""object-fit:contain;"">
                            </div>
                        </div>","-115","html-slider-response",64,271698,"0.0-60.0","reloj9c0rj",13,"","","","","","",0,"",NA,"","Fearful","images/14_fearful_lo_lo_1_Pastel1_ascend_lgsm_bar.png",NA,NA
NA,"<div style=""width:500px;"">
                            <p style=""font-size:50px; font-weight:bold;""
                            >Fearful</p>
                            <div style=""width:480px; margin: auto;"">
                                <img src=""images/14_fearful_hi_hi_3_tab10new_ascend_lgsm_bar.png"" width=""480"" height=""420"" style=""object-fit:contain;"">
                            </div>
                        </div>","10","html-slider-response",65,274048,"0.0-61.0","reloj9c0rj",13,"","","","","","",0,"",NA,"","Fearful","images/14_fearful_hi_hi_3_tab10new_ascend_lgsm_bar.png",NA,NA
NA,"<div style=""width:500px;"">
                            <p style=""font-size:50px; font-weight:bold;""
                            >Fearful</p>
                            <div style=""width:480px; margin: auto;"">
                                <img src=""images/14_fearful_med_lo_1_Pastel1_ascend_lgsm_bar.png"" width=""480"" height=""420"" style=""object-fit:contain;"">
                            </div>
                        </div>","-50","html-slider-response",66,276231,"0.0-62.0","reloj9c0rj",13,"","","","","","",0,"",NA,"","Fearful","images/14_fearful_med_lo_1_Pastel1_ascend_lgsm_bar.png",NA,NA
NA,"<div style=""width:500px;"">
                            <p style=""font-size:50px; font-weight:bold;""
                            >Fearful</p>
                            <div style=""width:480px; margin: auto;"">
                                <img src=""images/14_fearful_med_med_3_tab20b_ascend_lgsm_bar.png"" width=""480"" height=""420"" style=""object-fit:contain;"">
                            </div>
                        </div>","13","html-slider-response",67,278865,"0.0-63.0","reloj9c0rj",13,"","","","","","",0,"",NA,"","Fearful","images/14_fearful_med_med_3_tab20b_ascend_lgsm_bar.png",NA,NA
NA,"<div style=""width:500px;"">
                            <p style=""font-size:50px; font-weight:bold;""
                            >Fearful</p>
                            <div style=""width:480px; margin: auto;"">
                                <img src=""images/14_fearful_hi_lo_2_tab20b_decend_smlg_bar.png"" width=""480"" height=""420"" style=""object-fit:contain;"">
                            </div>
                        </div>","32","html-slider-response",68,280982,"0.0-64.0","reloj9c0rj",13,"","","","","","",0,"",NA,"","Fearful","images/14_fearful_hi_lo_2_tab20b_decend_smlg_bar.png",NA,NA
NA,"<div style=""width:500px;"">
                            <p style=""font-size:50px; font-weight:bold;""
                            >Fearful</p>
                            <div style=""width:480px; margin: auto;"">
                                <img src=""images/14_fearful_med_lo_3_tab20_ascend_lgsm_bar.png"" width=""480"" height=""420"" style=""object-fit:contain;"">
                            </div>
                        </div>","-6","html-slider-response",69,282948,"0.0-65.0","reloj9c0rj",13,"","","","","","",0,"",NA,"","Fearful","images/14_fearful_med_lo_3_tab20_ascend_lgsm_bar.png",NA,NA
NA,"<div style=""width:500px;"">
                            <p style=""font-size:50px; font-weight:bold;""
                            >Fearful</p>
                            <div style=""width:480px; margin: auto;"">
                                <img src=""images/14_fearful_lo_lo_2_Set3_ascend_smlg_bar.png"" width=""480"" height=""420"" style=""object-fit:contain;"">
                            </div>
                        </div>","-4","html-slider-response",70,285214,"0.0-66.0","reloj9c0rj",13,"","","","","","",0,"",NA,"","Fearful","images/14_fearful_lo_lo_2_Set3_ascend_smlg_bar.png",NA,NA
NA,"<div style=""width:500px;"">
                            <p style=""font-size:50px; font-weight:bold;""
                            >Fearful</p>
                            <div style=""width:480px; margin: auto;"">
                                <img src=""images/14_fearful_med_lo_1_Pastel1_ascend_smlg_bar.png"" width=""480"" height=""420"" style=""object-fit:contain;"">
                            </div>
                        </div>","-42","html-slider-response",71,287181,"0.0-67.0","reloj9c0rj",13,"","","","","","",0,"",NA,"","Fearful","images/14_fearful_med_lo_1_Pastel1_ascend_smlg_bar.png",NA,NA
NA,"<div style=""width:500px;"">
                            <p style=""font-size:50px; font-weight:bold;""
                            >Fearful</p>
                            <div style=""width:480px; margin: auto;"">
                                <img src=""images/14_fearful_med_med_2_tab20_ascend_lgsm_bar.png"" width=""480"" height=""420"" style=""object-fit:contain;"">
                            </div>
                        </div>","-60","html-slider-response",72,289198,"0.0-68.0","reloj9c0rj",13,"","","","","","",0,"",NA,"","Fearful","images/14_fearful_med_med_2_tab20_ascend_lgsm_bar.png",NA,NA
NA,"<div style=""width:500px;"">
                            <p style=""font-size:50px; font-weight:bold;""
                            >Fearful</p>
                            <div style=""width:480px; margin: auto;"">
                                <img src=""images/14_fearful_lo_lo_1_Pastel1_decend_lgsm_bar.png"" width=""480"" height=""420"" style=""object-fit:contain;"">
                            </div>
                        </div>","-130","html-slider-response",73,291281,"0.0-69.0","reloj9c0rj",13,"","","","","","",0,"",NA,"","Fearful","images/14_fearful_lo_lo_1_Pastel1_decend_lgsm_bar.png",NA,NA
NA,"<div style=""width:500px;"">
                            <p style=""font-size:50px; font-weight:bold;""
                            >Fearful</p>
                            <div style=""width:480px; margin: auto;"">
                                <img src=""images/14_fearful_hi_hi_1_tab20b_decend_lgsm_bar.png"" width=""480"" height=""420"" style=""object-fit:contain;"">
                            </div>
                        </div>","72","html-slider-response",74,293365,"0.0-70.0","reloj9c0rj",13,"","","","","","",0,"",NA,"","Fearful","images/14_fearful_hi_hi_1_tab20b_decend_lgsm_bar.png",NA,NA
NA,"<div style=""width:500px;"">
                            <p style=""font-size:50px; font-weight:bold;""
                            >Fearful</p>
                            <div style=""width:480px; margin: auto;"">
                                <img src=""images/14_fearful_med_med_3_tab20b_ascend_smlg_bar.png"" width=""480"" height=""420"" style=""object-fit:contain;"">
                            </div>
                        </div>","5","html-slider-response",75,295383,"0.0-71.0","reloj9c0rj",13,"","","","","","",0,"",NA,"","Fearful","images/14_fearful_med_med_3_tab20b_ascend_smlg_bar.png",NA,NA
NA,"<div style=""width:500px;"">
                            <p style=""font-size:50px; font-weight:bold;""
                            >Fearful</p>
                            <div style=""width:480px; margin: auto;"">
                                <img src=""images/14_fearful_med_med_1_tab20c_ascend_smlg_bar.png"" width=""480"" height=""420"" style=""object-fit:contain;"">
                            </div>
                        </div>","54","html-slider-response",76,297598,"0.0-72.0","reloj9c0rj",13,"","","","","","",0,"",NA,"","Fearful","images/14_fearful_med_med_1_tab20c_ascend_smlg_bar.png",NA,NA
NA,"<div style=""width:500px;"">
                            <p style=""font-size:50px; font-weight:bold;""
                            >Fearful</p>
                            <div style=""width:480px; margin: auto;"">
                                <img src=""images/14_fearful_hi_lo_1_tab20_ascend_smlg_bar.png"" width=""480"" height=""420"" style=""object-fit:contain;"">
                            </div>
                        </div>","52","html-slider-response",77,299597,"0.0-73.0","reloj9c0rj",13,"","","","","","",0,"",NA,"","Fearful","images/14_fearful_hi_lo_1_tab20_ascend_smlg_bar.png",NA,NA
NA,"<div style=""width:500px;"">
                            <p style=""font-size:50px; font-weight:bold;""
                            >Fearful</p>
                            <div style=""width:480px; margin: auto;"">
                                <img src=""images/14_fearful_hi_md_1_tab20b_ascend_lgsm_bar.png"" width=""480"" height=""420"" style=""object-fit:contain;"">
                            </div>
                        </div>","26","html-slider-response",78,301499,"0.0-74.0","reloj9c0rj",13,"","","","","","",0,"",NA,"","Fearful","images/14_fearful_hi_md_1_tab20b_ascend_lgsm_bar.png",NA,NA
NA,"<div style=""width:500px;"">
                            <p style=""font-size:50px; font-weight:bold;""
                            >Fearful</p>
                            <div style=""width:480px; margin: auto;"">
                                <img src=""images/14_fearful_med_lo_3_tab20_decend_smlg_bar.png"" width=""480"" height=""420"" style=""object-fit:contain;"">
                            </div>
                        </div>","-51","html-slider-response",79,303615,"0.0-75.0","reloj9c0rj",13,"","","","","","",0,"",NA,"","Fearful","images/14_fearful_med_lo_3_tab20_decend_smlg_bar.png",NA,NA
NA,"<div style=""width:500px;"">
                            <p style=""font-size:50px; font-weight:bold;""
                            >Fearful</p>
                            <div style=""width:480px; margin: auto;"">
                                <img src=""images/14_fearful_med_med_1_tab20c_ascend_lgsm_bar.png"" width=""480"" height=""420"" style=""object-fit:contain;"">
                            </div>
                        </div>","-55","html-slider-response",80,306514,"0.0-76.0","reloj9c0rj",13,"","","","","","",0,"",NA,"","Fearful","images/14_fearful_med_med_1_tab20c_ascend_lgsm_bar.png",NA,NA
NA,"<div style=""width:500px;"">
                            <p style=""font-size:50px; font-weight:bold;""
                            >Fearful</p>
                            <div style=""width:480px; margin: auto;"">
                                <img src=""images/14_fearful_med_med_1_tab20c_decend_lgsm_bar.png"" width=""480"" height=""420"" style=""object-fit:contain;"">
                            </div>
                        </div>","55","html-slider-response",81,308750,"0.0-77.0","reloj9c0rj",13,"","","","","","",0,"",NA,"","Fearful","images/14_fearful_med_med_1_tab20c_decend_lgsm_bar.png",NA,NA
NA,"<div style=""width:500px;"">
                            <p style=""font-size:50px; font-weight:bold;""
                            >Fearful</p>
                            <div style=""width:480px; margin: auto;"">
                                <img src=""images/14_fearful_hi_hi_1_tab20b_ascend_lgsm_bar.png"" width=""480"" height=""420"" style=""object-fit:contain;"">
                            </div>
                        </div>","78","html-slider-response",82,310299,"0.0-78.0","reloj9c0rj",13,"","","","","","",0,"",NA,"","Fearful","images/14_fearful_hi_hi_1_tab20b_ascend_lgsm_bar.png",NA,NA
NA,"<div style=""width:500px;"">
                            <p style=""font-size:50px; font-weight:bold;""
                            >Fearful</p>
                            <div style=""width:480px; margin: auto;"">
                                <img src=""images/14_fearful_med_med_1_tab20c_decend_smlg_bar.png"" width=""480"" height=""420"" style=""object-fit:contain;"">
                            </div>
                        </div>","27","html-slider-response",83,313465,"0.0-79.0","reloj9c0rj",13,"","","","","","",0,"",NA,"","Fearful","images/14_fearful_med_med_1_tab20c_decend_smlg_bar.png",NA,NA
NA,"<div style=""width:500px;"">
                            <p style=""font-size:50px; font-weight:bold;""
                            >Fearful</p>
                            <div style=""width:480px; margin: auto;"">
                                <img src=""images/14_fearful_lo_lo_3_tab20c_ascend_lgsm_bar.png"" width=""480"" height=""420"" style=""object-fit:contain;"">
                            </div>
                        </div>","-147","html-slider-response",84,315533,"0.0-80.0","reloj9c0rj",13,"","","","","","",0,"",NA,"","Fearful","images/14_fearful_lo_lo_3_tab20c_ascend_lgsm_bar.png",NA,NA
NA,"<div style=""width:500px;"">
                            <p style=""font-size:50px; font-weight:bold;""
                            >Fearful</p>
                            <div style=""width:480px; margin: auto;"">
                                <img src=""images/14_fearful_hi_md_1_tab20b_decend_lgsm_bar.png"" width=""480"" height=""420"" style=""object-fit:contain;"">
                            </div>
                        </div>","48","html-slider-response",85,317497,"0.0-81.0","reloj9c0rj",13,"","","","","","",0,"",NA,"","Fearful","images/14_fearful_hi_md_1_tab20b_decend_lgsm_bar.png",NA,NA
NA,"<div style=""width:500px;"">
                            <p style=""font-size:50px; font-weight:bold;""
                            >Fearful</p>
                            <div style=""width:480px; margin: auto;"">
                                <img src=""images/14_fearful_med_med_3_tab20b_decend_smlg_bar.png"" width=""480"" height=""420"" style=""object-fit:contain;"">
                            </div>
                        </div>","36","html-slider-response",86,319398,"0.0-82.0","reloj9c0rj",13,"","","","","","",0,"",NA,"","Fearful","images/14_fearful_med_med_3_tab20b_decend_smlg_bar.png",NA,NA
NA,"<div style=""width:500px;"">
                            <p style=""font-size:50px; font-weight:bold;""
                            >Fearful</p>
                            <div style=""width:480px; margin: auto;"">
                                <img src=""images/14_fearful_hi_lo_3_Accent_decend_lgsm_bar.png"" width=""480"" height=""420"" style=""object-fit:contain;"">
                            </div>
                        </div>","35","html-slider-response",87,321599,"0.0-83.0","reloj9c0rj",13,"","","","","","",0,"",NA,"","Fearful","images/14_fearful_hi_lo_3_Accent_decend_lgsm_bar.png",NA,NA
NA,"<div style=""width:500px;"">
                            <p style=""font-size:50px; font-weight:bold;""
                            >Fearful</p>
                            <div style=""width:480px; margin: auto;"">
                                <img src=""images/14_fearful_hi_md_3_tab20_ascend_smlg_bar.png"" width=""480"" height=""420"" style=""object-fit:contain;"">
                            </div>
                        </div>","10","html-slider-response",88,324316,"0.0-84.0","reloj9c0rj",13,"","","","","","",0,"",NA,"","Fearful","images/14_fearful_hi_md_3_tab20_ascend_smlg_bar.png",NA,NA
NA,"<div style=""width:500px;"">
                            <p style=""font-size:50px; font-weight:bold;""
                            >Fearful</p>
                            <div style=""width:480px; margin: auto;"">
                                <img src=""images/14_fearful_hi_lo_1_tab20_decend_lgsm_bar.png"" width=""480"" height=""420"" style=""object-fit:contain;"">
                            </div>
                        </div>","50","html-slider-response",89,326199,"0.0-85.0","reloj9c0rj",13,"","","","","","",0,"",NA,"","Fearful","images/14_fearful_hi_lo_1_tab20_decend_lgsm_bar.png",NA,NA
2534,"<p>Great Job! You've finished block 1.<br></br> You have 4 block(s) left to go.<br></br></p>","0","html-button-response",90,329236,"0.0-86.0","reloj9c0rj",13,"","","","","","",NA,"",NA,"","","",NA,NA
916,"<p>In this block of trials, you will be asked to rate how much you associate each texture with the concept</p >
                        <p style = 'font-size:150%; font-weight: bold'>Sad</p><br></br>","0","html-button-response",91,330153,"0.0-87.0","reloj9c0rj",13,"","","","","","",NA,"",NA,"","","",NA,NA
NA,"<div style=""width:500px;"">
                            <p style=""font-size:50px; font-weight:bold;""
                            >Sad</p>
                            <div style=""width:480px; margin: auto;"">
                                <img src=""images/14_sad_med_med_3_tab20b_decend_lgsm_bar.png"" width=""480"" height=""420"" style=""object-fit:contain;"">
                            </div>
                        </div>","121","html-slider-response",92,332530,"0.0-88.0","reloj9c0rj",13,"","","","","","",0,"",NA,"","Sad","images/14_sad_med_med_3_tab20b_decend_lgsm_bar.png",NA,NA
NA,"<div style=""width:500px;"">
                            <p style=""font-size:50px; font-weight:bold;""
                            >Sad</p>
                            <div style=""width:480px; margin: auto;"">
                                <img src=""images/14_sad_hi_lo_1_tab20c_decend_lgsm_bar.png"" width=""480"" height=""420"" style=""object-fit:contain;"">
                            </div>
                        </div>","2","html-slider-response",93,335098,"0.0-89.0","reloj9c0rj",13,"","","","","","",0,"",NA,"","Sad","images/14_sad_hi_lo_1_tab20c_decend_lgsm_bar.png",NA,NA
NA,"<div style=""width:500px;"">
                            <p style=""font-size:50px; font-weight:bold;""
                            >Sad</p>
                            <div style=""width:480px; margin: auto;"">
                                <img src=""images/14_sad_hi_lo_1_tab20c_ascend_lgsm_bar.png"" width=""480"" height=""420"" style=""object-fit:contain;"">
                            </div>
                        </div>","2","html-slider-response",94,336648,"0.0-90.0","reloj9c0rj",13,"","","","","","",0,"",NA,"","Sad","images/14_sad_hi_lo_1_tab20c_ascend_lgsm_bar.png",NA,NA
NA,"<div style=""width:500px;"">
                            <p style=""font-size:50px; font-weight:bold;""
                            >Sad</p>
                            <div style=""width:480px; margin: auto;"">
                                <img src=""images/14_sad_hi_lo_2_Set1_ascend_lgsm_bar.png"" width=""480"" height=""420"" style=""object-fit:contain;"">
                            </div>
                        </div>","-53","html-slider-response",95,338849,"0.0-91.0","reloj9c0rj",13,"","","","","","",0,"",NA,"","Sad","images/14_sad_hi_lo_2_Set1_ascend_lgsm_bar.png",NA,NA
NA,"<div style=""width:500px;"">
                            <p style=""font-size:50px; font-weight:bold;""
                            >Sad</p>
                            <div style=""width:480px; margin: auto;"">
                                <img src=""images/14_sad_hi_lo_3_Accent_decend_smlg_bar.png"" width=""480"" height=""420"" style=""object-fit:contain;"">
                            </div>
                        </div>","-53","html-slider-response",96,340750,"0.0-92.0","reloj9c0rj",13,"","","","","","",0,"",NA,"","Sad","images/14_sad_hi_lo_3_Accent_decend_smlg_bar.png",NA,NA
NA,"<div style=""width:500px;"">
                            <p style=""font-size:50px; font-weight:bold;""
                            >Sad</p>
                            <div style=""width:480px; margin: auto;"">
                                <img src=""images/14_sad_hi_hi_3_Set3_decend_smlg_bar.png"" width=""480"" height=""420"" style=""object-fit:contain;"">
                            </div>
                        </div>","2","html-slider-response",97,343482,"0.0-93.0","reloj9c0rj",13,"","","","","","",0,"",NA,"","Sad","images/14_sad_hi_hi_3_Set3_decend_smlg_bar.png",NA,NA
NA,"<div style=""width:500px;"">
                            <p style=""font-size:50px; font-weight:bold;""
                            >Sad</p>
                            <div style=""width:480px; margin: auto;"">
                                <img src=""images/14_sad_hi_hi_2_Paired_ascend_lgsm_bar.png"" width=""480"" height=""420"" style=""object-fit:contain;"">
                            </div>
                        </div>","37","html-slider-response",98,346732,"0.0-94.0","reloj9c0rj",13,"","","","","","",0,"",NA,"","Sad","images/14_sad_hi_hi_2_Paired_ascend_lgsm_bar.png",NA,NA
NA,"<div style=""width:500px;"">
                            <p style=""font-size:50px; font-weight:bold;""
                            >Sad</p>
                            <div style=""width:480px; margin: auto;"">
                                <img src=""images/14_sad_hi_hi_2_Paired_decend_lgsm_bar.png"" width=""480"" height=""420"" style=""object-fit:contain;"">
                            </div>
                        </div>","42","html-slider-response",99,348631,"0.0-95.0","reloj9c0rj",13,"","","","","","",0,"",NA,"","Sad","images/14_sad_hi_hi_2_Paired_decend_lgsm_bar.png",NA,NA
NA,"<div style=""width:500px;"">
                            <p style=""font-size:50px; font-weight:bold;""
                            >Sad</p>
                            <div style=""width:480px; margin: auto;"">
                                <img src=""images/14_sad_hi_lo_1_tab20c_decend_smlg_bar.png"" width=""480"" height=""420"" style=""object-fit:contain;"">
                            </div>
                        </div>","1","html-slider-response",100,350813,"0.0-96.0","reloj9c0rj",13,"","","","","","",0,"",NA,"","Sad","images/14_sad_hi_lo_1_tab20c_decend_smlg_bar.png",NA,NA
NA,"<div style=""width:500px;"">
                            <p style=""font-size:50px; font-weight:bold;""
                            >Sad</p>
                            <div style=""width:480px; margin: auto;"">
                                <img src=""images/14_sad_hi_hi_1_tab20_ascend_lgsm_bar.png"" width=""480"" height=""420"" style=""object-fit:contain;"">
                            </div>
                        </div>","75","html-slider-response",101,352864,"0.0-97.0","reloj9c0rj",13,"","","","","","",0,"",NA,"","Sad","images/14_sad_hi_hi_1_tab20_ascend_lgsm_bar.png",NA,NA
NA,"<div style=""width:500px;"">
                            <p style=""font-size:50px; font-weight:bold;""
                            >Sad</p>
                            <div style=""width:480px; margin: auto;"">
                                <img src=""images/14_sad_med_lo_2_Paired_ascend_smlg_bar.png"" width=""480"" height=""420"" style=""object-fit:contain;"">
                            </div>
                        </div>","-160","html-slider-response",102,355731,"0.0-98.0","reloj9c0rj",13,"","","","","","",0,"",NA,"","Sad","images/14_sad_med_lo_2_Paired_ascend_smlg_bar.png",NA,NA
NA,"<div style=""width:500px;"">
                            <p style=""font-size:50px; font-weight:bold;""
                            >Sad</p>
                            <div style=""width:480px; margin: auto;"">
                                <img src=""images/14_sad_med_med_1_tab20_ascend_lgsm_bar.png"" width=""480"" height=""420"" style=""object-fit:contain;"">
                            </div>
                        </div>","26","html-slider-response",103,358948,"0.0-99.0","reloj9c0rj",13,"","","","","","",0,"",NA,"","Sad","images/14_sad_med_med_1_tab20_ascend_lgsm_bar.png",NA,NA
NA,"<div style=""width:500px;"">
                            <p style=""font-size:50px; font-weight:bold;""
                            >Sad</p>
                            <div style=""width:480px; margin: auto;"">
                                <img src=""images/14_sad_lo_lo_3_tab20_decend_smlg_bar.png"" width=""480"" height=""420"" style=""object-fit:contain;"">
                            </div>
                        </div>","-162","html-slider-response",104,361364,"0.0-100.0","reloj9c0rj",13,"","","","","","",0,"",NA,"","Sad","images/14_sad_lo_lo_3_tab20_decend_smlg_bar.png",NA,NA
NA,"<div style=""width:500px;"">
                            <p style=""font-size:50px; font-weight:bold;""
                            >Sad</p>
                            <div style=""width:480px; margin: auto;"">
                                <img src=""images/14_sad_lo_lo_1_Set1_decend_smlg_bar.png"" width=""480"" height=""420"" style=""object-fit:contain;"">
                            </div>
                        </div>","-196","html-slider-response",105,363532,"0.0-101.0","reloj9c0rj",13,"","","","","","",0,"",NA,"","Sad","images/14_sad_lo_lo_1_Set1_decend_smlg_bar.png",NA,NA
NA,"<div style=""width:500px;"">
                            <p style=""font-size:50px; font-weight:bold;""
                            >Sad</p>
                            <div style=""width:480px; margin: auto;"">
                                <img src=""images/14_sad_hi_hi_2_Paired_decend_smlg_bar.png"" width=""480"" height=""420"" style=""object-fit:contain;"">
                            </div>
                        </div>","59","html-slider-response",106,365981,"0.0-102.0","reloj9c0rj",13,"","","","","","",0,"",NA,"","Sad","images/14_sad_hi_hi_2_Paired_decend_smlg_bar.png",NA,NA
NA,"<div style=""width:500px;"">
                            <p style=""font-size:50px; font-weight:bold;""
                            >Sad</p>
                            <div style=""width:480px; margin: auto;"">
                                <img src=""images/14_sad_med_lo_1_Set1_ascend_smlg_bar.png"" width=""480"" height=""420"" style=""object-fit:contain;"">
                            </div>
                        </div>","-185","html-slider-response",107,368464,"0.0-103.0","reloj9c0rj",13,"","","","","","",0,"",NA,"","Sad","images/14_sad_med_lo_1_Set1_ascend_smlg_bar.png",NA,NA
NA,"<div style=""width:500px;"">
                            <p style=""font-size:50px; font-weight:bold;""
                            >Sad</p>
                            <div style=""width:480px; margin: auto;"">
                                <img src=""images/14_sad_lo_lo_1_Set1_ascend_lgsm_bar.png"" width=""480"" height=""420"" style=""object-fit:contain;"">
                            </div>
                        </div>","-158","html-slider-response",108,370431,"0.0-104.0","reloj9c0rj",13,"","","","","","",0,"",NA,"","Sad","images/14_sad_lo_lo_1_Set1_ascend_lgsm_bar.png",NA,NA
NA,"<div style=""width:500px;"">
                            <p style=""font-size:50px; font-weight:bold;""
                            >Sad</p>
                            <div style=""width:480px; margin: auto;"">
                                <img src=""images/14_sad_med_lo_1_Set1_decend_smlg_bar.png"" width=""480"" height=""420"" style=""object-fit:contain;"">
                            </div>
                        </div>","-86","html-slider-response",109,373300,"0.0-105.0","reloj9c0rj",13,"","","","","","",0,"",NA,"","Sad","images/14_sad_med_lo_1_Set1_decend_smlg_bar.png",NA,NA
NA,"<div style=""width:500px;"">
                            <p style=""font-size:50px; font-weight:bold;""
                            >Sad</p>
                            <div style=""width:480px; margin: auto;"">
                                <img src=""images/14_sad_hi_md_1_tab20_ascend_smlg_bar.png"" width=""480"" height=""420"" style=""object-fit:contain;"">
                            </div>
                        </div>","23","html-slider-response",110,375733,"0.0-106.0","reloj9c0rj",13,"","","","","","",0,"",NA,"","Sad","images/14_sad_hi_md_1_tab20_ascend_smlg_bar.png",NA,NA
NA,"<div style=""width:500px;"">
                            <p style=""font-size:50px; font-weight:bold;""
                            >Sad</p>
                            <div style=""width:480px; margin: auto;"">
                                <img src=""images/14_sad_hi_lo_2_Set1_ascend_smlg_bar.png"" width=""480"" height=""420"" style=""object-fit:contain;"">
                            </div>
                        </div>","-94","html-slider-response",111,377948,"0.0-107.0","reloj9c0rj",13,"","","","","","",0,"",NA,"","Sad","images/14_sad_hi_lo_2_Set1_ascend_smlg_bar.png",NA,NA
NA,"<div style=""width:500px;"">
                            <p style=""font-size:50px; font-weight:bold;""
                            >Sad</p>
                            <div style=""width:480px; margin: auto;"">
                                <img src=""images/14_sad_lo_lo_2_Paired_decend_smlg_bar.png"" width=""480"" height=""420"" style=""object-fit:contain;"">
                            </div>
                        </div>","-178","html-slider-response",112,379848,"0.0-108.0","reloj9c0rj",13,"","","","","","",0,"",NA,"","Sad","images/14_sad_lo_lo_2_Paired_decend_smlg_bar.png",NA,NA
NA,"<div style=""width:500px;"">
                            <p style=""font-size:50px; font-weight:bold;""
                            >Sad</p>
                            <div style=""width:480px; margin: auto;"">
                                <img src=""images/14_sad_hi_lo_1_tab20c_ascend_smlg_bar.png"" width=""480"" height=""420"" style=""object-fit:contain;"">
                            </div>
                        </div>","-166","html-slider-response",113,381865,"0.0-109.0","reloj9c0rj",13,"","","","","","",0,"",NA,"","Sad","images/14_sad_hi_lo_1_tab20c_ascend_smlg_bar.png",NA,NA
NA,"<div style=""width:500px;"">
                            <p style=""font-size:50px; font-weight:bold;""
                            >Sad</p>
                            <div style=""width:480px; margin: auto;"">
                                <img src=""images/14_sad_hi_md_3_Accent_ascend_lgsm_bar.png"" width=""480"" height=""420"" style=""object-fit:contain;"">
                            </div>
                        </div>","10","html-slider-response",114,384182,"0.0-110.0","reloj9c0rj",13,"","","","","","",0,"",NA,"","Sad","images/14_sad_hi_md_3_Accent_ascend_lgsm_bar.png",NA,NA
NA,"<div style=""width:500px;"">
                            <p style=""font-size:50px; font-weight:bold;""
                            >Sad</p>
                            <div style=""width:480px; margin: auto;"">
                                <img src=""images/14_sad_med_lo_1_Set1_ascend_lgsm_bar.png"" width=""480"" height=""420"" style=""object-fit:contain;"">
                            </div>
                        </div>","-163","html-slider-response",115,386148,"0.0-111.0","reloj9c0rj",13,"","","","","","",0,"",NA,"","Sad","images/14_sad_med_lo_1_Set1_ascend_lgsm_bar.png",NA,NA
NA,"<div style=""width:500px;"">
                            <p style=""font-size:50px; font-weight:bold;""
                            >Sad</p>
                            <div style=""width:480px; margin: auto;"">
                                <img src=""images/14_sad_lo_lo_3_tab20_ascend_smlg_bar.png"" width=""480"" height=""420"" style=""object-fit:contain;"">
                            </div>
                        </div>","-130","html-slider-response",116,388465,"0.0-112.0","reloj9c0rj",13,"","","","","","",0,"",NA,"","Sad","images/14_sad_lo_lo_3_tab20_ascend_smlg_bar.png",NA,NA
NA,"<div style=""width:500px;"">
                            <p style=""font-size:50px; font-weight:bold;""
                            >Sad</p>
                            <div style=""width:480px; margin: auto;"">
                                <img src=""images/14_sad_med_med_3_tab20b_decend_smlg_bar.png"" width=""480"" height=""420"" style=""object-fit:contain;"">
                            </div>
                        </div>","79","html-slider-response",117,390931,"0.0-113.0","reloj9c0rj",13,"","","","","","",0,"",NA,"","Sad","images/14_sad_med_med_3_tab20b_decend_smlg_bar.png",NA,NA
NA,"<div style=""width:500px;"">
                            <p style=""font-size:50px; font-weight:bold;""
                            >Sad</p>
                            <div style=""width:480px; margin: auto;"">
                                <img src=""images/14_sad_med_med_2_tab10new_ascend_smlg_bar.png"" width=""480"" height=""420"" style=""object-fit:contain;"">
                            </div>
                        </div>","78","html-slider-response",118,392731,"0.0-114.0","reloj9c0rj",13,"","","","","","",0,"",NA,"","Sad","images/14_sad_med_med_2_tab10new_ascend_smlg_bar.png",NA,NA
NA,"<div style=""width:500px;"">
                            <p style=""font-size:50px; font-weight:bold;""
                            >Sad</p>
                            <div style=""width:480px; margin: auto;"">
                                <img src=""images/14_sad_med_med_1_tab20_ascend_smlg_bar.png"" width=""480"" height=""420"" style=""object-fit:contain;"">
                            </div>
                        </div>","45","html-slider-response",119,394297,"0.0-115.0","reloj9c0rj",13,"","","","","","",0,"",NA,"","Sad","images/14_sad_med_med_1_tab20_ascend_smlg_bar.png",NA,NA
NA,"<div style=""width:500px;"">
                            <p style=""font-size:50px; font-weight:bold;""
                            >Sad</p>
                            <div style=""width:480px; margin: auto;"">
                                <img src=""images/14_sad_hi_hi_2_Paired_ascend_smlg_bar.png"" width=""480"" height=""420"" style=""object-fit:contain;"">
                            </div>
                        </div>","102","html-slider-response",120,396065,"0.0-116.0","reloj9c0rj",13,"","","","","","",0,"",NA,"","Sad","images/14_sad_hi_hi_2_Paired_ascend_smlg_bar.png",NA,NA
NA,"<div style=""width:500px;"">
                            <p style=""font-size:50px; font-weight:bold;""
                            >Sad</p>
                            <div style=""width:480px; margin: auto;"">
                                <img src=""images/14_sad_hi_md_1_tab20_ascend_lgsm_bar.png"" width=""480"" height=""420"" style=""object-fit:contain;"">
                            </div>
                        </div>","10","html-slider-response",121,398048,"0.0-117.0","reloj9c0rj",13,"","","","","","",0,"",NA,"","Sad","images/14_sad_hi_md_1_tab20_ascend_lgsm_bar.png",NA,NA
NA,"<div style=""width:500px;"">
                            <p style=""font-size:50px; font-weight:bold;""
                            >Sad</p>
                            <div style=""width:480px; margin: auto;"">
                                <img src=""images/14_sad_med_lo_3_tab20_decend_smlg_bar.png"" width=""480"" height=""420"" style=""object-fit:contain;"">
                            </div>
                        </div>","-26","html-slider-response",122,400317,"0.0-118.0","reloj9c0rj",13,"","","","","","",0,"",NA,"","Sad","images/14_sad_med_lo_3_tab20_decend_smlg_bar.png",NA,NA
NA,"<div style=""width:500px;"">
                            <p style=""font-size:50px; font-weight:bold;""
                            >Sad</p>
                            <div style=""width:480px; margin: auto;"">
                                <img src=""images/14_sad_hi_lo_3_Accent_decend_lgsm_bar.png"" width=""480"" height=""420"" style=""object-fit:contain;"">
                            </div>
                        </div>","3","html-slider-response",123,402615,"0.0-119.0","reloj9c0rj",13,"","","","","","",0,"",NA,"","Sad","images/14_sad_hi_lo_3_Accent_decend_lgsm_bar.png",NA,NA
NA,"<div style=""width:500px;"">
                            <p style=""font-size:50px; font-weight:bold;""
                            >Sad</p>
                            <div style=""width:480px; margin: auto;"">
                                <img src=""images/14_sad_med_lo_2_Paired_decend_lgsm_bar.png"" width=""480"" height=""420"" style=""object-fit:contain;"">
                            </div>
                        </div>","-54","html-slider-response",124,404582,"0.0-120.0","reloj9c0rj",13,"","","","","","",0,"",NA,"","Sad","images/14_sad_med_lo_2_Paired_decend_lgsm_bar.png",NA,NA
NA,"<div style=""width:500px;"">
                            <p style=""font-size:50px; font-weight:bold;""
                            >Sad</p>
                            <div style=""width:480px; margin: auto;"">
                                <img src=""images/14_sad_hi_lo_2_Set1_decend_smlg_bar.png"" width=""480"" height=""420"" style=""object-fit:contain;"">
                            </div>
                        </div>","-131","html-slider-response",125,407531,"0.0-121.0","reloj9c0rj",13,"","","","","","",0,"",NA,"","Sad","images/14_sad_hi_lo_2_Set1_decend_smlg_bar.png",NA,NA
NA,"<div style=""width:500px;"">
                            <p style=""font-size:50px; font-weight:bold;""
                            >Sad</p>
                            <div style=""width:480px; margin: auto;"">
                                <img src=""images/14_sad_lo_lo_2_Paired_ascend_smlg_bar.png"" width=""480"" height=""420"" style=""object-fit:contain;"">
                            </div>
                        </div>","-161","html-slider-response",126,409130,"0.0-122.0","reloj9c0rj",13,"","","","","","",0,"",NA,"","Sad","images/14_sad_lo_lo_2_Paired_ascend_smlg_bar.png",NA,NA
NA,"<div style=""width:500px;"">
                            <p style=""font-size:50px; font-weight:bold;""
                            >Sad</p>
                            <div style=""width:480px; margin: auto;"">
                                <img src=""images/14_sad_med_med_1_tab20_decend_lgsm_bar.png"" width=""480"" height=""420"" style=""object-fit:contain;"">
                            </div>
                        </div>","15","html-slider-response",127,410947,"0.0-123.0","reloj9c0rj",13,"","","","","","",0,"",NA,"","Sad","images/14_sad_med_med_1_tab20_decend_lgsm_bar.png",NA,NA
NA,"<div style=""width:500px;"">
                            <p style=""font-size:50px; font-weight:bold;""
                            >Sad</p>
                            <div style=""width:480px; margin: auto;"">
                                <img src=""images/14_sad_hi_md_3_Accent_decend_lgsm_bar.png"" width=""480"" height=""420"" style=""object-fit:contain;"">
                            </div>
                        </div>","59","html-slider-response",128,412733,"0.0-124.0","reloj9c0rj",13,"","","","","","",0,"",NA,"","Sad","images/14_sad_hi_md_3_Accent_decend_lgsm_bar.png",NA,NA
NA,"<div style=""width:500px;"">
                            <p style=""font-size:50px; font-weight:bold;""
                            >Sad</p>
                            <div style=""width:480px; margin: auto;"">
                                <img src=""images/14_sad_hi_lo_3_Accent_ascend_lgsm_bar.png"" width=""480"" height=""420"" style=""object-fit:contain;"">
                            </div>
                        </div>","-30","html-slider-response",129,415215,"0.0-125.0","reloj9c0rj",13,"","","","","","",0,"",NA,"","Sad","images/14_sad_hi_lo_3_Accent_ascend_lgsm_bar.png",NA,NA
NA,"<div style=""width:500px;"">
                            <p style=""font-size:50px; font-weight:bold;""
                            >Sad</p>
                            <div style=""width:480px; margin: auto;"">
                                <img src=""images/14_sad_med_lo_3_tab20_decend_lgsm_bar.png"" width=""480"" height=""420"" style=""object-fit:contain;"">
                            </div>
                        </div>","-23","html-slider-response",130,416880,"0.0-126.0","reloj9c0rj",13,"","","","","","",0,"",NA,"","Sad","images/14_sad_med_lo_3_tab20_decend_lgsm_bar.png",NA,NA
NA,"<div style=""width:500px;"">
                            <p style=""font-size:50px; font-weight:bold;""
                            >Sad</p>
                            <div style=""width:480px; margin: auto;"">
                                <img src=""images/14_sad_hi_md_1_tab20_decend_smlg_bar.png"" width=""480"" height=""420"" style=""object-fit:contain;"">
                            </div>
                        </div>","72","html-slider-response",131,418864,"0.0-127.0","reloj9c0rj",13,"","","","","","",0,"",NA,"","Sad","images/14_sad_hi_md_1_tab20_decend_smlg_bar.png",NA,NA
NA,"<div style=""width:500px;"">
                            <p style=""font-size:50px; font-weight:bold;""
                            >Sad</p>
                            <div style=""width:480px; margin: auto;"">
                                <img src=""images/14_sad_hi_md_3_Accent_decend_smlg_bar.png"" width=""480"" height=""420"" style=""object-fit:contain;"">
                            </div>
                        </div>","67","html-slider-response",132,420431,"0.0-128.0","reloj9c0rj",13,"","","","","","",0,"",NA,"","Sad","images/14_sad_hi_md_3_Accent_decend_smlg_bar.png",NA,NA
NA,"<div style=""width:500px;"">
                            <p style=""font-size:50px; font-weight:bold;""
                            >Sad</p>
                            <div style=""width:480px; margin: auto;"">
                                <img src=""images/14_sad_hi_hi_3_Set3_ascend_smlg_bar.png"" width=""480"" height=""420"" style=""object-fit:contain;"">
                            </div>
                        </div>","76","html-slider-response",133,422465,"0.0-129.0","reloj9c0rj",13,"","","","","","",0,"",NA,"","Sad","images/14_sad_hi_hi_3_Set3_ascend_smlg_bar.png",NA,NA
NA,"<div style=""width:500px;"">
                            <p style=""font-size:50px; font-weight:bold;""
                            >Sad</p>
                            <div style=""width:480px; margin: auto;"">
                                <img src=""images/14_sad_lo_lo_1_Set1_decend_lgsm_bar.png"" width=""480"" height=""420"" style=""object-fit:contain;"">
                            </div>
                        </div>","-195","html-slider-response",134,424514,"0.0-130.0","reloj9c0rj",13,"","","","","","",0,"",NA,"","Sad","images/14_sad_lo_lo_1_Set1_decend_lgsm_bar.png",NA,NA
NA,"<div style=""width:500px;"">
                            <p style=""font-size:50px; font-weight:bold;""
                            >Sad</p>
                            <div style=""width:480px; margin: auto;"">
                                <img src=""images/14_sad_lo_lo_3_tab20_ascend_lgsm_bar.png"" width=""480"" height=""420"" style=""object-fit:contain;"">
                            </div>
                        </div>","-176","html-slider-response",135,426764,"0.0-131.0","reloj9c0rj",13,"","","","","","",0,"",NA,"","Sad","images/14_sad_lo_lo_3_tab20_ascend_lgsm_bar.png",NA,NA
NA,"<div style=""width:500px;"">
                            <p style=""font-size:50px; font-weight:bold;""
                            >Sad</p>
                            <div style=""width:480px; margin: auto;"">
                                <img src=""images/14_sad_hi_hi_1_tab20_ascend_smlg_bar.png"" width=""480"" height=""420"" style=""object-fit:contain;"">
                            </div>
                        </div>","57","html-slider-response",136,428397,"0.0-132.0","reloj9c0rj",13,"","","","","","",0,"",NA,"","Sad","images/14_sad_hi_hi_1_tab20_ascend_smlg_bar.png",NA,NA
NA,"<div style=""width:500px;"">
                            <p style=""font-size:50px; font-weight:bold;""
                            >Sad</p>
                            <div style=""width:480px; margin: auto;"">
                                <img src=""images/14_sad_hi_hi_3_Set3_decend_lgsm_bar.png"" width=""480"" height=""420"" style=""object-fit:contain;"">
                            </div>
                        </div>","43","html-slider-response",137,430097,"0.0-133.0","reloj9c0rj",13,"","","","","","",0,"",NA,"","Sad","images/14_sad_hi_hi_3_Set3_decend_lgsm_bar.png",NA,NA
NA,"<div style=""width:500px;"">
                            <p style=""font-size:50px; font-weight:bold;""
                            >Sad</p>
                            <div style=""width:480px; margin: auto;"">
                                <img src=""images/14_sad_med_lo_1_Set1_decend_lgsm_bar.png"" width=""480"" height=""420"" style=""object-fit:contain;"">
                            </div>
                        </div>","-108","html-slider-response",138,432932,"0.0-134.0","reloj9c0rj",13,"","","","","","",0,"",NA,"","Sad","images/14_sad_med_lo_1_Set1_decend_lgsm_bar.png",NA,NA
NA,"<div style=""width:500px;"">
                            <p style=""font-size:50px; font-weight:bold;""
                            >Sad</p>
                            <div style=""width:480px; margin: auto;"">
                                <img src=""images/14_sad_med_med_2_tab10new_decend_lgsm_bar.png"" width=""480"" height=""420"" style=""object-fit:contain;"">
                            </div>
                        </div>","88","html-slider-response",139,435032,"0.0-135.0","reloj9c0rj",13,"","","","","","",0,"",NA,"","Sad","images/14_sad_med_med_2_tab10new_decend_lgsm_bar.png",NA,NA
NA,"<div style=""width:500px;"">
                            <p style=""font-size:50px; font-weight:bold;""
                            >Sad</p>
                            <div style=""width:480px; margin: auto;"">
                                <img src=""images/14_sad_hi_hi_1_tab20_decend_lgsm_bar.png"" width=""480"" height=""420"" style=""object-fit:contain;"">
                            </div>
                        </div>","133","html-slider-response",140,436796,"0.0-136.0","reloj9c0rj",13,"","","","","","",0,"",NA,"","Sad","images/14_sad_hi_hi_1_tab20_decend_lgsm_bar.png",NA,NA
NA,"<div style=""width:500px;"">
                            <p style=""font-size:50px; font-weight:bold;""
                            >Sad</p>
                            <div style=""width:480px; margin: auto;"">
                                <img src=""images/14_sad_med_lo_2_Paired_ascend_lgsm_bar.png"" width=""480"" height=""420"" style=""object-fit:contain;"">
                            </div>
                        </div>","-78","html-slider-response",141,439098,"0.0-137.0","reloj9c0rj",13,"","","","","","",0,"",NA,"","Sad","images/14_sad_med_lo_2_Paired_ascend_lgsm_bar.png",NA,NA
NA,"<div style=""width:500px;"">
                            <p style=""font-size:50px; font-weight:bold;""
                            >Sad</p>
                            <div style=""width:480px; margin: auto;"">
                                <img src=""images/14_sad_med_lo_3_tab20_ascend_smlg_bar.png"" width=""480"" height=""420"" style=""object-fit:contain;"">
                            </div>
                        </div>","-90","html-slider-response",142,440580,"0.0-138.0","reloj9c0rj",13,"","","","","","",0,"",NA,"","Sad","images/14_sad_med_lo_3_tab20_ascend_smlg_bar.png",NA,NA
NA,"<div style=""width:500px;"">
                            <p style=""font-size:50px; font-weight:bold;""
                            >Sad</p>
                            <div style=""width:480px; margin: auto;"">
                                <img src=""images/14_sad_hi_md_2_Set1_decend_lgsm_bar.png"" width=""480"" height=""420"" style=""object-fit:contain;"">
                            </div>
                        </div>","100","html-slider-response",143,442664,"0.0-139.0","reloj9c0rj",13,"","","","","","",0,"",NA,"","Sad","images/14_sad_hi_md_2_Set1_decend_lgsm_bar.png",NA,NA
NA,"<div style=""width:500px;"">
                            <p style=""font-size:50px; font-weight:bold;""
                            >Sad</p>
                            <div style=""width:480px; margin: auto;"">
                                <img src=""images/14_sad_med_med_3_tab20b_ascend_smlg_bar.png"" width=""480"" height=""420"" style=""object-fit:contain;"">
                            </div>
                        </div>","105","html-slider-response",144,444930,"0.0-140.0","reloj9c0rj",13,"","","","","","",0,"",NA,"","Sad","images/14_sad_med_med_3_tab20b_ascend_smlg_bar.png",NA,NA
NA,"<div style=""width:500px;"">
                            <p style=""font-size:50px; font-weight:bold;""
                            >Sad</p>
                            <div style=""width:480px; margin: auto;"">
                                <img src=""images/14_sad_lo_lo_2_Paired_decend_lgsm_bar.png"" width=""480"" height=""420"" style=""object-fit:contain;"">
                            </div>
                        </div>","-172","html-slider-response",145,446881,"0.0-141.0","reloj9c0rj",13,"","","","","","",0,"",NA,"","Sad","images/14_sad_lo_lo_2_Paired_decend_lgsm_bar.png",NA,NA
NA,"<div style=""width:500px;"">
                            <p style=""font-size:50px; font-weight:bold;""
                            >Sad</p>
                            <div style=""width:480px; margin: auto;"">
                                <img src=""images/14_sad_hi_md_2_Set1_decend_smlg_bar.png"" width=""480"" height=""420"" style=""object-fit:contain;"">
                            </div>
                        </div>","26","html-slider-response",146,449914,"0.0-142.0","reloj9c0rj",13,"","","","","","",0,"",NA,"","Sad","images/14_sad_hi_md_2_Set1_decend_smlg_bar.png",NA,NA
NA,"<div style=""width:500px;"">
                            <p style=""font-size:50px; font-weight:bold;""
                            >Sad</p>
                            <div style=""width:480px; margin: auto;"">
                                <img src=""images/14_sad_med_med_2_tab10new_ascend_lgsm_bar.png"" width=""480"" height=""420"" style=""object-fit:contain;"">
                            </div>
                        </div>","98","html-slider-response",147,451414,"0.0-143.0","reloj9c0rj",13,"","","","","","",0,"",NA,"","Sad","images/14_sad_med_med_2_tab10new_ascend_lgsm_bar.png",NA,NA
NA,"<div style=""width:500px;"">
                            <p style=""font-size:50px; font-weight:bold;""
                            >Sad</p>
                            <div style=""width:480px; margin: auto;"">
                                <img src=""images/14_sad_lo_lo_3_tab20_decend_lgsm_bar.png"" width=""480"" height=""420"" style=""object-fit:contain;"">
                            </div>
                        </div>","-182","html-slider-response",148,453013,"0.0-144.0","reloj9c0rj",13,"","","","","","",0,"",NA,"","Sad","images/14_sad_lo_lo_3_tab20_decend_lgsm_bar.png",NA,NA
NA,"<div style=""width:500px;"">
                            <p style=""font-size:50px; font-weight:bold;""
                            >Sad</p>
                            <div style=""width:480px; margin: auto;"">
                                <img src=""images/14_sad_lo_lo_1_Set1_ascend_smlg_bar.png"" width=""480"" height=""420"" style=""object-fit:contain;"">
                            </div>
                        </div>","-163","html-slider-response",149,455014,"0.0-145.0","reloj9c0rj",13,"","","","","","",0,"",NA,"","Sad","images/14_sad_lo_lo_1_Set1_ascend_smlg_bar.png",NA,NA
NA,"<div style=""width:500px;"">
                            <p style=""font-size:50px; font-weight:bold;""
                            >Sad</p>
                            <div style=""width:480px; margin: auto;"">
                                <img src=""images/14_sad_med_med_2_tab10new_decend_smlg_bar.png"" width=""480"" height=""420"" style=""object-fit:contain;"">
                            </div>
                        </div>","79","html-slider-response",150,456714,"0.0-146.0","reloj9c0rj",13,"","","","","","",0,"",NA,"","Sad","images/14_sad_med_med_2_tab10new_decend_smlg_bar.png",NA,NA
NA,"<div style=""width:500px;"">
                            <p style=""font-size:50px; font-weight:bold;""
                            >Sad</p>
                            <div style=""width:480px; margin: auto;"">
                                <img src=""images/14_sad_hi_lo_3_Accent_ascend_smlg_bar.png"" width=""480"" height=""420"" style=""object-fit:contain;"">
                            </div>
                        </div>","2","html-slider-response",151,461589,"0.0-147.0","reloj9c0rj",13,"","","","","","",0,"",NA,"","Sad","images/14_sad_hi_lo_3_Accent_ascend_smlg_bar.png",NA,NA
NA,"<div style=""width:500px;"">
                            <p style=""font-size:50px; font-weight:bold;""
                            >Sad</p>
                            <div style=""width:480px; margin: auto;"">
                                <img src=""images/14_sad_hi_md_2_Set1_ascend_smlg_bar.png"" width=""480"" height=""420"" style=""object-fit:contain;"">
                            </div>
                        </div>","33","html-slider-response",152,463399,"0.0-148.0","reloj9c0rj",13,"","","","","","",0,"",NA,"","Sad","images/14_sad_hi_md_2_Set1_ascend_smlg_bar.png",NA,NA
NA,"<div style=""width:500px;"">
                            <p style=""font-size:50px; font-weight:bold;""
                            >Sad</p>
                            <div style=""width:480px; margin: auto;"">
                                <img src=""images/14_sad_hi_hi_3_Set3_ascend_lgsm_bar.png"" width=""480"" height=""420"" style=""object-fit:contain;"">
                            </div>
                        </div>","92","html-slider-response",153,465315,"0.0-149.0","reloj9c0rj",13,"","","","","","",0,"",NA,"","Sad","images/14_sad_hi_hi_3_Set3_ascend_lgsm_bar.png",NA,NA
NA,"<div style=""width:500px;"">
                            <p style=""font-size:50px; font-weight:bold;""
                            >Sad</p>
                            <div style=""width:480px; margin: auto;"">
                                <img src=""images/14_sad_hi_lo_2_Set1_decend_lgsm_bar.png"" width=""480"" height=""420"" style=""object-fit:contain;"">
                            </div>
                        </div>","-6","html-slider-response",154,468131,"0.0-150.0","reloj9c0rj",13,"","","","","","",0,"",NA,"","Sad","images/14_sad_hi_lo_2_Set1_decend_lgsm_bar.png",NA,NA
NA,"<div style=""width:500px;"">
                            <p style=""font-size:50px; font-weight:bold;""
                            >Sad</p>
                            <div style=""width:480px; margin: auto;"">
                                <img src=""images/14_sad_lo_lo_2_Paired_ascend_lgsm_bar.png"" width=""480"" height=""420"" style=""object-fit:contain;"">
                            </div>
                        </div>","-186","html-slider-response",155,470431,"0.0-151.0","reloj9c0rj",13,"","","","","","",0,"",NA,"","Sad","images/14_sad_lo_lo_2_Paired_ascend_lgsm_bar.png",NA,NA
NA,"<div style=""width:500px;"">
                            <p style=""font-size:50px; font-weight:bold;""
                            >Sad</p>
                            <div style=""width:480px; margin: auto;"">
                                <img src=""images/14_sad_hi_md_2_Set1_ascend_lgsm_bar.png"" width=""480"" height=""420"" style=""object-fit:contain;"">
                            </div>
                        </div>","95","html-slider-response",156,472579,"0.0-152.0","reloj9c0rj",13,"","","","","","",0,"",NA,"","Sad","images/14_sad_hi_md_2_Set1_ascend_lgsm_bar.png",NA,NA
NA,"<div style=""width:500px;"">
                            <p style=""font-size:50px; font-weight:bold;""
                            >Sad</p>
                            <div style=""width:480px; margin: auto;"">
                                <img src=""images/14_sad_med_lo_3_tab20_ascend_lgsm_bar.png"" width=""480"" height=""420"" style=""object-fit:contain;"">
                            </div>
                        </div>","-155","html-slider-response",157,474931,"0.0-153.0","reloj9c0rj",13,"","","","","","",0,"",NA,"","Sad","images/14_sad_med_lo_3_tab20_ascend_lgsm_bar.png",NA,NA
NA,"<div style=""width:500px;"">
                            <p style=""font-size:50px; font-weight:bold;""
                            >Sad</p>
                            <div style=""width:480px; margin: auto;"">
                                <img src=""images/14_sad_hi_md_1_tab20_decend_lgsm_bar.png"" width=""480"" height=""420"" style=""object-fit:contain;"">
                            </div>
                        </div>","86","html-slider-response",158,476798,"0.0-154.0","reloj9c0rj",13,"","","","","","",0,"",NA,"","Sad","images/14_sad_hi_md_1_tab20_decend_lgsm_bar.png",NA,NA
NA,"<div style=""width:500px;"">
                            <p style=""font-size:50px; font-weight:bold;""
                            >Sad</p>
                            <div style=""width:480px; margin: auto;"">
                                <img src=""images/14_sad_med_med_1_tab20_decend_smlg_bar.png"" width=""480"" height=""420"" style=""object-fit:contain;"">
                            </div>
                        </div>","87","html-slider-response",159,478248,"0.0-155.0","reloj9c0rj",13,"","","","","","",0,"",NA,"","Sad","images/14_sad_med_med_1_tab20_decend_smlg_bar.png",NA,NA
NA,"<div style=""width:500px;"">
                            <p style=""font-size:50px; font-weight:bold;""
                            >Sad</p>
                            <div style=""width:480px; margin: auto;"">
                                <img src=""images/14_sad_hi_md_3_Accent_ascend_smlg_bar.png"" width=""480"" height=""420"" style=""object-fit:contain;"">
                            </div>
                        </div>","110","html-slider-response",160,480048,"0.0-156.0","reloj9c0rj",13,"","","","","","",0,"",NA,"","Sad","images/14_sad_hi_md_3_Accent_ascend_smlg_bar.png",NA,NA
NA,"<div style=""width:500px;"">
                            <p style=""font-size:50px; font-weight:bold;""
                            >Sad</p>
                            <div style=""width:480px; margin: auto;"">
                                <img src=""images/14_sad_med_lo_2_Paired_decend_smlg_bar.png"" width=""480"" height=""420"" style=""object-fit:contain;"">
                            </div>
                        </div>","-104","html-slider-response",161,482049,"0.0-157.0","reloj9c0rj",13,"","","","","","",0,"",NA,"","Sad","images/14_sad_med_lo_2_Paired_decend_smlg_bar.png",NA,NA
NA,"<div style=""width:500px;"">
                            <p style=""font-size:50px; font-weight:bold;""
                            >Sad</p>
                            <div style=""width:480px; margin: auto;"">
                                <img src=""images/14_sad_hi_hi_1_tab20_decend_smlg_bar.png"" width=""480"" height=""420"" style=""object-fit:contain;"">
                            </div>
                        </div>","110","html-slider-response",162,483697,"0.0-158.0","reloj9c0rj",13,"","","","","","",0,"",NA,"","Sad","images/14_sad_hi_hi_1_tab20_decend_smlg_bar.png",NA,NA
NA,"<div style=""width:500px;"">
                            <p style=""font-size:50px; font-weight:bold;""
                            >Sad</p>
                            <div style=""width:480px; margin: auto;"">
                                <img src=""images/14_sad_med_med_3_tab20b_ascend_lgsm_bar.png"" width=""480"" height=""420"" style=""object-fit:contain;"">
                            </div>
                        </div>","139","html-slider-response",163,485765,"0.0-159.0","reloj9c0rj",13,"","","","","","",0,"",NA,"","Sad","images/14_sad_med_med_3_tab20b_ascend_lgsm_bar.png",NA,NA
1535,"<p>Great Job! You've finished block 2.<br></br> You have 3 block(s) left to go.<br></br></p>","0","html-button-response",164,487802,"0.0-160.0","reloj9c0rj",13,"","","","","","",NA,"",NA,"","","",NA,NA
665,"<p>In this block of trials, you will be asked to rate how much you associate each texture with the concept</p >
                        <p style = 'font-size:150%; font-weight: bold'>Happy</p><br></br>","0","html-button-response",165,488468,"0.0-161.0","reloj9c0rj",13,"","","","","","",NA,"",NA,"","","",NA,NA
NA,"<div style=""width:500px;"">
                            <p style=""font-size:50px; font-weight:bold;""
                            >Happy</p>
                            <div style=""width:480px; margin: auto;"">
                                <img src=""images/14_happy_lo_lo_2_tab10new_decend_smlg_bar.png"" width=""480"" height=""420"" style=""object-fit:contain;"">
                            </div>
                        </div>","-166","html-slider-response",166,491031,"0.0-162.0","reloj9c0rj",13,"","","","","","",0,"",NA,"","Happy","images/14_happy_lo_lo_2_tab10new_decend_smlg_bar.png",NA,NA
NA,"<div style=""width:500px;"">
                            <p style=""font-size:50px; font-weight:bold;""
                            >Happy</p>
                            <div style=""width:480px; margin: auto;"">
                                <img src=""images/14_happy_hi_hi_2_tab20_ascend_lgsm_bar.png"" width=""480"" height=""420"" style=""object-fit:contain;"">
                            </div>
                        </div>","105","html-slider-response",167,492898,"0.0-163.0","reloj9c0rj",13,"","","","","","",0,"",NA,"","Happy","images/14_happy_hi_hi_2_tab20_ascend_lgsm_bar.png",NA,NA
NA,"<div style=""width:500px;"">
                            <p style=""font-size:50px; font-weight:bold;""
                            >Happy</p>
                            <div style=""width:480px; margin: auto;"">
                                <img src=""images/14_happy_lo_lo_3_tab20_ascend_lgsm_bar.png"" width=""480"" height=""420"" style=""object-fit:contain;"">
                            </div>
                        </div>","-143","html-slider-response",168,494447,"0.0-164.0","reloj9c0rj",13,"","","","","","",0,"",NA,"","Happy","images/14_happy_lo_lo_3_tab20_ascend_lgsm_bar.png",NA,NA
NA,"<div style=""width:500px;"">
                            <p style=""font-size:50px; font-weight:bold;""
                            >Happy</p>
                            <div style=""width:480px; margin: auto;"">
