"rt","stimulus","response","trial_type","trial_index","time_elapsed","internal_node_id","subject_id","condition_num","success","timeout","failed_images","failed_audio","failed_video","question_order","slider_start","practiceTrial","practiceTrialNum","correct","concept","texture_id","ishihara_plate","correct_response"
9724,"Welcome to our experiment!<p>At the bottom of this screen, you will see a button that says ""Begin Experiment"".<br>Please only click that button when you are ready to complete the 30 minute experiment in one sitting.</p><p> Once you click that button, it will not be possible to restart the experiment.","0","html-button-response",0,9727,"0.0-0.0","rjp8f4zb1p",11,"","","","","","",NA,"",NA,"","","",NA,NA
NA,"","","preload",1,11553,"0.0-1.0","rjp8f4zb1p",11,"true","false","[]","[]","[]","",NA,"",NA,"","","",NA,NA
4313,"","","fullscreen",2,16871,"0.0-2.0","rjp8f4zb1p",11,"true","","","","","",NA,"",NA,"","","",NA,NA
57109,"","{""Consent"":[""<strong>I consent</strong>""]}","survey-multi-select",3,73986,"0.0-3.0","rjp8f4zb1p",11,"","","","","","[0]",NA,"",NA,"","","",NA,NA
5313,"Welcome! <p> This experiment involves two parts: demographic information, followed by the experimental task.<p> It will take about 30 minutes to complete both parts.","0","html-button-response",4,79300,"0.0-4.0","rjp8f4zb1p",11,"","","","","","",NA,"",NA,"","","",NA,NA
16520,"","{""Age"":""19"",""Gender"":""Male"",""Race/ethnicity"":""Caucasian "",""Languages"":""English ""}","survey-text",5,95835,"0.0-5.0","rjp8f4zb1p",11,"","","","","","",NA,"",NA,"","","",NA,NA
58582,"
                        <div>
                            <div style='text-align:left; font-size:18px; line-height:25px; width: 1300px;'>
                                During this experiment you will be asked to rate how much you associate charts with                                different concepts. Below, you can see some examples of the charts you will be asked to rate. Above the charts
                                is the list of concepts. You will be asked
                                to rate how much you associate each chart with each concept on a scale from 'not at all' to 'very much' like the
                                one below. <br>

                        <div style=""text-align: left; width: 1300px;"">
                            <p style=""font-size:18px; line-height:20px; text-align:center; font-weight:bold"">
                                Angry, Happy, Disgust, Fearful, Sad
                            </p>
                        </div>

                        <div style=""display: flex; justify-content: center; width: 100%;"">
                            <div style=""
                                display: grid;
                                grid-template-columns: repeat(5, 1fr);
                                gap: 8px;
                                padding: 10px;
                                width: 900px;  
                                margin: 0 auto;
                            "">
                                
                                    <div style=""width: 100%;"">
                                        <img src=""images/12_disgust_lo_lo_1_tab20c_ascend_smlg_bar.png"" style=""width: 100%; height: auto; object-fit: contain;"">
                                    </div>
                                
                                    <div style=""width: 100%;"">
                                        <img src=""images/12_happy_hi_hi_1_Set1_ascend_lgsm_bar.png"" style=""width: 100%; height: auto; object-fit: contain;"">
                                    </div>
                                
                                    <div style=""width: 100%;"">
                                        <img src=""images/12_angry_hi_hi_1_tab20_decend_smlg_bar.png"" style=""width: 100%; height: auto; object-fit: contain;"">
                                    </div>
                                
                                    <div style=""width: 100%;"">
                                        <img src=""images/12_happy_lo_lo_1_tab20b_decend_lgsm_bar.png"" style=""width: 100%; height: auto; object-fit: contain;"">
                                    </div>
                                
                                    <div style=""width: 100%;"">
                                        <img src=""images/12_sad_lo_lo_1_Set1_ascend_smlg_bar.png"" style=""width: 100%; height: auto; object-fit: contain;"">
                                    </div>
                                
                                    <div style=""width: 100%;"">
                                        <img src=""images/12_fearful_lo_lo_1_Pastel1_decend_smlg_bar.png"" style=""width: 100%; height: auto; object-fit: contain;"">
                                    </div>
                                
                                    <div style=""width: 100%;"">
                                        <img src=""images/12_angry_lo_lo_1_tab20c_decend_lgsm_bar.png"" style=""width: 100%; height: auto; object-fit: contain;"">
                                    </div>
                                
                                    <div style=""width: 100%;"">
                                        <img src=""images/12_fearful_hi_hi_1_tab20b_decend_smlg_bar.png"" style=""width: 100%; height: auto; object-fit: contain;"">
                                    </div>
                                
                                    <div style=""width: 100%;"">
                                        <img src=""images/12_disgust_hi_hi_1_tab20b_decend_lgsm_bar.png"" style=""width: 100%; height: auto; object-fit: contain;"">
                                    </div>
                                
                                    <div style=""width: 100%;"">
                                        <img src=""images/12_sad_hi_hi_1_tab20_decend_smlg_bar.png"" style=""width: 100%; height: auto; object-fit: contain;"">
                                    </div>
                                
                            </div>
                        </div>
                    </div>
                </div>
                    ","0","html-slider-response",6,154420,"0.0-6.0","rjp8f4zb1p",11,"","","","","","",0,"true",NA,"","","",NA,NA
17228,"<div style=""width:1300px;""><p style=""text-align:left"">To move the slider, click and drag your cursor to the location of the scale where you would like to make your rating and then let go. When you let go of the slider, your response will be recorded and the next trial will begin. <br>
                    We are interested in your initial impressions of each chart for a given concept, so please go with your first intuition. 
                    Before you begin the experiment, there will be four training trials for you to practice using the slider. 
                     When you are ready to start the training trials, please click ""Continue"".</p><br></div>","0","html-button-response",7,171650,"0.0-7.0","rjp8f4zb1p",11,"","","","","","",NA,"",NA,"","","",NA,NA
NA,"<div style=""width:500px;"">
                                    <p style=""font-size:25px;"">Please move the slider all the way to the <br> right endpoint of the scale</p>

                                    </div>
                                </div>","200","html-slider-response",8,176328,"0.0-8.0-0.0","rjp8f4zb1p",11,"","","","","","",0,"true",0,"true","","",NA,NA
1035,"<p align='center'><b>Good job!</b> Click on 'Continue' to proceed.</p>","0","html-button-response",9,177866,"0.0-8.0-1.0","rjp8f4zb1p",11,"","","","","","",NA,"",NA,"","","",NA,NA
NA,"<div style=""width:500px;"">
                                    <p style=""font-size:25px;"">Please move the slider all the way to the <br> left endpoint of the scale</p>

                                    </div>
                                </div>","-200","html-slider-response",10,179645,"0.0-9.0-0.0","rjp8f4zb1p",11,"","","","","","",0,"true",1,"true","","",NA,NA
787,"<p align='center'><b>Good job!</b> Click on 'Continue' to proceed.</p>","0","html-button-response",11,180933,"0.0-9.0-1.0","rjp8f4zb1p",11,"","","","","","",NA,"",NA,"","","",NA,NA
NA,"<div style=""width:500px;"">
                                    <p style=""font-size:25px;"">Please move the slider halfway between the center and right endpoint of the scale</p>

                                    </div>
                                </div>","106","html-slider-response",12,185727,"0.0-10.0-0.0","rjp8f4zb1p",11,"","","","","","",0,"true",2,"true","","",NA,NA
638,"<p align='center'><b>Good job!</b> Click on 'Continue' to proceed.</p>","0","html-button-response",13,186866,"0.0-10.0-1.0","rjp8f4zb1p",11,"","","","","","",NA,"",NA,"","","",NA,NA
NA,"<div style=""width:500px;"">
                                    <p style=""font-size:25px;"">Please move the slider halfway between the center and left endpoint of the scale</p>

                                    </div>
                                </div>","-105","html-slider-response",14,189445,"0.0-11.0-0.0","rjp8f4zb1p",11,"","","","","","",0,"true",3,"true","","",NA,NA
687,"<p align='center'><b>Good job!</b> Click on 'Continue' to proceed.</p>","0","html-button-response",15,190634,"0.0-11.0-1.0","rjp8f4zb1p",11,"","","","","","",NA,"",NA,"","","",NA,NA
1932,"<p>Great job! You've completed the practice trials. Now you will begin the main task.</p>","0","html-button-response",16,192566,"0.0-12.0","rjp8f4zb1p",11,"","","","","","",NA,"",NA,"","","",NA,NA
4449,"<p>In this block of trials, you will be asked to rate how much you associate each texture with the concept</p >
                        <p style = 'font-size:150%; font-weight: bold'>Angry</p><br></br>","0","html-button-response",17,197017,"0.0-13.0","rjp8f4zb1p",11,"","","","","","",NA,"",NA,"","","",NA,NA
NA,"<div style=""width:500px;"">
                            <p style=""font-size:50px; font-weight:bold;""
                            >Angry</p>
                            <div style=""width:480px; margin: auto;"">
                                <img src=""images/12_angry_lo_lo_2_Pastel1_decend_smlg_bar.png"" width=""480"" height=""420"" style=""object-fit:contain;"">
                            </div>
                        </div>","-141","html-slider-response",18,199995,"0.0-14.0","rjp8f4zb1p",11,"","","","","","",0,"",NA,"","Angry","images/12_angry_lo_lo_2_Pastel1_decend_smlg_bar.png",NA,NA
NA,"<div style=""width:500px;"">
                            <p style=""font-size:50px; font-weight:bold;""
                            >Angry</p>
                            <div style=""width:480px; margin: auto;"">
                                <img src=""images/12_angry_hi_lo_1_tab20_decend_smlg_bar.png"" width=""480"" height=""420"" style=""object-fit:contain;"">
                            </div>
                        </div>","40","html-slider-response",19,202760,"0.0-15.0","rjp8f4zb1p",11,"","","","","","",0,"",NA,"","Angry","images/12_angry_hi_lo_1_tab20_decend_smlg_bar.png",NA,NA
NA,"<div style=""width:500px;"">
                            <p style=""font-size:50px; font-weight:bold;""
                            >Angry</p>
                            <div style=""width:480px; margin: auto;"">
                                <img src=""images/12_angry_hi_lo_1_tab20_ascend_lgsm_bar.png"" width=""480"" height=""420"" style=""object-fit:contain;"">
                            </div>
                        </div>","69","html-slider-response",20,205527,"0.0-16.0","rjp8f4zb1p",11,"","","","","","",0,"",NA,"","Angry","images/12_angry_hi_lo_1_tab20_ascend_lgsm_bar.png",NA,NA
NA,"<div style=""width:500px;"">
                            <p style=""font-size:50px; font-weight:bold;""
                            >Angry</p>
                            <div style=""width:480px; margin: auto;"">
                                <img src=""images/12_angry_lo_lo_3_Pastel2_ascend_lgsm_bar.png"" width=""480"" height=""420"" style=""object-fit:contain;"">
                            </div>
                        </div>","-106","html-slider-response",21,207710,"0.0-17.0","rjp8f4zb1p",11,"","","","","","",0,"",NA,"","Angry","images/12_angry_lo_lo_3_Pastel2_ascend_lgsm_bar.png",NA,NA
NA,"<div style=""width:500px;"">
                            <p style=""font-size:50px; font-weight:bold;""
                            >Angry</p>
                            <div style=""width:480px; margin: auto;"">
                                <img src=""images/12_angry_hi_md_2_tab20_decend_smlg_bar.png"" width=""480"" height=""420"" style=""object-fit:contain;"">
                            </div>
                        </div>","-18","html-slider-response",22,212128,"0.0-18.0","rjp8f4zb1p",11,"","","","","","",0,"",NA,"","Angry","images/12_angry_hi_md_2_tab20_decend_smlg_bar.png",NA,NA
NA,"<div style=""width:500px;"">
                            <p style=""font-size:50px; font-weight:bold;""
                            >Angry</p>
                            <div style=""width:480px; margin: auto;"">
                                <img src=""images/12_angry_hi_lo_1_tab20_decend_lgsm_bar.png"" width=""480"" height=""420"" style=""object-fit:contain;"">
                            </div>
                        </div>","97","html-slider-response",23,215228,"0.0-19.0","rjp8f4zb1p",11,"","","","","","",0,"",NA,"","Angry","images/12_angry_hi_lo_1_tab20_decend_lgsm_bar.png",NA,NA
NA,"<div style=""width:500px;"">
                            <p style=""font-size:50px; font-weight:bold;""
                            >Angry</p>
                            <div style=""width:480px; margin: auto;"">
                                <img src=""images/12_angry_med_lo_2_Pastel2_ascend_smlg_bar.png"" width=""480"" height=""420"" style=""object-fit:contain;"">
                            </div>
                        </div>","-118","html-slider-response",24,218479,"0.0-20.0","rjp8f4zb1p",11,"","","","","","",0,"",NA,"","Angry","images/12_angry_med_lo_2_Pastel2_ascend_smlg_bar.png",NA,NA
NA,"<div style=""width:500px;"">
                            <p style=""font-size:50px; font-weight:bold;""
                            >Angry</p>
                            <div style=""width:480px; margin: auto;"">
                                <img src=""images/12_angry_hi_md_3_Paired_ascend_lgsm_bar.png"" width=""480"" height=""420"" style=""object-fit:contain;"">
                            </div>
                        </div>","30","html-slider-response",25,220929,"0.0-21.0","rjp8f4zb1p",11,"","","","","","",0,"",NA,"","Angry","images/12_angry_hi_md_3_Paired_ascend_lgsm_bar.png",NA,NA
NA,"<div style=""width:500px;"">
                            <p style=""font-size:50px; font-weight:bold;""
                            >Angry</p>
                            <div style=""width:480px; margin: auto;"">
                                <img src=""images/12_angry_hi_lo_2_tab20c_decend_smlg_bar.png"" width=""480"" height=""420"" style=""object-fit:contain;"">
                            </div>
                        </div>","-93","html-slider-response",26,223544,"0.0-22.0","rjp8f4zb1p",11,"","","","","","",0,"",NA,"","Angry","images/12_angry_hi_lo_2_tab20c_decend_smlg_bar.png",NA,NA
NA,"<div style=""width:500px;"">
                            <p style=""font-size:50px; font-weight:bold;""
                            >Angry</p>
                            <div style=""width:480px; margin: auto;"">
                                <img src=""images/12_angry_hi_hi_3_tab10new_ascend_smlg_bar.png"" width=""480"" height=""420"" style=""object-fit:contain;"">
                            </div>
                        </div>","99","html-slider-response",27,225727,"0.0-23.0","rjp8f4zb1p",11,"","","","","","",0,"",NA,"","Angry","images/12_angry_hi_hi_3_tab10new_ascend_smlg_bar.png",NA,NA
NA,"<div style=""width:500px;"">
                            <p style=""font-size:50px; font-weight:bold;""
                            >Angry</p>
                            <div style=""width:480px; margin: auto;"">
                                <img src=""images/12_angry_med_med_3_Set1_decend_lgsm_bar.png"" width=""480"" height=""420"" style=""object-fit:contain;"">
                            </div>
                        </div>","-82","html-slider-response",28,227878,"0.0-24.0","rjp8f4zb1p",11,"","","","","","",0,"",NA,"","Angry","images/12_angry_med_med_3_Set1_decend_lgsm_bar.png",NA,NA
NA,"<div style=""width:500px;"">
                            <p style=""font-size:50px; font-weight:bold;""
                            >Angry</p>
                            <div style=""width:480px; margin: auto;"">
                                <img src=""images/12_angry_lo_lo_1_tab20c_decend_smlg_bar.png"" width=""480"" height=""420"" style=""object-fit:contain;"">
                            </div>
                        </div>","-100","html-slider-response",29,230094,"0.0-25.0","rjp8f4zb1p",11,"","","","","","",0,"",NA,"","Angry","images/12_angry_lo_lo_1_tab20c_decend_smlg_bar.png",NA,NA
NA,"<div style=""width:500px;"">
                            <p style=""font-size:50px; font-weight:bold;""
                            >Angry</p>
                            <div style=""width:480px; margin: auto;"">
                                <img src=""images/12_angry_med_med_3_Set1_decend_smlg_bar.png"" width=""480"" height=""420"" style=""object-fit:contain;"">
                            </div>
                        </div>","-36","html-slider-response",30,231962,"0.0-26.0","rjp8f4zb1p",11,"","","","","","",0,"",NA,"","Angry","images/12_angry_med_med_3_Set1_decend_smlg_bar.png",NA,NA
NA,"<div style=""width:500px;"">
                            <p style=""font-size:50px; font-weight:bold;""
                            >Angry</p>
                            <div style=""width:480px; margin: auto;"">
                                <img src=""images/12_angry_hi_md_1_Set1_ascend_lgsm_bar.png"" width=""480"" height=""420"" style=""object-fit:contain;"">
                            </div>
                        </div>","63","html-slider-response",31,233845,"0.0-27.0","rjp8f4zb1p",11,"","","","","","",0,"",NA,"","Angry","images/12_angry_hi_md_1_Set1_ascend_lgsm_bar.png",NA,NA
NA,"<div style=""width:500px;"">
                            <p style=""font-size:50px; font-weight:bold;""
                            >Angry</p>
                            <div style=""width:480px; margin: auto;"">
                                <img src=""images/12_angry_lo_lo_1_tab20c_decend_lgsm_bar.png"" width=""480"" height=""420"" style=""object-fit:contain;"">
                            </div>
                        </div>","-150","html-slider-response",32,235960,"0.0-28.0","rjp8f4zb1p",11,"","","","","","",0,"",NA,"","Angry","images/12_angry_lo_lo_1_tab20c_decend_lgsm_bar.png",NA,NA
NA,"<div style=""width:500px;"">
                            <p style=""font-size:50px; font-weight:bold;""
                            >Angry</p>
                            <div style=""width:480px; margin: auto;"">
                                <img src=""images/12_angry_med_lo_3_Pastel1_decend_lgsm_bar.png"" width=""480"" height=""420"" style=""object-fit:contain;"">
                            </div>
                        </div>","-100","html-slider-response",33,237978,"0.0-29.0","rjp8f4zb1p",11,"","","","","","",0,"",NA,"","Angry","images/12_angry_med_lo_3_Pastel1_decend_lgsm_bar.png",NA,NA
NA,"<div style=""width:500px;"">
                            <p style=""font-size:50px; font-weight:bold;""
                            >Angry</p>
                            <div style=""width:480px; margin: auto;"">
                                <img src=""images/12_angry_hi_md_1_Set1_decend_smlg_bar.png"" width=""480"" height=""420"" style=""object-fit:contain;"">
                            </div>
                        </div>","31","html-slider-response",34,239827,"0.0-30.0","rjp8f4zb1p",11,"","","","","","",0,"",NA,"","Angry","images/12_angry_hi_md_1_Set1_decend_smlg_bar.png",NA,NA
NA,"<div style=""width:500px;"">
                            <p style=""font-size:50px; font-weight:bold;""
                            >Angry</p>
                            <div style=""width:480px; margin: auto;"">
                                <img src=""images/12_angry_hi_hi_2_Paired_ascend_smlg_bar.png"" width=""480"" height=""420"" style=""object-fit:contain;"">
                            </div>
                        </div>","42","html-slider-response",35,243110,"0.0-31.0","rjp8f4zb1p",11,"","","","","","",0,"",NA,"","Angry","images/12_angry_hi_hi_2_Paired_ascend_smlg_bar.png",NA,NA
NA,"<div style=""width:500px;"">
                            <p style=""font-size:50px; font-weight:bold;""
                            >Angry</p>
                            <div style=""width:480px; margin: auto;"">
                                <img src=""images/12_angry_hi_lo_3_Paired_decend_smlg_bar.png"" width=""480"" height=""420"" style=""object-fit:contain;"">
                            </div>
                        </div>","-31","html-slider-response",36,245609,"0.0-32.0","rjp8f4zb1p",11,"","","","","","",0,"",NA,"","Angry","images/12_angry_hi_lo_3_Paired_decend_smlg_bar.png",NA,NA
NA,"<div style=""width:500px;"">
                            <p style=""font-size:50px; font-weight:bold;""
                            >Angry</p>
                            <div style=""width:480px; margin: auto;"">
                                <img src=""images/12_angry_hi_md_3_Paired_ascend_smlg_bar.png"" width=""480"" height=""420"" style=""object-fit:contain;"">
                            </div>
                        </div>","94","html-slider-response",37,249978,"0.0-33.0","rjp8f4zb1p",11,"","","","","","",0,"",NA,"","Angry","images/12_angry_hi_md_3_Paired_ascend_smlg_bar.png",NA,NA
NA,"<div style=""width:500px;"">
                            <p style=""font-size:50px; font-weight:bold;""
                            >Angry</p>
                            <div style=""width:480px; margin: auto;"">
                                <img src=""images/12_angry_med_med_1_tab20b_ascend_lgsm_bar.png"" width=""480"" height=""420"" style=""object-fit:contain;"">
                            </div>
                        </div>","-97","html-slider-response",38,252212,"0.0-34.0","rjp8f4zb1p",11,"","","","","","",0,"",NA,"","Angry","images/12_angry_med_med_1_tab20b_ascend_lgsm_bar.png",NA,NA
NA,"<div style=""width:500px;"">
                            <p style=""font-size:50px; font-weight:bold;""
                            >Angry</p>
                            <div style=""width:480px; margin: auto;"">
                                <img src=""images/12_angry_lo_lo_1_tab20c_ascend_lgsm_bar.png"" width=""480"" height=""420"" style=""object-fit:contain;"">
                            </div>
                        </div>","-150","html-slider-response",39,254060,"0.0-35.0","rjp8f4zb1p",11,"","","","","","",0,"",NA,"","Angry","images/12_angry_lo_lo_1_tab20c_ascend_lgsm_bar.png",NA,NA
NA,"<div style=""width:500px;"">
                            <p style=""font-size:50px; font-weight:bold;""
                            >Angry</p>
                            <div style=""width:480px; margin: auto;"">
                                <img src=""images/12_angry_hi_md_3_Paired_decend_lgsm_bar.png"" width=""480"" height=""420"" style=""object-fit:contain;"">
                            </div>
                        </div>","67","html-slider-response",40,256044,"0.0-36.0","rjp8f4zb1p",11,"","","","","","",0,"",NA,"","Angry","images/12_angry_hi_md_3_Paired_decend_lgsm_bar.png",NA,NA
NA,"<div style=""width:500px;"">
                            <p style=""font-size:50px; font-weight:bold;""
                            >Angry</p>
                            <div style=""width:480px; margin: auto;"">
                                <img src=""images/12_angry_med_lo_2_Pastel2_ascend_lgsm_bar.png"" width=""480"" height=""420"" style=""object-fit:contain;"">
                            </div>
                        </div>","-81","html-slider-response",41,258346,"0.0-37.0","rjp8f4zb1p",11,"","","","","","",0,"",NA,"","Angry","images/12_angry_med_lo_2_Pastel2_ascend_lgsm_bar.png",NA,NA
NA,"<div style=""width:500px;"">
                            <p style=""font-size:50px; font-weight:bold;""
                            >Angry</p>
                            <div style=""width:480px; margin: auto;"">
                                <img src=""images/12_angry_lo_lo_2_Pastel1_ascend_smlg_bar.png"" width=""480"" height=""420"" style=""object-fit:contain;"">
                            </div>
                        </div>","-47","html-slider-response",42,260628,"0.0-38.0","rjp8f4zb1p",11,"","","","","","",0,"",NA,"","Angry","images/12_angry_lo_lo_2_Pastel1_ascend_smlg_bar.png",NA,NA
NA,"<div style=""width:500px;"">
                            <p style=""font-size:50px; font-weight:bold;""
                            >Angry</p>
                            <div style=""width:480px; margin: auto;"">
                                <img src=""images/12_angry_hi_hi_2_Paired_decend_smlg_bar.png"" width=""480"" height=""420"" style=""object-fit:contain;"">
                            </div>
                        </div>","145","html-slider-response",43,262811,"0.0-39.0","rjp8f4zb1p",11,"","","","","","",0,"",NA,"","Angry","images/12_angry_hi_hi_2_Paired_decend_smlg_bar.png",NA,NA
NA,"<div style=""width:500px;"">
                            <p style=""font-size:50px; font-weight:bold;""
                            >Angry</p>
                            <div style=""width:480px; margin: auto;"">
                                <img src=""images/12_angry_lo_lo_3_Pastel2_decend_lgsm_bar.png"" width=""480"" height=""420"" style=""object-fit:contain;"">
                            </div>
                        </div>","-77","html-slider-response",44,264680,"0.0-40.0","rjp8f4zb1p",11,"","","","","","",0,"",NA,"","Angry","images/12_angry_lo_lo_3_Pastel2_decend_lgsm_bar.png",NA,NA
NA,"<div style=""width:500px;"">
                            <p style=""font-size:50px; font-weight:bold;""
                            >Angry</p>
                            <div style=""width:480px; margin: auto;"">
                                <img src=""images/12_angry_med_lo_1_tab20c_ascend_smlg_bar.png"" width=""480"" height=""420"" style=""object-fit:contain;"">
                            </div>
                        </div>","-82","html-slider-response",45,266497,"0.0-41.0","rjp8f4zb1p",11,"","","","","","",0,"",NA,"","Angry","images/12_angry_med_lo_1_tab20c_ascend_smlg_bar.png",NA,NA
NA,"<div style=""width:500px;"">
                            <p style=""font-size:50px; font-weight:bold;""
                            >Angry</p>
                            <div style=""width:480px; margin: auto;"">
                                <img src=""images/12_angry_med_med_2_Paired_decend_smlg_bar.png"" width=""480"" height=""420"" style=""object-fit:contain;"">
                            </div>
                        </div>","58","html-slider-response",46,269561,"0.0-42.0","rjp8f4zb1p",11,"","","","","","",0,"",NA,"","Angry","images/12_angry_med_med_2_Paired_decend_smlg_bar.png",NA,NA
NA,"<div style=""width:500px;"">
                            <p style=""font-size:50px; font-weight:bold;""
                            >Angry</p>
                            <div style=""width:480px; margin: auto;"">
                                <img src=""images/12_angry_hi_hi_3_tab10new_ascend_lgsm_bar.png"" width=""480"" height=""420"" style=""object-fit:contain;"">
                            </div>
                        </div>","51","html-slider-response",47,273094,"0.0-43.0","rjp8f4zb1p",11,"","","","","","",0,"",NA,"","Angry","images/12_angry_hi_hi_3_tab10new_ascend_lgsm_bar.png",NA,NA
NA,"<div style=""width:500px;"">
                            <p style=""font-size:50px; font-weight:bold;""
                            >Angry</p>
                            <div style=""width:480px; margin: auto;"">
                                <img src=""images/12_angry_lo_lo_3_Pastel2_decend_smlg_bar.png"" width=""480"" height=""420"" style=""object-fit:contain;"">
                            </div>
                        </div>","-89","html-slider-response",48,274945,"0.0-44.0","rjp8f4zb1p",11,"","","","","","",0,"",NA,"","Angry","images/12_angry_lo_lo_3_Pastel2_decend_smlg_bar.png",NA,NA
NA,"<div style=""width:500px;"">
                            <p style=""font-size:50px; font-weight:bold;""
                            >Angry</p>
                            <div style=""width:480px; margin: auto;"">
                                <img src=""images/12_angry_hi_md_2_tab20_decend_lgsm_bar.png"" width=""480"" height=""420"" style=""object-fit:contain;"">
                            </div>
                        </div>","88","html-slider-response",49,277160,"0.0-45.0","rjp8f4zb1p",11,"","","","","","",0,"",NA,"","Angry","images/12_angry_hi_md_2_tab20_decend_lgsm_bar.png",NA,NA
NA,"<div style=""width:500px;"">
                            <p style=""font-size:50px; font-weight:bold;""
                            >Angry</p>
                            <div style=""width:480px; margin: auto;"">
                                <img src=""images/12_angry_med_med_3_Set1_ascend_smlg_bar.png"" width=""480"" height=""420"" style=""object-fit:contain;"">
                            </div>
                        </div>","-106","html-slider-response",50,278927,"0.0-46.0","rjp8f4zb1p",11,"","","","","","",0,"",NA,"","Angry","images/12_angry_med_med_3_Set1_ascend_smlg_bar.png",NA,NA
NA,"<div style=""width:500px;"">
                            <p style=""font-size:50px; font-weight:bold;""
                            >Angry</p>
                            <div style=""width:480px; margin: auto;"">
                                <img src=""images/12_angry_med_med_2_Paired_ascend_smlg_bar.png"" width=""480"" height=""420"" style=""object-fit:contain;"">
                            </div>
                        </div>","-11","html-slider-response",51,282045,"0.0-47.0","rjp8f4zb1p",11,"","","","","","",0,"",NA,"","Angry","images/12_angry_med_med_2_Paired_ascend_smlg_bar.png",NA,NA
NA,"<div style=""width:500px;"">
                            <p style=""font-size:50px; font-weight:bold;""
                            >Angry</p>
                            <div style=""width:480px; margin: auto;"">
                                <img src=""images/12_angry_med_med_2_Paired_decend_lgsm_bar.png"" width=""480"" height=""420"" style=""object-fit:contain;"">
                            </div>
                        </div>","-2","html-slider-response",52,284361,"0.0-48.0","rjp8f4zb1p",11,"","","","","","",0,"",NA,"","Angry","images/12_angry_med_med_2_Paired_decend_lgsm_bar.png",NA,NA
NA,"<div style=""width:500px;"">
                            <p style=""font-size:50px; font-weight:bold;""
                            >Angry</p>
                            <div style=""width:480px; margin: auto;"">
                                <img src=""images/12_angry_hi_md_1_Set1_decend_lgsm_bar.png"" width=""480"" height=""420"" style=""object-fit:contain;"">
                            </div>
                        </div>","51","html-slider-response",53,286814,"0.0-49.0","rjp8f4zb1p",11,"","","","","","",0,"",NA,"","Angry","images/12_angry_hi_md_1_Set1_decend_lgsm_bar.png",NA,NA
NA,"<div style=""width:500px;"">
                            <p style=""font-size:50px; font-weight:bold;""
                            >Angry</p>
                            <div style=""width:480px; margin: auto;"">
                                <img src=""images/12_angry_hi_lo_2_tab20c_decend_lgsm_bar.png"" width=""480"" height=""420"" style=""object-fit:contain;"">
                            </div>
                        </div>","26","html-slider-response",54,290110,"0.0-50.0","rjp8f4zb1p",11,"","","","","","",0,"",NA,"","Angry","images/12_angry_hi_lo_2_tab20c_decend_lgsm_bar.png",NA,NA
NA,"<div style=""width:500px;"">
                            <p style=""font-size:50px; font-weight:bold;""
                            >Angry</p>
                            <div style=""width:480px; margin: auto;"">
                                <img src=""images/12_angry_hi_hi_3_tab10new_decend_smlg_bar.png"" width=""480"" height=""420"" style=""object-fit:contain;"">
                            </div>
                        </div>","-17","html-slider-response",55,292077,"0.0-51.0","rjp8f4zb1p",11,"","","","","","",0,"",NA,"","Angry","images/12_angry_hi_hi_3_tab10new_decend_smlg_bar.png",NA,NA
NA,"<div style=""width:500px;"">
                            <p style=""font-size:50px; font-weight:bold;""
                            >Angry</p>
                            <div style=""width:480px; margin: auto;"">
                                <img src=""images/12_angry_hi_hi_2_Paired_decend_lgsm_bar.png"" width=""480"" height=""420"" style=""object-fit:contain;"">
                            </div>
                        </div>","61","html-slider-response",56,294012,"0.0-52.0","rjp8f4zb1p",11,"","","","","","",0,"",NA,"","Angry","images/12_angry_hi_hi_2_Paired_decend_lgsm_bar.png",NA,NA
NA,"<div style=""width:500px;"">
                            <p style=""font-size:50px; font-weight:bold;""
                            >Angry</p>
                            <div style=""width:480px; margin: auto;"">
                                <img src=""images/12_angry_med_lo_2_Pastel2_decend_smlg_bar.png"" width=""480"" height=""420"" style=""object-fit:contain;"">
                            </div>
                        </div>","-126","html-slider-response",57,296093,"0.0-53.0","rjp8f4zb1p",11,"","","","","","",0,"",NA,"","Angry","images/12_angry_med_lo_2_Pastel2_decend_smlg_bar.png",NA,NA
NA,"<div style=""width:500px;"">
                            <p style=""font-size:50px; font-weight:bold;""
                            >Angry</p>
                            <div style=""width:480px; margin: auto;"">
                                <img src=""images/12_angry_med_med_2_Paired_ascend_lgsm_bar.png"" width=""480"" height=""420"" style=""object-fit:contain;"">
                            </div>
                        </div>","58","html-slider-response",58,299810,"0.0-54.0","rjp8f4zb1p",11,"","","","","","",0,"",NA,"","Angry","images/12_angry_med_med_2_Paired_ascend_lgsm_bar.png",NA,NA
NA,"<div style=""width:500px;"">
                            <p style=""font-size:50px; font-weight:bold;""
                            >Angry</p>
                            <div style=""width:480px; margin: auto;"">
                                <img src=""images/12_angry_med_lo_1_tab20c_ascend_lgsm_bar.png"" width=""480"" height=""420"" style=""object-fit:contain;"">
                            </div>
                        </div>","44","html-slider-response",59,304345,"0.0-55.0","rjp8f4zb1p",11,"","","","","","",0,"",NA,"","Angry","images/12_angry_med_lo_1_tab20c_ascend_lgsm_bar.png",NA,NA
NA,"<div style=""width:500px;"">
                            <p style=""font-size:50px; font-weight:bold;""
                            >Angry</p>
                            <div style=""width:480px; margin: auto;"">
                                <img src=""images/12_angry_hi_hi_1_tab20_decend_lgsm_bar.png"" width=""480"" height=""420"" style=""object-fit:contain;"">
                            </div>
                        </div>","134","html-slider-response",60,306127,"0.0-56.0","rjp8f4zb1p",11,"","","","","","",0,"",NA,"","Angry","images/12_angry_hi_hi_1_tab20_decend_lgsm_bar.png",NA,NA
NA,"<div style=""width:500px;"">
                            <p style=""font-size:50px; font-weight:bold;""
                            >Angry</p>
                            <div style=""width:480px; margin: auto;"">
                                <img src=""images/12_angry_lo_lo_3_Pastel2_ascend_smlg_bar.png"" width=""480"" height=""420"" style=""object-fit:contain;"">
                            </div>
                        </div>","-70","html-slider-response",61,307745,"0.0-57.0","rjp8f4zb1p",11,"","","","","","",0,"",NA,"","Angry","images/12_angry_lo_lo_3_Pastel2_ascend_smlg_bar.png",NA,NA
NA,"<div style=""width:500px;"">
                            <p style=""font-size:50px; font-weight:bold;""
                            >Angry</p>
                            <div style=""width:480px; margin: auto;"">
                                <img src=""images/12_angry_hi_md_1_Set1_ascend_smlg_bar.png"" width=""480"" height=""420"" style=""object-fit:contain;"">
                            </div>
                        </div>","97","html-slider-response",62,309296,"0.0-58.0","rjp8f4zb1p",11,"","","","","","",0,"",NA,"","Angry","images/12_angry_hi_md_1_Set1_ascend_smlg_bar.png",NA,NA
NA,"<div style=""width:500px;"">
                            <p style=""font-size:50px; font-weight:bold;""
                            >Angry</p>
                            <div style=""width:480px; margin: auto;"">
                                <img src=""images/12_angry_med_lo_3_Pastel1_ascend_lgsm_bar.png"" width=""480"" height=""420"" style=""object-fit:contain;"">
                            </div>
                        </div>","-145","html-slider-response",63,311027,"0.0-59.0","rjp8f4zb1p",11,"","","","","","",0,"",NA,"","Angry","images/12_angry_med_lo_3_Pastel1_ascend_lgsm_bar.png",NA,NA
NA,"<div style=""width:500px;"">
                            <p style=""font-size:50px; font-weight:bold;""
                            >Angry</p>
                            <div style=""width:480px; margin: auto;"">
                                <img src=""images/12_angry_med_lo_1_tab20c_decend_lgsm_bar.png"" width=""480"" height=""420"" style=""object-fit:contain;"">
                            </div>
                        </div>","-103","html-slider-response",64,312610,"0.0-60.0","rjp8f4zb1p",11,"","","","","","",0,"",NA,"","Angry","images/12_angry_med_lo_1_tab20c_decend_lgsm_bar.png",NA,NA
NA,"<div style=""width:500px;"">
                            <p style=""font-size:50px; font-weight:bold;""
                            >Angry</p>
                            <div style=""width:480px; margin: auto;"">
                                <img src=""images/12_angry_hi_lo_2_tab20c_ascend_lgsm_bar.png"" width=""480"" height=""420"" style=""object-fit:contain;"">
                            </div>
                        </div>","17","html-slider-response",65,314327,"0.0-61.0","rjp8f4zb1p",11,"","","","","","",0,"",NA,"","Angry","images/12_angry_hi_lo_2_tab20c_ascend_lgsm_bar.png",NA,NA
NA,"<div style=""width:500px;"">
                            <p style=""font-size:50px; font-weight:bold;""
                            >Angry</p>
                            <div style=""width:480px; margin: auto;"">
                                <img src=""images/12_angry_hi_hi_1_tab20_ascend_smlg_bar.png"" width=""480"" height=""420"" style=""object-fit:contain;"">
                            </div>
                        </div>","73","html-slider-response",66,316064,"0.0-62.0","rjp8f4zb1p",11,"","","","","","",0,"",NA,"","Angry","images/12_angry_hi_hi_1_tab20_ascend_smlg_bar.png",NA,NA
NA,"<div style=""width:500px;"">
                            <p style=""font-size:50px; font-weight:bold;""
                            >Angry</p>
                            <div style=""width:480px; margin: auto;"">
                                <img src=""images/12_angry_hi_lo_3_Paired_ascend_smlg_bar.png"" width=""480"" height=""420"" style=""object-fit:contain;"">
                            </div>
                        </div>","90","html-slider-response",67,317928,"0.0-63.0","rjp8f4zb1p",11,"","","","","","",0,"",NA,"","Angry","images/12_angry_hi_lo_3_Paired_ascend_smlg_bar.png",NA,NA
NA,"<div style=""width:500px;"">
                            <p style=""font-size:50px; font-weight:bold;""
                            >Angry</p>
                            <div style=""width:480px; margin: auto;"">
                                <img src=""images/12_angry_med_med_1_tab20b_decend_lgsm_bar.png"" width=""480"" height=""420"" style=""object-fit:contain;"">
                            </div>
                        </div>","63","html-slider-response",68,319693,"0.0-64.0","rjp8f4zb1p",11,"","","","","","",0,"",NA,"","Angry","images/12_angry_med_med_1_tab20b_decend_lgsm_bar.png",NA,NA
NA,"<div style=""width:500px;"">
                            <p style=""font-size:50px; font-weight:bold;""
                            >Angry</p>
                            <div style=""width:480px; margin: auto;"">
                                <img src=""images/12_angry_hi_md_2_tab20_ascend_smlg_bar.png"" width=""480"" height=""420"" style=""object-fit:contain;"">
                            </div>
                        </div>","155","html-slider-response",69,321878,"0.0-65.0","rjp8f4zb1p",11,"","","","","","",0,"",NA,"","Angry","images/12_angry_hi_md_2_tab20_ascend_smlg_bar.png",NA,NA
NA,"<div style=""width:500px;"">
                            <p style=""font-size:50px; font-weight:bold;""
                            >Angry</p>
                            <div style=""width:480px; margin: auto;"">
                                <img src=""images/12_angry_lo_lo_1_tab20c_ascend_smlg_bar.png"" width=""480"" height=""420"" style=""object-fit:contain;"">
                            </div>
                        </div>","-142","html-slider-response",70,323910,"0.0-66.0","rjp8f4zb1p",11,"","","","","","",0,"",NA,"","Angry","images/12_angry_lo_lo_1_tab20c_ascend_smlg_bar.png",NA,NA
NA,"<div style=""width:500px;"">
                            <p style=""font-size:50px; font-weight:bold;""
                            >Angry</p>
                            <div style=""width:480px; margin: auto;"">
                                <img src=""images/12_angry_med_lo_3_Pastel1_ascend_smlg_bar.png"" width=""480"" height=""420"" style=""object-fit:contain;"">
                            </div>
                        </div>","-135","html-slider-response",71,326278,"0.0-67.0","rjp8f4zb1p",11,"","","","","","",0,"",NA,"","Angry","images/12_angry_med_lo_3_Pastel1_ascend_smlg_bar.png",NA,NA
NA,"<div style=""width:500px;"">
                            <p style=""font-size:50px; font-weight:bold;""
                            >Angry</p>
                            <div style=""width:480px; margin: auto;"">
                                <img src=""images/12_angry_lo_lo_2_Pastel1_decend_lgsm_bar.png"" width=""480"" height=""420"" style=""object-fit:contain;"">
                            </div>
                        </div>","-88","html-slider-response",72,328511,"0.0-68.0","rjp8f4zb1p",11,"","","","","","",0,"",NA,"","Angry","images/12_angry_lo_lo_2_Pastel1_decend_lgsm_bar.png",NA,NA
NA,"<div style=""width:500px;"">
                            <p style=""font-size:50px; font-weight:bold;""
                            >Angry</p>
                            <div style=""width:480px; margin: auto;"">
                                <img src=""images/12_angry_hi_lo_1_tab20_ascend_smlg_bar.png"" width=""480"" height=""420"" style=""object-fit:contain;"">
                            </div>
                        </div>","65","html-slider-response",73,330028,"0.0-69.0","rjp8f4zb1p",11,"","","","","","",0,"",NA,"","Angry","images/12_angry_hi_lo_1_tab20_ascend_smlg_bar.png",NA,NA
NA,"<div style=""width:500px;"">
                            <p style=""font-size:50px; font-weight:bold;""
                            >Angry</p>
                            <div style=""width:480px; margin: auto;"">
                                <img src=""images/12_angry_hi_hi_2_Paired_ascend_lgsm_bar.png"" width=""480"" height=""420"" style=""object-fit:contain;"">
                            </div>
                        </div>","72","html-slider-response",74,331693,"0.0-70.0","rjp8f4zb1p",11,"","","","","","",0,"",NA,"","Angry","images/12_angry_hi_hi_2_Paired_ascend_lgsm_bar.png",NA,NA
NA,"<div style=""width:500px;"">
                            <p style=""font-size:50px; font-weight:bold;""
                            >Angry</p>
                            <div style=""width:480px; margin: auto;"">
                                <img src=""images/12_angry_hi_lo_3_Paired_ascend_lgsm_bar.png"" width=""480"" height=""420"" style=""object-fit:contain;"">
                            </div>
                        </div>","-57","html-slider-response",75,333311,"0.0-71.0","rjp8f4zb1p",11,"","","","","","",0,"",NA,"","Angry","images/12_angry_hi_lo_3_Paired_ascend_lgsm_bar.png",NA,NA
NA,"<div style=""width:500px;"">
                            <p style=""font-size:50px; font-weight:bold;""
                            >Angry</p>
                            <div style=""width:480px; margin: auto;"">
                                <img src=""images/12_angry_hi_md_2_tab20_ascend_lgsm_bar.png"" width=""480"" height=""420"" style=""object-fit:contain;"">
                            </div>
                        </div>","10","html-slider-response",76,337061,"0.0-72.0","rjp8f4zb1p",11,"","","","","","",0,"",NA,"","Angry","images/12_angry_hi_md_2_tab20_ascend_lgsm_bar.png",NA,NA
NA,"<div style=""width:500px;"">
                            <p style=""font-size:50px; font-weight:bold;""
                            >Angry</p>
                            <div style=""width:480px; margin: auto;"">
                                <img src=""images/12_angry_lo_lo_2_Pastel1_ascend_lgsm_bar.png"" width=""480"" height=""420"" style=""object-fit:contain;"">
                            </div>
                        </div>","-152","html-slider-response",77,338727,"0.0-73.0","rjp8f4zb1p",11,"","","","","","",0,"",NA,"","Angry","images/12_angry_lo_lo_2_Pastel1_ascend_lgsm_bar.png",NA,NA
NA,"<div style=""width:500px;"">
                            <p style=""font-size:50px; font-weight:bold;""
                            >Angry</p>
                            <div style=""width:480px; margin: auto;"">
                                <img src=""images/12_angry_med_med_3_Set1_ascend_lgsm_bar.png"" width=""480"" height=""420"" style=""object-fit:contain;"">
                            </div>
                        </div>","-159","html-slider-response",78,341195,"0.0-74.0","rjp8f4zb1p",11,"","","","","","",0,"",NA,"","Angry","images/12_angry_med_med_3_Set1_ascend_lgsm_bar.png",NA,NA
NA,"<div style=""width:500px;"">
                            <p style=""font-size:50px; font-weight:bold;""
                            >Angry</p>
                            <div style=""width:480px; margin: auto;"">
                                <img src=""images/12_angry_hi_lo_2_tab20c_ascend_smlg_bar.png"" width=""480"" height=""420"" style=""object-fit:contain;"">
                            </div>
                        </div>","77","html-slider-response",79,343361,"0.0-75.0","rjp8f4zb1p",11,"","","","","","",0,"",NA,"","Angry","images/12_angry_hi_lo_2_tab20c_ascend_smlg_bar.png",NA,NA
NA,"<div style=""width:500px;"">
                            <p style=""font-size:50px; font-weight:bold;""
                            >Angry</p>
                            <div style=""width:480px; margin: auto;"">
                                <img src=""images/12_angry_med_lo_3_Pastel1_decend_smlg_bar.png"" width=""480"" height=""420"" style=""object-fit:contain;"">
                            </div>
                        </div>","-38","html-slider-response",80,346777,"0.0-76.0","rjp8f4zb1p",11,"","","","","","",0,"",NA,"","Angry","images/12_angry_med_lo_3_Pastel1_decend_smlg_bar.png",NA,NA
NA,"<div style=""width:500px;"">
                            <p style=""font-size:50px; font-weight:bold;""
                            >Angry</p>
                            <div style=""width:480px; margin: auto;"">
                                <img src=""images/12_angry_hi_hi_3_tab10new_decend_lgsm_bar.png"" width=""480"" height=""420"" style=""object-fit:contain;"">
                            </div>
                        </div>","104","html-slider-response",81,348377,"0.0-77.0","rjp8f4zb1p",11,"","","","","","",0,"",NA,"","Angry","images/12_angry_hi_hi_3_tab10new_decend_lgsm_bar.png",NA,NA
NA,"<div style=""width:500px;"">
                            <p style=""font-size:50px; font-weight:bold;""
                            >Angry</p>
                            <div style=""width:480px; margin: auto;"">
                                <img src=""images/12_angry_med_lo_1_tab20c_decend_smlg_bar.png"" width=""480"" height=""420"" style=""object-fit:contain;"">
                            </div>
                        </div>","-72","html-slider-response",82,349961,"0.0-78.0","rjp8f4zb1p",11,"","","","","","",0,"",NA,"","Angry","images/12_angry_med_lo_1_tab20c_decend_smlg_bar.png",NA,NA
NA,"<div style=""width:500px;"">
                            <p style=""font-size:50px; font-weight:bold;""
                            >Angry</p>
                            <div style=""width:480px; margin: auto;"">
                                <img src=""images/12_angry_hi_md_3_Paired_decend_smlg_bar.png"" width=""480"" height=""420"" style=""object-fit:contain;"">
                            </div>
                        </div>","49","html-slider-response",83,351527,"0.0-79.0","rjp8f4zb1p",11,"","","","","","",0,"",NA,"","Angry","images/12_angry_hi_md_3_Paired_decend_smlg_bar.png",NA,NA
NA,"<div style=""width:500px;"">
                            <p style=""font-size:50px; font-weight:bold;""
                            >Angry</p>
                            <div style=""width:480px; margin: auto;"">
                                <img src=""images/12_angry_med_med_1_tab20b_ascend_smlg_bar.png"" width=""480"" height=""420"" style=""object-fit:contain;"">
                            </div>
                        </div>","-37","html-slider-response",84,353210,"0.0-80.0","rjp8f4zb1p",11,"","","","","","",0,"",NA,"","Angry","images/12_angry_med_med_1_tab20b_ascend_smlg_bar.png",NA,NA
NA,"<div style=""width:500px;"">
                            <p style=""font-size:50px; font-weight:bold;""
                            >Angry</p>
                            <div style=""width:480px; margin: auto;"">
                                <img src=""images/12_angry_hi_lo_3_Paired_decend_lgsm_bar.png"" width=""480"" height=""420"" style=""object-fit:contain;"">
                            </div>
                        </div>","109","html-slider-response",85,354928,"0.0-81.0","rjp8f4zb1p",11,"","","","","","",0,"",NA,"","Angry","images/12_angry_hi_lo_3_Paired_decend_lgsm_bar.png",NA,NA
NA,"<div style=""width:500px;"">
                            <p style=""font-size:50px; font-weight:bold;""
                            >Angry</p>
                            <div style=""width:480px; margin: auto;"">
                                <img src=""images/12_angry_hi_hi_1_tab20_ascend_lgsm_bar.png"" width=""480"" height=""420"" style=""object-fit:contain;"">
                            </div>
                        </div>","49","html-slider-response",86,358630,"0.0-82.0","rjp8f4zb1p",11,"","","","","","",0,"",NA,"","Angry","images/12_angry_hi_hi_1_tab20_ascend_lgsm_bar.png",NA,NA
NA,"<div style=""width:500px;"">
                            <p style=""font-size:50px; font-weight:bold;""
                            >Angry</p>
                            <div style=""width:480px; margin: auto;"">
                                <img src=""images/12_angry_med_med_1_tab20b_decend_smlg_bar.png"" width=""480"" height=""420"" style=""object-fit:contain;"">
                            </div>
                        </div>","-111","html-slider-response",87,360196,"0.0-83.0","rjp8f4zb1p",11,"","","","","","",0,"",NA,"","Angry","images/12_angry_med_med_1_tab20b_decend_smlg_bar.png",NA,NA
NA,"<div style=""width:500px;"">
                            <p style=""font-size:50px; font-weight:bold;""
                            >Angry</p>
                            <div style=""width:480px; margin: auto;"">
                                <img src=""images/12_angry_med_lo_2_Pastel2_decend_lgsm_bar.png"" width=""480"" height=""420"" style=""object-fit:contain;"">
                            </div>
                        </div>","-182","html-slider-response",88,361844,"0.0-84.0","rjp8f4zb1p",11,"","","","","","",0,"",NA,"","Angry","images/12_angry_med_lo_2_Pastel2_decend_lgsm_bar.png",NA,NA
NA,"<div style=""width:500px;"">
                            <p style=""font-size:50px; font-weight:bold;""
                            >Angry</p>
                            <div style=""width:480px; margin: auto;"">
                                <img src=""images/12_angry_hi_hi_1_tab20_decend_smlg_bar.png"" width=""480"" height=""420"" style=""object-fit:contain;"">
                            </div>
                        </div>","40","html-slider-response",89,363361,"0.0-85.0","rjp8f4zb1p",11,"","","","","","",0,"",NA,"","Angry","images/12_angry_hi_hi_1_tab20_decend_smlg_bar.png",NA,NA
2153,"<p>Great Job! You've finished block 1.<br></br> You have 4 block(s) left to go.<br></br></p>","0","html-button-response",90,366016,"0.0-86.0","rjp8f4zb1p",11,"","","","","","",NA,"",NA,"","","",NA,NA
833,"<p>In this block of trials, you will be asked to rate how much you associate each texture with the concept</p >
                        <p style = 'font-size:150%; font-weight: bold'>Happy</p><br></br>","0","html-button-response",91,366850,"0.0-87.0","rjp8f4zb1p",11,"","","","","","",NA,"",NA,"","","",NA,NA
NA,"<div style=""width:500px;"">
                            <p style=""font-size:50px; font-weight:bold;""
                            >Happy</p>
                            <div style=""width:480px; margin: auto;"">
                                <img src=""images/12_happy_hi_hi_1_Set1_decend_smlg_bar.png"" width=""480"" height=""420"" style=""object-fit:contain;"">
                            </div>
                        </div>","2","html-slider-response",92,368161,"0.0-88.0","rjp8f4zb1p",11,"","","","","","",0,"",NA,"","Happy","images/12_happy_hi_hi_1_Set1_decend_smlg_bar.png",NA,NA
NA,"<div style=""width:500px;"">
                            <p style=""font-size:50px; font-weight:bold;""
                            >Happy</p>
                            <div style=""width:480px; margin: auto;"">
                                <img src=""images/12_happy_hi_hi_2_tab20_ascend_lgsm_bar.png"" width=""480"" height=""420"" style=""object-fit:contain;"">
                            </div>
                        </div>","92","html-slider-response",93,370196,"0.0-89.0","rjp8f4zb1p",11,"","","","","","",0,"",NA,"","Happy","images/12_happy_hi_hi_2_tab20_ascend_lgsm_bar.png",NA,NA
NA,"<div style=""width:500px;"">
                            <p style=""font-size:50px; font-weight:bold;""
                            >Happy</p>
                            <div style=""width:480px; margin: auto;"">
                                <img src=""images/12_happy_hi_md_2_tab20_decend_smlg_bar.png"" width=""480"" height=""420"" style=""object-fit:contain;"">
                            </div>
                        </div>","-91","html-slider-response",94,373245,"0.0-90.0","rjp8f4zb1p",11,"","","","","","",0,"",NA,"","Happy","images/12_happy_hi_md_2_tab20_decend_smlg_bar.png",NA,NA
NA,"<div style=""width:500px;"">
                            <p style=""font-size:50px; font-weight:bold;""
                            >Happy</p>
                            <div style=""width:480px; margin: auto;"">
                                <img src=""images/12_happy_lo_lo_2_tab10new_ascend_lgsm_bar.png"" width=""480"" height=""420"" style=""object-fit:contain;"">
                            </div>
                        </div>","-38","html-slider-response",95,375493,"0.0-91.0","rjp8f4zb1p",11,"","","","","","",0,"",NA,"","Happy","images/12_happy_lo_lo_2_tab10new_ascend_lgsm_bar.png",NA,NA
NA,"<div style=""width:500px;"">
                            <p style=""font-size:50px; font-weight:bold;""
                            >Happy</p>
                            <div style=""width:480px; margin: auto;"">
                                <img src=""images/12_happy_med_med_2_tab20b_ascend_smlg_bar.png"" width=""480"" height=""420"" style=""object-fit:contain;"">
                            </div>
                        </div>","-19","html-slider-response",96,378544,"0.0-92.0","rjp8f4zb1p",11,"","","","","","",0,"",NA,"","Happy","images/12_happy_med_med_2_tab20b_ascend_smlg_bar.png",NA,NA
NA,"<div style=""width:500px;"">
                            <p style=""font-size:50px; font-weight:bold;""
                            >Happy</p>
                            <div style=""width:480px; margin: auto;"">
                                <img src=""images/12_happy_med_lo_2_tab20_decend_smlg_bar.png"" width=""480"" height=""420"" style=""object-fit:contain;"">
                            </div>
                        </div>","-54","html-slider-response",97,380279,"0.0-93.0","rjp8f4zb1p",11,"","","","","","",0,"",NA,"","Happy","images/12_happy_med_lo_2_tab20_decend_smlg_bar.png",NA,NA
NA,"<div style=""width:500px;"">
                            <p style=""font-size:50px; font-weight:bold;""
                            >Happy</p>
                            <div style=""width:480px; margin: auto;"">
                                <img src=""images/12_happy_med_lo_2_tab20_ascend_smlg_bar.png"" width=""480"" height=""420"" style=""object-fit:contain;"">
                            </div>
                        </div>","-85","html-slider-response",98,382076,"0.0-94.0","rjp8f4zb1p",11,"","","","","","",0,"",NA,"","Happy","images/12_happy_med_lo_2_tab20_ascend_smlg_bar.png",NA,NA
NA,"<div style=""width:500px;"">
                            <p style=""font-size:50px; font-weight:bold;""
                            >Happy</p>
                            <div style=""width:480px; margin: auto;"">
                                <img src=""images/12_happy_hi_lo_2_Set1_decend_lgsm_bar.png"" width=""480"" height=""420"" style=""object-fit:contain;"">
                            </div>
                        </div>","135","html-slider-response",99,383993,"0.0-95.0","rjp8f4zb1p",11,"","","","","","",0,"",NA,"","Happy","images/12_happy_hi_lo_2_Set1_decend_lgsm_bar.png",NA,NA
NA,"<div style=""width:500px;"">
                            <p style=""font-size:50px; font-weight:bold;""
                            >Happy</p>
                            <div style=""width:480px; margin: auto;"">
                                <img src=""images/12_happy_med_med_1_tab20c_decend_smlg_bar.png"" width=""480"" height=""420"" style=""object-fit:contain;"">
                            </div>
                        </div>","90","html-slider-response",100,386843,"0.0-96.0","rjp8f4zb1p",11,"","","","","","",0,"",NA,"","Happy","images/12_happy_med_med_1_tab20c_decend_smlg_bar.png",NA,NA
NA,"<div style=""width:500px;"">
                            <p style=""font-size:50px; font-weight:bold;""
                            >Happy</p>
                            <div style=""width:480px; margin: auto;"">
                                <img src=""images/12_happy_hi_lo_2_Set1_ascend_lgsm_bar.png"" width=""480"" height=""420"" style=""object-fit:contain;"">
                            </div>
                        </div>","-70","html-slider-response",101,388511,"0.0-97.0","rjp8f4zb1p",11,"","","","","","",0,"",NA,"","Happy","images/12_happy_hi_lo_2_Set1_ascend_lgsm_bar.png",NA,NA
NA,"<div style=""width:500px;"">
                            <p style=""font-size:50px; font-weight:bold;""
                            >Happy</p>
                            <div style=""width:480px; margin: auto;"">
                                <img src=""images/12_happy_hi_md_2_tab20_ascend_smlg_bar.png"" width=""480"" height=""420"" style=""object-fit:contain;"">
                            </div>
                        </div>","66","html-slider-response",102,390760,"0.0-98.0","rjp8f4zb1p",11,"","","","","","",0,"",NA,"","Happy","images/12_happy_hi_md_2_tab20_ascend_smlg_bar.png",NA,NA
NA,"<div style=""width:500px;"">
                            <p style=""font-size:50px; font-weight:bold;""
                            >Happy</p>
                            <div style=""width:480px; margin: auto;"">
                                <img src=""images/12_happy_hi_hi_3_Paired_decend_lgsm_bar.png"" width=""480"" height=""420"" style=""object-fit:contain;"">
                            </div>
                        </div>","65","html-slider-response",103,392793,"0.0-99.0","rjp8f4zb1p",11,"","","","","","",0,"",NA,"","Happy","images/12_happy_hi_hi_3_Paired_decend_lgsm_bar.png",NA,NA
NA,"<div style=""width:500px;"">
                            <p style=""font-size:50px; font-weight:bold;""
                            >Happy</p>
                            <div style=""width:480px; margin: auto;"">
                                <img src=""images/12_happy_med_lo_2_tab20_ascend_lgsm_bar.png"" width=""480"" height=""420"" style=""object-fit:contain;"">
                            </div>
                        </div>","-35","html-slider-response",104,394728,"0.0-100.0","rjp8f4zb1p",11,"","","","","","",0,"",NA,"","Happy","images/12_happy_med_lo_2_tab20_ascend_lgsm_bar.png",NA,NA
NA,"<div style=""width:500px;"">
                            <p style=""font-size:50px; font-weight:bold;""
                            >Happy</p>
                            <div style=""width:480px; margin: auto;"">
                                <img src=""images/12_happy_hi_md_3_Set2_decend_smlg_bar.png"" width=""480"" height=""420"" style=""object-fit:contain;"">
                            </div>
                        </div>","86","html-slider-response",105,396543,"0.0-101.0","rjp8f4zb1p",11,"","","","","","",0,"",NA,"","Happy","images/12_happy_hi_md_3_Set2_decend_smlg_bar.png",NA,NA
NA,"<div style=""width:500px;"">
                            <p style=""font-size:50px; font-weight:bold;""
                            >Happy</p>
                            <div style=""width:480px; margin: auto;"">
                                <img src=""images/12_happy_lo_lo_1_tab20b_decend_lgsm_bar.png"" width=""480"" height=""420"" style=""object-fit:contain;"">
                            </div>
                        </div>","-123","html-slider-response",106,398393,"0.0-102.0","rjp8f4zb1p",11,"","","","","","",0,"",NA,"","Happy","images/12_happy_lo_lo_1_tab20b_decend_lgsm_bar.png",NA,NA
NA,"<div style=""width:500px;"">
                            <p style=""font-size:50px; font-weight:bold;""
                            >Happy</p>
                            <div style=""width:480px; margin: auto;"">
                                <img src=""images/12_happy_hi_hi_2_tab20_decend_smlg_bar.png"" width=""480"" height=""420"" style=""object-fit:contain;"">
                            </div>
                        </div>","129","html-slider-response",107,400427,"0.0-103.0","rjp8f4zb1p",11,"","","","","","",0,"",NA,"","Happy","images/12_happy_hi_hi_2_tab20_decend_smlg_bar.png",NA,NA
NA,"<div style=""width:500px;"">
                            <p style=""font-size:50px; font-weight:bold;""
                            >Happy</p>
                            <div style=""width:480px; margin: auto;"">
                                <img src=""images/12_happy_med_lo_3_tab10new_decend_smlg_bar.png"" width=""480"" height=""420"" style=""object-fit:contain;"">
                            </div>
                        </div>","-84","html-slider-response",108,402028,"0.0-104.0","rjp8f4zb1p",11,"","","","","","",0,"",NA,"","Happy","images/12_happy_med_lo_3_tab10new_decend_smlg_bar.png",NA,NA
NA,"<div style=""width:500px;"">
                            <p style=""font-size:50px; font-weight:bold;""
                            >Happy</p>
                            <div style=""width:480px; margin: auto;"">
                                <img src=""images/12_happy_hi_md_2_tab20_ascend_lgsm_bar.png"" width=""480"" height=""420"" style=""object-fit:contain;"">
                            </div>
                        </div>","46","html-slider-response",109,404211,"0.0-105.0","rjp8f4zb1p",11,"","","","","","",0,"",NA,"","Happy","images/12_happy_hi_md_2_tab20_ascend_lgsm_bar.png",NA,NA
NA,"<div style=""width:500px;"">
                            <p style=""font-size:50px; font-weight:bold;""
                            >Happy</p>
                            <div style=""width:480px; margin: auto;"">
                                <img src=""images/12_happy_hi_lo_1_tab20_decend_smlg_bar.png"" width=""480"" height=""420"" style=""object-fit:contain;"">
                            </div>
                        </div>","-27","html-slider-response",110,405893,"0.0-106.0","rjp8f4zb1p",11,"","","","","","",0,"",NA,"","Happy","images/12_happy_hi_lo_1_tab20_decend_smlg_bar.png",NA,NA
NA,"<div style=""width:500px;"">
                            <p style=""font-size:50px; font-weight:bold;""
                            >Happy</p>
                            <div style=""width:480px; margin: auto;"">
                                <img src=""images/12_happy_lo_lo_1_tab20b_ascend_lgsm_bar.png"" width=""480"" height=""420"" style=""object-fit:contain;"">
                            </div>
                        </div>","-62","html-slider-response",111,407278,"0.0-107.0","rjp8f4zb1p",11,"","","","","","",0,"",NA,"","Happy","images/12_happy_lo_lo_1_tab20b_ascend_lgsm_bar.png",NA,NA
NA,"<div style=""width:500px;"">
                            <p style=""font-size:50px; font-weight:bold;""
                            >Happy</p>
                            <div style=""width:480px; margin: auto;"">
                                <img src=""images/12_happy_med_med_2_tab20b_decend_smlg_bar.png"" width=""480"" height=""420"" style=""object-fit:contain;"">
                            </div>
                        </div>","106","html-slider-response",112,409193,"0.0-108.0","rjp8f4zb1p",11,"","","","","","",0,"",NA,"","Happy","images/12_happy_med_med_2_tab20b_decend_smlg_bar.png",NA,NA
NA,"<div style=""width:500px;"">
                            <p style=""font-size:50px; font-weight:bold;""
                            >Happy</p>
                            <div style=""width:480px; margin: auto;"">
                                <img src=""images/12_happy_hi_md_3_Set2_decend_lgsm_bar.png"" width=""480"" height=""420"" style=""object-fit:contain;"">
                            </div>
                        </div>","153","html-slider-response",113,411509,"0.0-109.0","rjp8f4zb1p",11,"","","","","","",0,"",NA,"","Happy","images/12_happy_hi_md_3_Set2_decend_lgsm_bar.png",NA,NA
NA,"<div style=""width:500px;"">
                            <p style=""font-size:50px; font-weight:bold;""
                            >Happy</p>
                            <div style=""width:480px; margin: auto;"">
                                <img src=""images/12_happy_med_med_2_tab20b_decend_lgsm_bar.png"" width=""480"" height=""420"" style=""object-fit:contain;"">
                            </div>
                        </div>","55","html-slider-response",114,413743,"0.0-110.0","rjp8f4zb1p",11,"","","","","","",0,"",NA,"","Happy","images/12_happy_med_med_2_tab20b_decend_lgsm_bar.png",NA,NA
NA,"<div style=""width:500px;"">
                            <p style=""font-size:50px; font-weight:bold;""
                            >Happy</p>
                            <div style=""width:480px; margin: auto;"">
                                <img src=""images/12_happy_lo_lo_3_tab20_decend_lgsm_bar.png"" width=""480"" height=""420"" style=""object-fit:contain;"">
                            </div>
                        </div>","-78","html-slider-response",115,415278,"0.0-111.0","rjp8f4zb1p",11,"","","","","","",0,"",NA,"","Happy","images/12_happy_lo_lo_3_tab20_decend_lgsm_bar.png",NA,NA
NA,"<div style=""width:500px;"">
                            <p style=""font-size:50px; font-weight:bold;""
                            >Happy</p>
                            <div style=""width:480px; margin: auto;"">
                                <img src=""images/12_happy_lo_lo_3_tab20_ascend_lgsm_bar.png"" width=""480"" height=""420"" style=""object-fit:contain;"">
                            </div>
                        </div>","-85","html-slider-response",116,417730,"0.0-112.0","rjp8f4zb1p",11,"","","","","","",0,"",NA,"","Happy","images/12_happy_lo_lo_3_tab20_ascend_lgsm_bar.png",NA,NA
NA,"<div style=""width:500px;"">
                            <p style=""font-size:50px; font-weight:bold;""
                            >Happy</p>
                            <div style=""width:480px; margin: auto;"">
                                <img src=""images/12_happy_med_lo_1_tab20b_decend_smlg_bar.png"" width=""480"" height=""420"" style=""object-fit:contain;"">
                            </div>
                        </div>","-67","html-slider-response",117,421027,"0.0-113.0","rjp8f4zb1p",11,"","","","","","",0,"",NA,"","Happy","images/12_happy_med_lo_1_tab20b_decend_smlg_bar.png",NA,NA
NA,"<div style=""width:500px;"">
                            <p style=""font-size:50px; font-weight:bold;""
                            >Happy</p>
                            <div style=""width:480px; margin: auto;"">
                                <img src=""images/12_happy_hi_md_3_Set2_ascend_lgsm_bar.png"" width=""480"" height=""420"" style=""object-fit:contain;"">
                            </div>
                        </div>","102","html-slider-response",118,423545,"0.0-114.0","rjp8f4zb1p",11,"","","","","","",0,"",NA,"","Happy","images/12_happy_hi_md_3_Set2_ascend_lgsm_bar.png",NA,NA
NA,"<div style=""width:500px;"">
                            <p style=""font-size:50px; font-weight:bold;""
                            >Happy</p>
                            <div style=""width:480px; margin: auto;"">
                                <img src=""images/12_happy_hi_lo_2_Set1_decend_smlg_bar.png"" width=""480"" height=""420"" style=""object-fit:contain;"">
                            </div>
                        </div>","-67","html-slider-response",119,425093,"0.0-115.0","rjp8f4zb1p",11,"","","","","","",0,"",NA,"","Happy","images/12_happy_hi_lo_2_Set1_decend_smlg_bar.png",NA,NA
NA,"<div style=""width:500px;"">
                            <p style=""font-size:50px; font-weight:bold;""
                            >Happy</p>
                            <div style=""width:480px; margin: auto;"">
                                <img src=""images/12_happy_hi_md_1_Set1_ascend_lgsm_bar.png"" width=""480"" height=""420"" style=""object-fit:contain;"">
                            </div>
                        </div>","-115","html-slider-response",120,426844,"0.0-116.0","rjp8f4zb1p",11,"","","","","","",0,"",NA,"","Happy","images/12_happy_hi_md_1_Set1_ascend_lgsm_bar.png",NA,NA
NA,"<div style=""width:500px;"">
                            <p style=""font-size:50px; font-weight:bold;""
                            >Happy</p>
                            <div style=""width:480px; margin: auto;"">
                                <img src=""images/12_happy_hi_lo_3_Dark2_decend_smlg_bar.png"" width=""480"" height=""420"" style=""object-fit:contain;"">
                            </div>
                        </div>","-66","html-slider-response",121,428660,"0.0-117.0","rjp8f4zb1p",11,"","","","","","",0,"",NA,"","Happy","images/12_happy_hi_lo_3_Dark2_decend_smlg_bar.png",NA,NA
NA,"<div style=""width:500px;"">
                            <p style=""font-size:50px; font-weight:bold;""
                            >Happy</p>
                            <div style=""width:480px; margin: auto;"">
                                <img src=""images/12_happy_hi_lo_1_tab20_ascend_smlg_bar.png"" width=""480"" height=""420"" style=""object-fit:contain;"">
                            </div>
                        </div>","34","html-slider-response",122,430678,"0.0-118.0","rjp8f4zb1p",11,"","","","","","",0,"",NA,"","Happy","images/12_happy_hi_lo_1_tab20_ascend_smlg_bar.png",NA,NA
NA,"<div style=""width:500px;"">
                            <p style=""font-size:50px; font-weight:bold;""
                            >Happy</p>
                            <div style=""width:480px; margin: auto;"">
                                <img src=""images/12_happy_med_lo_1_tab20b_ascend_lgsm_bar.png"" width=""480"" height=""420"" style=""object-fit:contain;"">
                            </div>
                        </div>","-38","html-slider-response",123,432112,"0.0-119.0","rjp8f4zb1p",11,"","","","","","",0,"",NA,"","Happy","images/12_happy_med_lo_1_tab20b_ascend_lgsm_bar.png",NA,NA
NA,"<div style=""width:500px;"">
                            <p style=""font-size:50px; font-weight:bold;""
                            >Happy</p>
                            <div style=""width:480px; margin: auto;"">
                                <img src=""images/12_happy_lo_lo_3_tab20_ascend_smlg_bar.png"" width=""480"" height=""420"" style=""object-fit:contain;"">
                            </div>
                        </div>","-37","html-slider-response",124,434098,"0.0-120.0","rjp8f4zb1p",11,"","","","","","",0,"",NA,"","Happy","images/12_happy_lo_lo_3_tab20_ascend_smlg_bar.png",NA,NA
NA,"<div style=""width:500px;"">
                            <p style=""font-size:50px; font-weight:bold;""
                            >Happy</p>
                            <div style=""width:480px; margin: auto;"">
                                <img src=""images/12_happy_hi_md_1_Set1_ascend_smlg_bar.png"" width=""480"" height=""420"" style=""object-fit:contain;"">
                            </div>
                        </div>","-29","html-slider-response",125,436678,"0.0-121.0","rjp8f4zb1p",11,"","","","","","",0,"",NA,"","Happy","images/12_happy_hi_md_1_Set1_ascend_smlg_bar.png",NA,NA
NA,"<div style=""width:500px;"">
                            <p style=""font-size:50px; font-weight:bold;""
                            >Happy</p>
                            <div style=""width:480px; margin: auto;"">
                                <img src=""images/12_happy_hi_lo_2_Set1_ascend_smlg_bar.png"" width=""480"" height=""420"" style=""object-fit:contain;"">
                            </div>
                        </div>","-36","html-slider-response",126,438597,"0.0-122.0","rjp8f4zb1p",11,"","","","","","",0,"",NA,"","Happy","images/12_happy_hi_lo_2_Set1_ascend_smlg_bar.png",NA,NA
NA,"<div style=""width:500px;"">
                            <p style=""font-size:50px; font-weight:bold;""
                            >Happy</p>
                            <div style=""width:480px; margin: auto;"">
                                <img src=""images/12_happy_med_lo_3_tab10new_decend_lgsm_bar.png"" width=""480"" height=""420"" style=""object-fit:contain;"">
                            </div>
                        </div>","42","html-slider-response",127,440560,"0.0-123.0","rjp8f4zb1p",11,"","","","","","",0,"",NA,"","Happy","images/12_happy_med_lo_3_tab10new_decend_lgsm_bar.png",NA,NA
NA,"<div style=""width:500px;"">
                            <p style=""font-size:50px; font-weight:bold;""
                            >Happy</p>
                            <div style=""width:480px; margin: auto;"">
                                <img src=""images/12_happy_med_lo_1_tab20b_decend_lgsm_bar.png"" width=""480"" height=""420"" style=""object-fit:contain;"">
                            </div>
                        </div>","-55","html-slider-response",128,442561,"0.0-124.0","rjp8f4zb1p",11,"","","","","","",0,"",NA,"","Happy","images/12_happy_med_lo_1_tab20b_decend_lgsm_bar.png",NA,NA
NA,"<div style=""width:500px;"">
                            <p style=""font-size:50px; font-weight:bold;""
                            >Happy</p>
                            <div style=""width:480px; margin: auto;"">
                                <img src=""images/12_happy_lo_lo_2_tab10new_ascend_smlg_bar.png"" width=""480"" height=""420"" style=""object-fit:contain;"">
                            </div>
                        </div>","21","html-slider-response",129,445495,"0.0-125.0","rjp8f4zb1p",11,"","","","","","",0,"",NA,"","Happy","images/12_happy_lo_lo_2_tab10new_ascend_smlg_bar.png",NA,NA
NA,"<div style=""width:500px;"">
                            <p style=""font-size:50px; font-weight:bold;""
                            >Happy</p>
                            <div style=""width:480px; margin: auto;"">
                                <img src=""images/12_happy_hi_md_3_Set2_ascend_smlg_bar.png"" width=""480"" height=""420"" style=""object-fit:contain;"">
                            </div>
                        </div>","54","html-slider-response",130,446945,"0.0-126.0","rjp8f4zb1p",11,"","","","","","",0,"",NA,"","Happy","images/12_happy_hi_md_3_Set2_ascend_smlg_bar.png",NA,NA
NA,"<div style=""width:500px;"">
                            <p style=""font-size:50px; font-weight:bold;""
                            >Happy</p>
                            <div style=""width:480px; margin: auto;"">
                                <img src=""images/12_happy_hi_hi_1_Set1_decend_lgsm_bar.png"" width=""480"" height=""420"" style=""object-fit:contain;"">
                            </div>
                        </div>","110","html-slider-response",131,449010,"0.0-127.0","rjp8f4zb1p",11,"","","","","","",0,"",NA,"","Happy","images/12_happy_hi_hi_1_Set1_decend_lgsm_bar.png",NA,NA
NA,"<div style=""width:500px;"">
                            <p style=""font-size:50px; font-weight:bold;""
                            >Happy</p>
                            <div style=""width:480px; margin: auto;"">
                                <img src=""images/12_happy_lo_lo_2_tab10new_decend_smlg_bar.png"" width=""480"" height=""420"" style=""object-fit:contain;"">
                            </div>
                        </div>","-38","html-slider-response",132,450659,"0.0-128.0","rjp8f4zb1p",11,"","","","","","",0,"",NA,"","Happy","images/12_happy_lo_lo_2_tab10new_decend_smlg_bar.png",NA,NA
NA,"<div style=""width:500px;"">
                            <p style=""font-size:50px; font-weight:bold;""
                            >Happy</p>
                            <div style=""width:480px; margin: auto;"">
                                <img src=""images/12_happy_med_med_1_tab20c_ascend_lgsm_bar.png"" width=""480"" height=""420"" style=""object-fit:contain;"">
                            </div>
                        </div>","33","html-slider-response",133,453644,"0.0-129.0","rjp8f4zb1p",11,"","","","","","",0,"",NA,"","Happy","images/12_happy_med_med_1_tab20c_ascend_lgsm_bar.png",NA,NA
NA,"<div style=""width:500px;"">
                            <p style=""font-size:50px; font-weight:bold;""
                            >Happy</p>
                            <div style=""width:480px; margin: auto;"">
                                <img src=""images/12_happy_lo_lo_1_tab20b_ascend_smlg_bar.png"" width=""480"" height=""420"" style=""object-fit:contain;"">
                            </div>
                        </div>","-67","html-slider-response",134,455461,"0.0-130.0","rjp8f4zb1p",11,"","","","","","",0,"",NA,"","Happy","images/12_happy_lo_lo_1_tab20b_ascend_smlg_bar.png",NA,NA
NA,"<div style=""width:500px;"">
                            <p style=""font-size:50px; font-weight:bold;""
                            >Happy</p>
                            <div style=""width:480px; margin: auto;"">
                                <img src=""images/12_happy_med_lo_3_tab10new_ascend_lgsm_bar.png"" width=""480"" height=""420"" style=""object-fit:contain;"">
                            </div>
                        </div>","-49","html-slider-response",135,457193,"0.0-131.0","rjp8f4zb1p",11,"","","","","","",0,"",NA,"","Happy","images/12_happy_med_lo_3_tab10new_ascend_lgsm_bar.png",NA,NA
NA,"<div style=""width:500px;"">
                            <p style=""font-size:50px; font-weight:bold;""
                            >Happy</p>
                            <div style=""width:480px; margin: auto;"">
                                <img src=""images/12_happy_med_med_1_tab20c_decend_lgsm_bar.png"" width=""480"" height=""420"" style=""object-fit:contain;"">
                            </div>
                        </div>","58","html-slider-response",136,458726,"0.0-132.0","rjp8f4zb1p",11,"","","","","","",0,"",NA,"","Happy","images/12_happy_med_med_1_tab20c_decend_lgsm_bar.png",NA,NA
NA,"<div style=""width:500px;"">
                            <p style=""font-size:50px; font-weight:bold;""
                            >Happy</p>
                            <div style=""width:480px; margin: auto;"">
                                <img src=""images/12_happy_lo_lo_3_tab20_decend_smlg_bar.png"" width=""480"" height=""420"" style=""object-fit:contain;"">
                            </div>
                        </div>","-44","html-slider-response",137,460443,"0.0-133.0","rjp8f4zb1p",11,"","","","","","",0,"",NA,"","Happy","images/12_happy_lo_lo_3_tab20_decend_smlg_bar.png",NA,NA
NA,"<div style=""width:500px;"">
                            <p style=""font-size:50px; font-weight:bold;""
                            >Happy</p>
                            <div style=""width:480px; margin: auto;"">
                                <img src=""images/12_happy_hi_md_1_Set1_decend_lgsm_bar.png"" width=""480"" height=""420"" style=""object-fit:contain;"">
                            </div>
                        </div>","96","html-slider-response",138,461963,"0.0-134.0","rjp8f4zb1p",11,"","","","","","",0,"",NA,"","Happy","images/12_happy_hi_md_1_Set1_decend_lgsm_bar.png",NA,NA
NA,"<div style=""width:500px;"">
                            <p style=""font-size:50px; font-weight:bold;""
                            >Happy</p>
                            <div style=""width:480px; margin: auto;"">
                                <img src=""images/12_happy_lo_lo_1_tab20b_decend_smlg_bar.png"" width=""480"" height=""420"" style=""object-fit:contain;"">
                            </div>
                        </div>","-90","html-slider-response",139,463460,"0.0-135.0","rjp8f4zb1p",11,"","","","","","",0,"",NA,"","Happy","images/12_happy_lo_lo_1_tab20b_decend_smlg_bar.png",NA,NA
NA,"<div style=""width:500px;"">
                            <p style=""font-size:50px; font-weight:bold;""
                            >Happy</p>
                            <div style=""width:480px; margin: auto;"">
                                <img src=""images/12_happy_lo_lo_2_tab10new_decend_lgsm_bar.png"" width=""480"" height=""420"" style=""object-fit:contain;"">
                            </div>
                        </div>","-48","html-slider-response",140,465410,"0.0-136.0","rjp8f4zb1p",11,"","","","","","",0,"",NA,"","Happy","images/12_happy_lo_lo_2_tab10new_decend_lgsm_bar.png",NA,NA
NA,"<div style=""width:500px;"">
                            <p style=""font-size:50px; font-weight:bold;""
                            >Happy</p>
                            <div style=""width:480px; margin: auto;"">
                                <img src=""images/12_happy_med_lo_2_tab20_decend_lgsm_bar.png"" width=""480"" height=""420"" style=""object-fit:contain;"">
                            </div>
                        </div>","-49","html-slider-response",141,467011,"0.0-137.0","rjp8f4zb1p",11,"","","","","","",0,"",NA,"","Happy","images/12_happy_med_lo_2_tab20_decend_lgsm_bar.png",NA,NA
NA,"<div style=""width:500px;"">
                            <p style=""font-size:50px; font-weight:bold;""
                            >Happy</p>
                            <div style=""width:480px; margin: auto;"">
                                <img src=""images/12_happy_hi_lo_1_tab20_decend_lgsm_bar.png"" width=""480"" height=""420"" style=""object-fit:contain;"">
                            </div>
                        </div>","108","html-slider-response",142,468677,"0.0-138.0","rjp8f4zb1p",11,"","","","","","",0,"",NA,"","Happy","images/12_happy_hi_lo_1_tab20_decend_lgsm_bar.png",NA,NA
NA,"<div style=""width:500px;"">
                            <p style=""font-size:50px; font-weight:bold;""
                            >Happy</p>
                            <div style=""width:480px; margin: auto;"">
                                <img src=""images/12_happy_hi_md_2_tab20_decend_lgsm_bar.png"" width=""480"" height=""420"" style=""object-fit:contain;"">
                            </div>
                        </div>","59","html-slider-response",143,470478,"0.0-139.0","rjp8f4zb1p",11,"","","","","","",0,"",NA,"","Happy","images/12_happy_hi_md_2_tab20_decend_lgsm_bar.png",NA,NA
NA,"<div style=""width:500px;"">
                            <p style=""font-size:50px; font-weight:bold;""
                            >Happy</p>
                            <div style=""width:480px; margin: auto;"">
                                <img src=""images/12_happy_hi_lo_3_Dark2_ascend_lgsm_bar.png"" width=""480"" height=""420"" style=""object-fit:contain;"">
                            </div>
                        </div>","-73","html-slider-response",144,474093,"0.0-140.0","rjp8f4zb1p",11,"","","","","","",0,"",NA,"","Happy","images/12_happy_hi_lo_3_Dark2_ascend_lgsm_bar.png",NA,NA
NA,"<div style=""width:500px;"">
                            <p style=""font-size:50px; font-weight:bold;""
                            >Happy</p>
                            <div style=""width:480px; margin: auto;"">
                                <img src=""images/12_happy_med_lo_3_tab10new_ascend_smlg_bar.png"" width=""480"" height=""420"" style=""object-fit:contain;"">
                            </div>
                        </div>","71","html-slider-response",145,476143,"0.0-141.0","rjp8f4zb1p",11,"","","","","","",0,"",NA,"","Happy","images/12_happy_med_lo_3_tab10new_ascend_smlg_bar.png",NA,NA
NA,"<div style=""width:500px;"">
                            <p style=""font-size:50px; font-weight:bold;""
                            >Happy</p>
                            <div style=""width:480px; margin: auto;"">
                                <img src=""images/12_happy_med_med_3_Set3_ascend_smlg_bar.png"" width=""480"" height=""420"" style=""object-fit:contain;"">
                            </div>
                        </div>","102","html-slider-response",146,478160,"0.0-142.0","rjp8f4zb1p",11,"","","","","","",0,"",NA,"","Happy","images/12_happy_med_med_3_Set3_ascend_smlg_bar.png",NA,NA
NA,"<div style=""width:500px;"">
                            <p style=""font-size:50px; font-weight:bold;""
                            >Happy</p>
                            <div style=""width:480px; margin: auto;"">
                                <img src=""images/12_happy_hi_hi_1_Set1_ascend_lgsm_bar.png"" width=""480"" height=""420"" style=""object-fit:contain;"">
                            </div>
                        </div>","36","html-slider-response",147,479361,"0.0-143.0","rjp8f4zb1p",11,"","","","","","",0,"",NA,"","Happy","images/12_happy_hi_hi_1_Set1_ascend_lgsm_bar.png",NA,NA
NA,"<div style=""width:500px;"">
                            <p style=""font-size:50px; font-weight:bold;""
                            >Happy</p>
                            <div style=""width:480px; margin: auto;"">
                                <img src=""images/12_happy_hi_hi_3_Paired_ascend_smlg_bar.png"" width=""480"" height=""420"" style=""object-fit:contain;"">
                            </div>
                        </div>","74","html-slider-response",148,481211,"0.0-144.0","rjp8f4zb1p",11,"","","","","","",0,"",NA,"","Happy","images/12_happy_hi_hi_3_Paired_ascend_smlg_bar.png",NA,NA
NA,"<div style=""width:500px;"">
                            <p style=""font-size:50px; font-weight:bold;""
                            >Happy</p>
                            <div style=""width:480px; margin: auto;"">
                                <img src=""images/12_happy_med_med_3_Set3_decend_lgsm_bar.png"" width=""480"" height=""420"" style=""object-fit:contain;"">
                            </div>
                        </div>","-88","html-slider-response",149,482761,"0.0-145.0","rjp8f4zb1p",11,"","","","","","",0,"",NA,"","Happy","images/12_happy_med_med_3_Set3_decend_lgsm_bar.png",NA,NA
NA,"<div style=""width:500px;"">
                            <p style=""font-size:50px; font-weight:bold;""
                            >Happy</p>
                            <div style=""width:480px; margin: auto;"">
                                <img src=""images/12_happy_hi_lo_3_Dark2_ascend_smlg_bar.png"" width=""480"" height=""420"" style=""object-fit:contain;"">
                            </div>
                        </div>","-103","html-slider-response",150,484762,"0.0-146.0","rjp8f4zb1p",11,"","","","","","",0,"",NA,"","Happy","images/12_happy_hi_lo_3_Dark2_ascend_smlg_bar.png",NA,NA
NA,"<div style=""width:500px;"">
                            <p style=""font-size:50px; font-weight:bold;""
                            >Happy</p>
                            <div style=""width:480px; margin: auto;"">
                                <img src=""images/12_happy_hi_hi_1_Set1_ascend_smlg_bar.png"" width=""480"" height=""420"" style=""object-fit:contain;"">
                            </div>
                        </div>","94","html-slider-response",151,486645,"0.0-147.0","rjp8f4zb1p",11,"","","","","","",0,"",NA,"","Happy","images/12_happy_hi_hi_1_Set1_ascend_smlg_bar.png",NA,NA
NA,"<div style=""width:500px;"">
                            <p style=""font-size:50px; font-weight:bold;""
                            >Happy</p>
                            <div style=""width:480px; margin: auto;"">
                                <img src=""images/12_happy_hi_hi_2_tab20_decend_lgsm_bar.png"" width=""480"" height=""420"" style=""object-fit:contain;"">
                            </div>
                        </div>","122","html-slider-response",152,488194,"0.0-148.0","rjp8f4zb1p",11,"","","","","","",0,"",NA,"","Happy","images/12_happy_hi_hi_2_tab20_decend_lgsm_bar.png",NA,NA
NA,"<div style=""width:500px;"">
                            <p style=""font-size:50px; font-weight:bold;""
                            >Happy</p>
                            <div style=""width:480px; margin: auto;"">
                                <img src=""images/12_happy_med_lo_1_tab20b_ascend_smlg_bar.png"" width=""480"" height=""420"" style=""object-fit:contain;"">
                            </div>
                        </div>","-39","html-slider-response",153,489861,"0.0-149.0","rjp8f4zb1p",11,"","","","","","",0,"",NA,"","Happy","images/12_happy_med_lo_1_tab20b_ascend_smlg_bar.png",NA,NA
NA,"<div style=""width:500px;"">
                            <p style=""font-size:50px; font-weight:bold;""
                            >Happy</p>
                            <div style=""width:480px; margin: auto;"">
                                <img src=""images/12_happy_hi_md_1_Set1_decend_smlg_bar.png"" width=""480"" height=""420"" style=""object-fit:contain;"">
                            </div>
                        </div>","-134","html-slider-response",154,491910,"0.0-150.0","rjp8f4zb1p",11,"","","","","","",0,"",NA,"","Happy","images/12_happy_hi_md_1_Set1_decend_smlg_bar.png",NA,NA
NA,"<div style=""width:500px;"">
                            <p style=""font-size:50px; font-weight:bold;""
                            >Happy</p>
                            <div style=""width:480px; margin: auto;"">
                                <img src=""images/12_happy_med_med_3_Set3_ascend_lgsm_bar.png"" width=""480"" height=""420"" style=""object-fit:contain;"">
                            </div>
                        </div>","-52","html-slider-response",155,494176,"0.0-151.0","rjp8f4zb1p",11,"","","","","","",0,"",NA,"","Happy","images/12_happy_med_med_3_Set3_ascend_lgsm_bar.png",NA,NA
NA,"<div style=""width:500px;"">
                            <p style=""font-size:50px; font-weight:bold;""
                            >Happy</p>
                            <div style=""width:480px; margin: auto;"">
                                <img src=""images/12_happy_med_med_2_tab20b_ascend_lgsm_bar.png"" width=""480"" height=""420"" style=""object-fit:contain;"">
                            </div>
                        </div>","51","html-slider-response",156,496828,"0.0-152.0","rjp8f4zb1p",11,"","","","","","",0,"",NA,"","Happy","images/12_happy_med_med_2_tab20b_ascend_lgsm_bar.png",NA,NA
NA,"<div style=""width:500px;"">
                            <p style=""font-size:50px; font-weight:bold;""
                            >Happy</p>
                            <div style=""width:480px; margin: auto;"">
                                <img src=""images/12_happy_hi_hi_3_Paired_decend_smlg_bar.png"" width=""480"" height=""420"" style=""object-fit:contain;"">
                            </div>
                        </div>","83","html-slider-response",157,498713,"0.0-153.0","rjp8f4zb1p",11,"","","","","","",0,"",NA,"","Happy","images/12_happy_hi_hi_3_Paired_decend_smlg_bar.png",NA,NA
NA,"<div style=""width:500px;"">
                            <p style=""font-size:50px; font-weight:bold;""
                            >Happy</p>
                            <div style=""width:480px; margin: auto;"">
                                <img src=""images/12_happy_med_med_3_Set3_decend_smlg_bar.png"" width=""480"" height=""420"" style=""object-fit:contain;"">
                            </div>
                        </div>","81","html-slider-response",158,500295,"0.0-154.0","rjp8f4zb1p",11,"","","","","","",0,"",NA,"","Happy","images/12_happy_med_med_3_Set3_decend_smlg_bar.png",NA,NA
NA,"<div style=""width:500px;"">
                            <p style=""font-size:50px; font-weight:bold;""
                            >Happy</p>
                            <div style=""width:480px; margin: auto;"">
                                <img src=""images/12_happy_hi_lo_1_tab20_ascend_lgsm_bar.png"" width=""480"" height=""420"" style=""object-fit:contain;"">
                            </div>
                        </div>","-41","html-slider-response",159,501929,"0.0-155.0","rjp8f4zb1p",11,"","","","","","",0,"",NA,"","Happy","images/12_happy_hi_lo_1_tab20_ascend_lgsm_bar.png",NA,NA
NA,"<div style=""width:500px;"">
                            <p style=""font-size:50px; font-weight:bold;""
                            >Happy</p>
                            <div style=""width:480px; margin: auto;"">
                                <img src=""images/12_happy_hi_hi_3_Paired_ascend_lgsm_bar.png"" width=""480"" height=""420"" style=""object-fit:contain;"">
                            </div>
                        </div>","32","html-slider-response",160,503744,"0.0-156.0","rjp8f4zb1p",11,"","","","","","",0,"",NA,"","Happy","images/12_happy_hi_hi_3_Paired_ascend_lgsm_bar.png",NA,NA
NA,"<div style=""width:500px;"">
                            <p style=""font-size:50px; font-weight:bold;""
                            >Happy</p>
                            <div style=""width:480px; margin: auto;"">
                                <img src=""images/12_happy_hi_lo_3_Dark2_decend_lgsm_bar.png"" width=""480"" height=""420"" style=""object-fit:contain;"">
                            </div>
                        </div>","36","html-slider-response",161,505296,"0.0-157.0","rjp8f4zb1p",11,"","","","","","",0,"",NA,"","Happy","images/12_happy_hi_lo_3_Dark2_decend_lgsm_bar.png",NA,NA
NA,"<div style=""width:500px;"">
                            <p style=""font-size:50px; font-weight:bold;""
                            >Happy</p>
                            <div style=""width:480px; margin: auto;"">
                                <img src=""images/12_happy_hi_hi_2_tab20_ascend_smlg_bar.png"" width=""480"" height=""420"" style=""object-fit:contain;"">
                            </div>
                        </div>","151","html-slider-response",162,507494,"0.0-158.0","rjp8f4zb1p",11,"","","","","","",0,"",NA,"","Happy","images/12_happy_hi_hi_2_tab20_ascend_smlg_bar.png",NA,NA
NA,"<div style=""width:500px;"">
                            <p style=""font-size:50px; font-weight:bold;""
                            >Happy</p>
                            <div style=""width:480px; margin: auto;"">
                                <img src=""images/12_happy_med_med_1_tab20c_ascend_smlg_bar.png"" width=""480"" height=""420"" style=""object-fit:contain;"">
                            </div>
                        </div>","78","html-slider-response",163,509610,"0.0-159.0","rjp8f4zb1p",11,"","","","","","",0,"",NA,"","Happy","images/12_happy_med_med_1_tab20c_ascend_smlg_bar.png",NA,NA
1738,"<p>Great Job! You've finished block 2.<br></br> You have 3 block(s) left to go.<br></br></p>","0","html-button-response",164,511850,"0.0-160.0","rjp8f4zb1p",11,"","","","","","",NA,"",NA,"","","",NA,NA
682,"<p>In this block of trials, you will be asked to rate how much you associate each texture with the concept</p >
                        <p style = 'font-size:150%; font-weight: bold'>Disgust</p><br></br>","0","html-button-response",165,512533,"0.0-161.0","rjp8f4zb1p",11,"","","","","","",NA,"",NA,"","","",NA,NA
NA,"<div style=""width:500px;"">
                            <p style=""font-size:50px; font-weight:bold;""
                            >Disgust</p>
                            <div style=""width:480px; margin: auto;"">
                                <img src=""images/12_disgust_lo_lo_3_tab20_ascend_smlg_bar.png"" width=""480"" height=""420"" style=""object-fit:contain;"">
                            </div>
                        </div>","50","html-slider-response",166,514628,"0.0-162.0","rjp8f4zb1p",11,"","","","","","",0,"",NA,"","Disgust","images/12_disgust_lo_lo_3_tab20_ascend_smlg_bar.png",NA,NA
NA,"<div style=""width:500px;"">
                            <p style=""font-size:50px; font-weight:bold;""
                            >Disgust</p>
                            <div style=""width:480px; margin: auto;"">
                                <img src=""images/12_disgust_med_lo_2_tab20_decend_lgsm_bar.png"" width=""480"" height=""420"" style=""object-fit:contain;"">
                            </div>
                        </div>","-50","html-slider-response",167,516243,"0.0-163.0","rjp8f4zb1p",11,"","","","","","",0,"",NA,"","Disgust","images/12_disgust_med_lo_2_tab20_decend_lgsm_bar.png",NA,NA
NA,"<div style=""width:500px;"">
                            <p style=""font-size:50px; font-weight:bold;""
                            >Disgust</p>
                            <div style=""width:480px; margin: auto;"">
                                <img src=""images/12_disgust_med_lo_1_tab20c_decend_smlg_bar.png"" width=""480"" height=""420"" style=""object-fit:contain;"">
                            </div>
                        </div>","-62","html-slider-response",168,519845,"0.0-164.0","rjp8f4zb1p",11,"","","","","","",0,"",NA,"","Disgust","images/12_disgust_med_lo_1_tab20c_decend_smlg_bar.png",NA,NA
NA,"<div style=""width:500px;"">
                            <p style=""font-size:50px; font-weight:bold;""
                            >Disgust</p>
                            <div style=""width:480px; margin: auto;"">
