"rt","stimulus","response","trial_type","trial_index","time_elapsed","internal_node_id","subject_id","condition_num","success","timeout","failed_images","failed_audio","failed_video","question_order","slider_start","practiceTrial","practiceTrialNum","correct","concept","texture_id","ishihara_plate","correct_response"
4323,"Welcome to our experiment!<p>At the bottom of this screen, you will see a button that says ""Begin Experiment"".<br>Please only click that button when you are ready to complete the 30 minute experiment in one sitting.</p><p> Once you click that button, it will not be possible to restart the experiment.","0","html-button-response",0,4326,"0.0-0.0","tba6e0sshv",22,"","","","","","",NA,"",NA,"","","",NA,NA
NA,"","","preload",1,7725,"0.0-1.0","tba6e0sshv",22,"true","false","[]","[]","[]","",NA,"",NA,"","","",NA,NA
1697,"","","fullscreen",2,10426,"0.0-2.0","tba6e0sshv",22,"true","","","","","",NA,"",NA,"","","",NA,NA
41303,"","{""Consent"":[""<strong>I consent</strong>""]}","survey-multi-select",3,51733,"0.0-3.0","tba6e0sshv",22,"","","","","","[0]",NA,"",NA,"","","",NA,NA
2969,"Welcome! <p> This experiment involves two parts: demographic information, followed by the experimental task.<p> It will take about 30 minutes to complete both parts.","0","html-button-response",4,54704,"0.0-4.0","tba6e0sshv",22,"","","","","","",NA,"",NA,"","","",NA,NA
9885,"","{""Age"":""18"",""Gender"":""Female"",""Race/ethnicity"":""White"",""Languages"":""English""}","survey-text",5,64603,"0.0-5.0","tba6e0sshv",22,"","","","","","",NA,"",NA,"","","",NA,NA
34611,"
                        <div>
                            <div style='text-align:left; font-size:18px; line-height:25px; width: 1300px;'>
                                During this experiment you will be asked to rate how much you associate charts with                                different concepts. Below, you can see some examples of the charts you will be asked to rate. Above the charts
                                is the list of concepts. You will be asked
                                to rate how much you associate each chart with each concept on a scale from 'not at all' to 'very much' like the
                                one below. <br>

                        <div style=""text-align: left; width: 1300px;"">
                            <p style=""font-size:18px; line-height:20px; text-align:center; font-weight:bold"">
                                Sad, Angry, Disgust, Happy, Fearful
                            </p>
                        </div>

                        <div style=""display: flex; justify-content: center; width: 100%;"">
                            <div style=""
                                display: grid;
                                grid-template-columns: repeat(5, 1fr);
                                gap: 8px;
                                padding: 10px;
                                width: 900px;  
                                margin: 0 auto;
                            "">
                                
                                    <div style=""width: 100%;"">
                                        <img src=""images/23_fearful_hi_hi_1_tab20b_decend_lgsm_bar.png"" style=""width: 100%; height: auto; object-fit: contain;"">
                                    </div>
                                
                                    <div style=""width: 100%;"">
                                        <img src=""images/23_happy_lo_lo_1_tab20b_decend_smlg_bar.png"" style=""width: 100%; height: auto; object-fit: contain;"">
                                    </div>
                                
                                    <div style=""width: 100%;"">
                                        <img src=""images/23_happy_hi_hi_1_Set1_ascend_smlg_bar.png"" style=""width: 100%; height: auto; object-fit: contain;"">
                                    </div>
                                
                                    <div style=""width: 100%;"">
                                        <img src=""images/23_angry_hi_hi_1_tab20_decend_smlg_bar.png"" style=""width: 100%; height: auto; object-fit: contain;"">
                                    </div>
                                
                                    <div style=""width: 100%;"">
                                        <img src=""images/23_angry_lo_lo_1_tab20c_decend_lgsm_bar.png"" style=""width: 100%; height: auto; object-fit: contain;"">
                                    </div>
                                
                                    <div style=""width: 100%;"">
                                        <img src=""images/23_disgust_lo_lo_1_tab20c_decend_lgsm_bar.png"" style=""width: 100%; height: auto; object-fit: contain;"">
                                    </div>
                                
                                    <div style=""width: 100%;"">
                                        <img src=""images/23_fearful_lo_lo_1_Pastel1_decend_lgsm_bar.png"" style=""width: 100%; height: auto; object-fit: contain;"">
                                    </div>
                                
                                    <div style=""width: 100%;"">
                                        <img src=""images/23_sad_hi_hi_1_tab20_decend_lgsm_bar.png"" style=""width: 100%; height: auto; object-fit: contain;"">
                                    </div>
                                
                                    <div style=""width: 100%;"">
                                        <img src=""images/23_disgust_hi_hi_1_tab20b_ascend_smlg_bar.png"" style=""width: 100%; height: auto; object-fit: contain;"">
                                    </div>
                                
                                    <div style=""width: 100%;"">
                                        <img src=""images/23_sad_lo_lo_1_Set1_ascend_lgsm_bar.png"" style=""width: 100%; height: auto; object-fit: contain;"">
                                    </div>
                                
                            </div>
                        </div>
                    </div>
                </div>
                    ","null","html-slider-response",6,99218,"0.0-6.0","tba6e0sshv",22,"","","","","","",0,"true",NA,"","","",NA,NA
11744,"<div style=""width:1300px;""><p style=""text-align:left"">To move the slider, click and drag your cursor to the location of the scale where you would like to make your rating and then let go. When you let go of the slider, your response will be recorded and the next trial will begin. <br>
                    We are interested in your initial impressions of each chart for a given concept, so please go with your first intuition. 
                    Before you begin the experiment, there will be four training trials for you to practice using the slider. 
                     When you are ready to start the training trials, please click ""Continue"".</p><br></div>","0","html-button-response",7,110963,"0.0-7.0","tba6e0sshv",22,"","","","","","",NA,"",NA,"","","",NA,NA
NA,"<div style=""width:500px;"">
                                    <p style=""font-size:25px;"">Please move the slider all the way to the <br> right endpoint of the scale</p>

                                    </div>
                                </div>","200","html-slider-response",8,114333,"0.0-8.0-0.0","tba6e0sshv",22,"","","","","","",0,"true",0,"true","","",NA,NA
1082,"<p align='center'><b>Good job!</b> Click on 'Continue' to proceed.</p>","0","html-button-response",9,115918,"0.0-8.0-1.0","tba6e0sshv",22,"","","","","","",NA,"",NA,"","","",NA,NA
NA,"<div style=""width:500px;"">
                                    <p style=""font-size:25px;"">Please move the slider all the way to the <br> left endpoint of the scale</p>

                                    </div>
                                </div>","-200","html-slider-response",10,117599,"0.0-9.0-0.0","tba6e0sshv",22,"","","","","","",0,"true",1,"true","","",NA,NA
708,"<p align='center'><b>Good job!</b> Click on 'Continue' to proceed.</p>","0","html-button-response",11,118810,"0.0-9.0-1.0","tba6e0sshv",22,"","","","","","",NA,"",NA,"","","",NA,NA
NA,"<div style=""width:500px;"">
                                    <p style=""font-size:25px;"">Please move the slider halfway between the center and right endpoint of the scale</p>

                                    </div>
                                </div>","106","html-slider-response",12,122205,"0.0-10.0-0.0","tba6e0sshv",22,"","","","","","",0,"true",2,"true","","",NA,NA
613,"<p align='center'><b>Good job!</b> Click on 'Continue' to proceed.</p>","0","html-button-response",13,123324,"0.0-10.0-1.0","tba6e0sshv",22,"","","","","","",NA,"",NA,"","","",NA,NA
NA,"<div style=""width:500px;"">
                                    <p style=""font-size:25px;"">Please move the slider halfway between the center and left endpoint of the scale</p>

                                    </div>
                                </div>","-102","html-slider-response",14,125459,"0.0-11.0-0.0","tba6e0sshv",22,"","","","","","",0,"true",3,"true","","",NA,NA
775,"<p align='center'><b>Good job!</b> Click on 'Continue' to proceed.</p>","0","html-button-response",15,126737,"0.0-11.0-1.0","tba6e0sshv",22,"","","","","","",NA,"",NA,"","","",NA,NA
1086,"<p>Great job! You've completed the practice trials. Now you will begin the main task.</p>","0","html-button-response",16,127824,"0.0-12.0","tba6e0sshv",22,"","","","","","",NA,"",NA,"","","",NA,NA
3978,"<p>In this block of trials, you will be asked to rate how much you associate each texture with the concept</p >
                        <p style = 'font-size:150%; font-weight: bold'>Sad</p><br></br>","0","html-button-response",17,131804,"0.0-13.0","tba6e0sshv",22,"","","","","","",NA,"",NA,"","","",NA,NA
NA,"<div style=""width:500px;"">
                            <p style=""font-size:50px; font-weight:bold;""
                            >Sad</p>
                            <div style=""width:480px; margin: auto;"">
                                <img src=""images/23_sad_med_med_2_tab10new_decend_lgsm_bar.png"" width=""480"" height=""420"" style=""object-fit:contain;"">
                            </div>
                        </div>","-48","html-slider-response",18,135714,"0.0-14.0","tba6e0sshv",22,"","","","","","",0,"",NA,"","Sad","images/23_sad_med_med_2_tab10new_decend_lgsm_bar.png",NA,NA
NA,"<div style=""width:500px;"">
                            <p style=""font-size:50px; font-weight:bold;""
                            >Sad</p>
                            <div style=""width:480px; margin: auto;"">
                                <img src=""images/23_sad_hi_md_1_tab20_ascend_smlg_bar.png"" width=""480"" height=""420"" style=""object-fit:contain;"">
                            </div>
                        </div>","86","html-slider-response",19,138509,"0.0-15.0","tba6e0sshv",22,"","","","","","",0,"",NA,"","Sad","images/23_sad_hi_md_1_tab20_ascend_smlg_bar.png",NA,NA
NA,"<div style=""width:500px;"">
                            <p style=""font-size:50px; font-weight:bold;""
                            >Sad</p>
                            <div style=""width:480px; margin: auto;"">
                                <img src=""images/23_sad_hi_lo_2_Set1_ascend_lgsm_bar.png"" width=""480"" height=""420"" style=""object-fit:contain;"">
                            </div>
                        </div>","-139","html-slider-response",20,140877,"0.0-16.0","tba6e0sshv",22,"","","","","","",0,"",NA,"","Sad","images/23_sad_hi_lo_2_Set1_ascend_lgsm_bar.png",NA,NA
NA,"<div style=""width:500px;"">
                            <p style=""font-size:50px; font-weight:bold;""
                            >Sad</p>
                            <div style=""width:480px; margin: auto;"">
                                <img src=""images/23_sad_hi_hi_1_tab20_decend_lgsm_bar.png"" width=""480"" height=""420"" style=""object-fit:contain;"">
                            </div>
                        </div>","155","html-slider-response",21,143191,"0.0-17.0","tba6e0sshv",22,"","","","","","",0,"",NA,"","Sad","images/23_sad_hi_hi_1_tab20_decend_lgsm_bar.png",NA,NA
NA,"<div style=""width:500px;"">
                            <p style=""font-size:50px; font-weight:bold;""
                            >Sad</p>
                            <div style=""width:480px; margin: auto;"">
                                <img src=""images/23_sad_med_med_1_tab20_ascend_lgsm_bar.png"" width=""480"" height=""420"" style=""object-fit:contain;"">
                            </div>
                        </div>","-116","html-slider-response",22,145704,"0.0-18.0","tba6e0sshv",22,"","","","","","",0,"",NA,"","Sad","images/23_sad_med_med_1_tab20_ascend_lgsm_bar.png",NA,NA
NA,"<div style=""width:500px;"">
                            <p style=""font-size:50px; font-weight:bold;""
                            >Sad</p>
                            <div style=""width:480px; margin: auto;"">
                                <img src=""images/23_sad_hi_md_3_Accent_ascend_smlg_bar.png"" width=""480"" height=""420"" style=""object-fit:contain;"">
                            </div>
                        </div>","31","html-slider-response",23,147818,"0.0-19.0","tba6e0sshv",22,"","","","","","",0,"",NA,"","Sad","images/23_sad_hi_md_3_Accent_ascend_smlg_bar.png",NA,NA
NA,"<div style=""width:500px;"">
                            <p style=""font-size:50px; font-weight:bold;""
                            >Sad</p>
                            <div style=""width:480px; margin: auto;"">
                                <img src=""images/23_sad_hi_lo_1_tab20c_decend_lgsm_bar.png"" width=""480"" height=""420"" style=""object-fit:contain;"">
                            </div>
                        </div>","78","html-slider-response",24,150175,"0.0-20.0","tba6e0sshv",22,"","","","","","",0,"",NA,"","Sad","images/23_sad_hi_lo_1_tab20c_decend_lgsm_bar.png",NA,NA
NA,"<div style=""width:500px;"">
                            <p style=""font-size:50px; font-weight:bold;""
                            >Sad</p>
                            <div style=""width:480px; margin: auto;"">
                                <img src=""images/23_sad_med_lo_3_tab20_ascend_smlg_bar.png"" width=""480"" height=""420"" style=""object-fit:contain;"">
                            </div>
                        </div>","-200","html-slider-response",25,152727,"0.0-21.0","tba6e0sshv",22,"","","","","","",0,"",NA,"","Sad","images/23_sad_med_lo_3_tab20_ascend_smlg_bar.png",NA,NA
NA,"<div style=""width:500px;"">
                            <p style=""font-size:50px; font-weight:bold;""
                            >Sad</p>
                            <div style=""width:480px; margin: auto;"">
                                <img src=""images/23_sad_hi_hi_1_tab20_decend_smlg_bar.png"" width=""480"" height=""420"" style=""object-fit:contain;"">
                            </div>
                        </div>","124","html-slider-response",26,154943,"0.0-22.0","tba6e0sshv",22,"","","","","","",0,"",NA,"","Sad","images/23_sad_hi_hi_1_tab20_decend_smlg_bar.png",NA,NA
NA,"<div style=""width:500px;"">
                            <p style=""font-size:50px; font-weight:bold;""
                            >Sad</p>
                            <div style=""width:480px; margin: auto;"">
                                <img src=""images/23_sad_lo_lo_1_Set1_decend_lgsm_bar.png"" width=""480"" height=""420"" style=""object-fit:contain;"">
                            </div>
                        </div>","-200","html-slider-response",27,157021,"0.0-23.0","tba6e0sshv",22,"","","","","","",0,"",NA,"","Sad","images/23_sad_lo_lo_1_Set1_decend_lgsm_bar.png",NA,NA
NA,"<div style=""width:500px;"">
                            <p style=""font-size:50px; font-weight:bold;""
                            >Sad</p>
                            <div style=""width:480px; margin: auto;"">
                                <img src=""images/23_sad_med_lo_3_tab20_decend_smlg_bar.png"" width=""480"" height=""420"" style=""object-fit:contain;"">
                            </div>
                        </div>","-200","html-slider-response",28,159183,"0.0-24.0","tba6e0sshv",22,"","","","","","",0,"",NA,"","Sad","images/23_sad_med_lo_3_tab20_decend_smlg_bar.png",NA,NA
NA,"<div style=""width:500px;"">
                            <p style=""font-size:50px; font-weight:bold;""
                            >Sad</p>
                            <div style=""width:480px; margin: auto;"">
                                <img src=""images/23_sad_hi_lo_1_tab20c_ascend_lgsm_bar.png"" width=""480"" height=""420"" style=""object-fit:contain;"">
                            </div>
                        </div>","-73","html-slider-response",29,162137,"0.0-25.0","tba6e0sshv",22,"","","","","","",0,"",NA,"","Sad","images/23_sad_hi_lo_1_tab20c_ascend_lgsm_bar.png",NA,NA
NA,"<div style=""width:500px;"">
                            <p style=""font-size:50px; font-weight:bold;""
                            >Sad</p>
                            <div style=""width:480px; margin: auto;"">
                                <img src=""images/23_sad_hi_md_2_Set1_decend_smlg_bar.png"" width=""480"" height=""420"" style=""object-fit:contain;"">
                            </div>
                        </div>","-100","html-slider-response",30,164466,"0.0-26.0","tba6e0sshv",22,"","","","","","",0,"",NA,"","Sad","images/23_sad_hi_md_2_Set1_decend_smlg_bar.png",NA,NA
NA,"<div style=""width:500px;"">
                            <p style=""font-size:50px; font-weight:bold;""
                            >Sad</p>
                            <div style=""width:480px; margin: auto;"">
                                <img src=""images/23_sad_hi_lo_3_Accent_decend_lgsm_bar.png"" width=""480"" height=""420"" style=""object-fit:contain;"">
                            </div>
                        </div>","-150","html-slider-response",31,168439,"0.0-27.0","tba6e0sshv",22,"","","","","","",0,"",NA,"","Sad","images/23_sad_hi_lo_3_Accent_decend_lgsm_bar.png",NA,NA
NA,"<div style=""width:500px;"">
                            <p style=""font-size:50px; font-weight:bold;""
                            >Sad</p>
                            <div style=""width:480px; margin: auto;"">
                                <img src=""images/23_sad_hi_hi_3_Set3_decend_smlg_bar.png"" width=""480"" height=""420"" style=""object-fit:contain;"">
                            </div>
                        </div>","62","html-slider-response",32,170550,"0.0-28.0","tba6e0sshv",22,"","","","","","",0,"",NA,"","Sad","images/23_sad_hi_hi_3_Set3_decend_smlg_bar.png",NA,NA
NA,"<div style=""width:500px;"">
                            <p style=""font-size:50px; font-weight:bold;""
                            >Sad</p>
                            <div style=""width:480px; margin: auto;"">
                                <img src=""images/23_sad_med_med_3_tab20b_decend_smlg_bar.png"" width=""480"" height=""420"" style=""object-fit:contain;"">
                            </div>
                        </div>","98","html-slider-response",33,172738,"0.0-29.0","tba6e0sshv",22,"","","","","","",0,"",NA,"","Sad","images/23_sad_med_med_3_tab20b_decend_smlg_bar.png",NA,NA
NA,"<div style=""width:500px;"">
                            <p style=""font-size:50px; font-weight:bold;""
                            >Sad</p>
                            <div style=""width:480px; margin: auto;"">
                                <img src=""images/23_sad_med_med_2_tab10new_decend_smlg_bar.png"" width=""480"" height=""420"" style=""object-fit:contain;"">
                            </div>
                        </div>","103","html-slider-response",34,175369,"0.0-30.0","tba6e0sshv",22,"","","","","","",0,"",NA,"","Sad","images/23_sad_med_med_2_tab10new_decend_smlg_bar.png",NA,NA
NA,"<div style=""width:500px;"">
                            <p style=""font-size:50px; font-weight:bold;""
                            >Sad</p>
                            <div style=""width:480px; margin: auto;"">
                                <img src=""images/23_sad_med_med_1_tab20_ascend_smlg_bar.png"" width=""480"" height=""420"" style=""object-fit:contain;"">
                            </div>
                        </div>","-77","html-slider-response",35,177516,"0.0-31.0","tba6e0sshv",22,"","","","","","",0,"",NA,"","Sad","images/23_sad_med_med_1_tab20_ascend_smlg_bar.png",NA,NA
NA,"<div style=""width:500px;"">
                            <p style=""font-size:50px; font-weight:bold;""
                            >Sad</p>
                            <div style=""width:480px; margin: auto;"">
                                <img src=""images/23_sad_hi_md_3_Accent_ascend_lgsm_bar.png"" width=""480"" height=""420"" style=""object-fit:contain;"">
                            </div>
                        </div>","38","html-slider-response",36,179546,"0.0-32.0","tba6e0sshv",22,"","","","","","",0,"",NA,"","Sad","images/23_sad_hi_md_3_Accent_ascend_lgsm_bar.png",NA,NA
NA,"<div style=""width:500px;"">
                            <p style=""font-size:50px; font-weight:bold;""
                            >Sad</p>
                            <div style=""width:480px; margin: auto;"">
                                <img src=""images/23_sad_lo_lo_2_Paired_ascend_lgsm_bar.png"" width=""480"" height=""420"" style=""object-fit:contain;"">
                            </div>
                        </div>","-122","html-slider-response",37,181568,"0.0-33.0","tba6e0sshv",22,"","","","","","",0,"",NA,"","Sad","images/23_sad_lo_lo_2_Paired_ascend_lgsm_bar.png",NA,NA
NA,"<div style=""width:500px;"">
                            <p style=""font-size:50px; font-weight:bold;""
                            >Sad</p>
                            <div style=""width:480px; margin: auto;"">
                                <img src=""images/23_sad_hi_md_1_tab20_decend_smlg_bar.png"" width=""480"" height=""420"" style=""object-fit:contain;"">
                            </div>
                        </div>","18","html-slider-response",38,183404,"0.0-34.0","tba6e0sshv",22,"","","","","","",0,"",NA,"","Sad","images/23_sad_hi_md_1_tab20_decend_smlg_bar.png",NA,NA
NA,"<div style=""width:500px;"">
                            <p style=""font-size:50px; font-weight:bold;""
                            >Sad</p>
                            <div style=""width:480px; margin: auto;"">
                                <img src=""images/23_sad_hi_md_3_Accent_decend_smlg_bar.png"" width=""480"" height=""420"" style=""object-fit:contain;"">
                            </div>
                        </div>","56","html-slider-response",39,185675,"0.0-35.0","tba6e0sshv",22,"","","","","","",0,"",NA,"","Sad","images/23_sad_hi_md_3_Accent_decend_smlg_bar.png",NA,NA
NA,"<div style=""width:500px;"">
                            <p style=""font-size:50px; font-weight:bold;""
                            >Sad</p>
                            <div style=""width:480px; margin: auto;"">
                                <img src=""images/23_sad_med_med_2_tab10new_ascend_smlg_bar.png"" width=""480"" height=""420"" style=""object-fit:contain;"">
                            </div>
                        </div>","-29","html-slider-response",40,187593,"0.0-36.0","tba6e0sshv",22,"","","","","","",0,"",NA,"","Sad","images/23_sad_med_med_2_tab10new_ascend_smlg_bar.png",NA,NA
NA,"<div style=""width:500px;"">
                            <p style=""font-size:50px; font-weight:bold;""
                            >Sad</p>
                            <div style=""width:480px; margin: auto;"">
                                <img src=""images/23_sad_med_med_1_tab20_decend_smlg_bar.png"" width=""480"" height=""420"" style=""object-fit:contain;"">
                            </div>
                        </div>","-57","html-slider-response",41,189357,"0.0-37.0","tba6e0sshv",22,"","","","","","",0,"",NA,"","Sad","images/23_sad_med_med_1_tab20_decend_smlg_bar.png",NA,NA
NA,"<div style=""width:500px;"">
                            <p style=""font-size:50px; font-weight:bold;""
                            >Sad</p>
                            <div style=""width:480px; margin: auto;"">
                                <img src=""images/23_sad_hi_lo_1_tab20c_decend_smlg_bar.png"" width=""480"" height=""420"" style=""object-fit:contain;"">
                            </div>
                        </div>","59","html-slider-response",42,191432,"0.0-38.0","tba6e0sshv",22,"","","","","","",0,"",NA,"","Sad","images/23_sad_hi_lo_1_tab20c_decend_smlg_bar.png",NA,NA
NA,"<div style=""width:500px;"">
                            <p style=""font-size:50px; font-weight:bold;""
                            >Sad</p>
                            <div style=""width:480px; margin: auto;"">
                                <img src=""images/23_sad_hi_hi_2_Paired_decend_lgsm_bar.png"" width=""480"" height=""420"" style=""object-fit:contain;"">
                            </div>
                        </div>","-78","html-slider-response",43,193701,"0.0-39.0","tba6e0sshv",22,"","","","","","",0,"",NA,"","Sad","images/23_sad_hi_hi_2_Paired_decend_lgsm_bar.png",NA,NA
NA,"<div style=""width:500px;"">
                            <p style=""font-size:50px; font-weight:bold;""
                            >Sad</p>
                            <div style=""width:480px; margin: auto;"">
                                <img src=""images/23_sad_hi_md_2_Set1_decend_lgsm_bar.png"" width=""480"" height=""420"" style=""object-fit:contain;"">
                            </div>
                        </div>","62","html-slider-response",44,196408,"0.0-40.0","tba6e0sshv",22,"","","","","","",0,"",NA,"","Sad","images/23_sad_hi_md_2_Set1_decend_lgsm_bar.png",NA,NA
NA,"<div style=""width:500px;"">
                            <p style=""font-size:50px; font-weight:bold;""
                            >Sad</p>
                            <div style=""width:480px; margin: auto;"">
                                <img src=""images/23_sad_med_lo_2_Paired_decend_smlg_bar.png"" width=""480"" height=""420"" style=""object-fit:contain;"">
                            </div>
                        </div>","-139","html-slider-response",45,199007,"0.0-41.0","tba6e0sshv",22,"","","","","","",0,"",NA,"","Sad","images/23_sad_med_lo_2_Paired_decend_smlg_bar.png",NA,NA
NA,"<div style=""width:500px;"">
                            <p style=""font-size:50px; font-weight:bold;""
                            >Sad</p>
                            <div style=""width:480px; margin: auto;"">
                                <img src=""images/23_sad_med_lo_2_Paired_decend_lgsm_bar.png"" width=""480"" height=""420"" style=""object-fit:contain;"">
                            </div>
                        </div>","-134","html-slider-response",46,202320,"0.0-42.0","tba6e0sshv",22,"","","","","","",0,"",NA,"","Sad","images/23_sad_med_lo_2_Paired_decend_lgsm_bar.png",NA,NA
NA,"<div style=""width:500px;"">
                            <p style=""font-size:50px; font-weight:bold;""
                            >Sad</p>
                            <div style=""width:480px; margin: auto;"">
                                <img src=""images/23_sad_lo_lo_1_Set1_decend_smlg_bar.png"" width=""480"" height=""420"" style=""object-fit:contain;"">
                            </div>
                        </div>","-200","html-slider-response",47,204374,"0.0-43.0","tba6e0sshv",22,"","","","","","",0,"",NA,"","Sad","images/23_sad_lo_lo_1_Set1_decend_smlg_bar.png",NA,NA
NA,"<div style=""width:500px;"">
                            <p style=""font-size:50px; font-weight:bold;""
                            >Sad</p>
                            <div style=""width:480px; margin: auto;"">
                                <img src=""images/23_sad_med_lo_1_Set1_ascend_lgsm_bar.png"" width=""480"" height=""420"" style=""object-fit:contain;"">
                            </div>
                        </div>","-200","html-slider-response",48,206541,"0.0-44.0","tba6e0sshv",22,"","","","","","",0,"",NA,"","Sad","images/23_sad_med_lo_1_Set1_ascend_lgsm_bar.png",NA,NA
NA,"<div style=""width:500px;"">
                            <p style=""font-size:50px; font-weight:bold;""
                            >Sad</p>
                            <div style=""width:480px; margin: auto;"">
                                <img src=""images/23_sad_med_med_2_tab10new_ascend_lgsm_bar.png"" width=""480"" height=""420"" style=""object-fit:contain;"">
                            </div>
                        </div>","119","html-slider-response",49,208591,"0.0-45.0","tba6e0sshv",22,"","","","","","",0,"",NA,"","Sad","images/23_sad_med_med_2_tab10new_ascend_lgsm_bar.png",NA,NA
NA,"<div style=""width:500px;"">
                            <p style=""font-size:50px; font-weight:bold;""
                            >Sad</p>
                            <div style=""width:480px; margin: auto;"">
                                <img src=""images/23_sad_lo_lo_3_tab20_decend_lgsm_bar.png"" width=""480"" height=""420"" style=""object-fit:contain;"">
                            </div>
                        </div>","-56","html-slider-response",50,210603,"0.0-46.0","tba6e0sshv",22,"","","","","","",0,"",NA,"","Sad","images/23_sad_lo_lo_3_tab20_decend_lgsm_bar.png",NA,NA
NA,"<div style=""width:500px;"">
                            <p style=""font-size:50px; font-weight:bold;""
                            >Sad</p>
                            <div style=""width:480px; margin: auto;"">
                                <img src=""images/23_sad_hi_md_3_Accent_decend_lgsm_bar.png"" width=""480"" height=""420"" style=""object-fit:contain;"">
                            </div>
                        </div>","90","html-slider-response",51,212400,"0.0-47.0","tba6e0sshv",22,"","","","","","",0,"",NA,"","Sad","images/23_sad_hi_md_3_Accent_decend_lgsm_bar.png",NA,NA
NA,"<div style=""width:500px;"">
                            <p style=""font-size:50px; font-weight:bold;""
                            >Sad</p>
                            <div style=""width:480px; margin: auto;"">
                                <img src=""images/23_sad_med_med_3_tab20b_decend_lgsm_bar.png"" width=""480"" height=""420"" style=""object-fit:contain;"">
                            </div>
                        </div>","0","html-slider-response",52,214219,"0.0-48.0","tba6e0sshv",22,"","","","","","",0,"",NA,"","Sad","images/23_sad_med_med_3_tab20b_decend_lgsm_bar.png",NA,NA
NA,"<div style=""width:500px;"">
                            <p style=""font-size:50px; font-weight:bold;""
                            >Sad</p>
                            <div style=""width:480px; margin: auto;"">
                                <img src=""images/23_sad_hi_md_1_tab20_decend_lgsm_bar.png"" width=""480"" height=""420"" style=""object-fit:contain;"">
                            </div>
                        </div>","34","html-slider-response",53,216508,"0.0-49.0","tba6e0sshv",22,"","","","","","",0,"",NA,"","Sad","images/23_sad_hi_md_1_tab20_decend_lgsm_bar.png",NA,NA
NA,"<div style=""width:500px;"">
                            <p style=""font-size:50px; font-weight:bold;""
                            >Sad</p>
                            <div style=""width:480px; margin: auto;"">
                                <img src=""images/23_sad_hi_hi_2_Paired_ascend_smlg_bar.png"" width=""480"" height=""420"" style=""object-fit:contain;"">
                            </div>
                        </div>","70","html-slider-response",54,218541,"0.0-50.0","tba6e0sshv",22,"","","","","","",0,"",NA,"","Sad","images/23_sad_hi_hi_2_Paired_ascend_smlg_bar.png",NA,NA
NA,"<div style=""width:500px;"">
                            <p style=""font-size:50px; font-weight:bold;""
                            >Sad</p>
                            <div style=""width:480px; margin: auto;"">
                                <img src=""images/23_sad_lo_lo_3_tab20_ascend_smlg_bar.png"" width=""480"" height=""420"" style=""object-fit:contain;"">
                            </div>
                        </div>","-57","html-slider-response",55,220358,"0.0-51.0","tba6e0sshv",22,"","","","","","",0,"",NA,"","Sad","images/23_sad_lo_lo_3_tab20_ascend_smlg_bar.png",NA,NA
NA,"<div style=""width:500px;"">
                            <p style=""font-size:50px; font-weight:bold;""
                            >Sad</p>
                            <div style=""width:480px; margin: auto;"">
                                <img src=""images/23_sad_hi_hi_2_Paired_decend_smlg_bar.png"" width=""480"" height=""420"" style=""object-fit:contain;"">
                            </div>
                        </div>","101","html-slider-response",56,222525,"0.0-52.0","tba6e0sshv",22,"","","","","","",0,"",NA,"","Sad","images/23_sad_hi_hi_2_Paired_decend_smlg_bar.png",NA,NA
NA,"<div style=""width:500px;"">
                            <p style=""font-size:50px; font-weight:bold;""
                            >Sad</p>
                            <div style=""width:480px; margin: auto;"">
                                <img src=""images/23_sad_lo_lo_3_tab20_decend_smlg_bar.png"" width=""480"" height=""420"" style=""object-fit:contain;"">
                            </div>
                        </div>","-119","html-slider-response",57,224565,"0.0-53.0","tba6e0sshv",22,"","","","","","",0,"",NA,"","Sad","images/23_sad_lo_lo_3_tab20_decend_smlg_bar.png",NA,NA
NA,"<div style=""width:500px;"">
                            <p style=""font-size:50px; font-weight:bold;""
                            >Sad</p>
                            <div style=""width:480px; margin: auto;"">
                                <img src=""images/23_sad_lo_lo_3_tab20_ascend_lgsm_bar.png"" width=""480"" height=""420"" style=""object-fit:contain;"">
                            </div>
                        </div>","-150","html-slider-response",58,229325,"0.0-54.0","tba6e0sshv",22,"","","","","","",0,"",NA,"","Sad","images/23_sad_lo_lo_3_tab20_ascend_lgsm_bar.png",NA,NA
NA,"<div style=""width:500px;"">
                            <p style=""font-size:50px; font-weight:bold;""
                            >Sad</p>
                            <div style=""width:480px; margin: auto;"">
                                <img src=""images/23_sad_med_lo_1_Set1_decend_smlg_bar.png"" width=""480"" height=""420"" style=""object-fit:contain;"">
                            </div>
                        </div>","-154","html-slider-response",59,231636,"0.0-55.0","tba6e0sshv",22,"","","","","","",0,"",NA,"","Sad","images/23_sad_med_lo_1_Set1_decend_smlg_bar.png",NA,NA
NA,"<div style=""width:500px;"">
                            <p style=""font-size:50px; font-weight:bold;""
                            >Sad</p>
                            <div style=""width:480px; margin: auto;"">
                                <img src=""images/23_sad_hi_lo_3_Accent_ascend_lgsm_bar.png"" width=""480"" height=""420"" style=""object-fit:contain;"">
                            </div>
                        </div>","33","html-slider-response",60,233514,"0.0-56.0","tba6e0sshv",22,"","","","","","",0,"",NA,"","Sad","images/23_sad_hi_lo_3_Accent_ascend_lgsm_bar.png",NA,NA
NA,"<div style=""width:500px;"">
                            <p style=""font-size:50px; font-weight:bold;""
                            >Sad</p>
                            <div style=""width:480px; margin: auto;"">
                                <img src=""images/23_sad_hi_lo_2_Set1_ascend_smlg_bar.png"" width=""480"" height=""420"" style=""object-fit:contain;"">
                            </div>
                        </div>","110","html-slider-response",61,235617,"0.0-57.0","tba6e0sshv",22,"","","","","","",0,"",NA,"","Sad","images/23_sad_hi_lo_2_Set1_ascend_smlg_bar.png",NA,NA
NA,"<div style=""width:500px;"">
                            <p style=""font-size:50px; font-weight:bold;""
                            >Sad</p>
                            <div style=""width:480px; margin: auto;"">
                                <img src=""images/23_sad_lo_lo_2_Paired_decend_smlg_bar.png"" width=""480"" height=""420"" style=""object-fit:contain;"">
                            </div>
                        </div>","-41","html-slider-response",62,237298,"0.0-58.0","tba6e0sshv",22,"","","","","","",0,"",NA,"","Sad","images/23_sad_lo_lo_2_Paired_decend_smlg_bar.png",NA,NA
NA,"<div style=""width:500px;"">
                            <p style=""font-size:50px; font-weight:bold;""
                            >Sad</p>
                            <div style=""width:480px; margin: auto;"">
                                <img src=""images/23_sad_med_lo_3_tab20_ascend_lgsm_bar.png"" width=""480"" height=""420"" style=""object-fit:contain;"">
                            </div>
                        </div>","-49","html-slider-response",63,239191,"0.0-59.0","tba6e0sshv",22,"","","","","","",0,"",NA,"","Sad","images/23_sad_med_lo_3_tab20_ascend_lgsm_bar.png",NA,NA
NA,"<div style=""width:500px;"">
                            <p style=""font-size:50px; font-weight:bold;""
                            >Sad</p>
                            <div style=""width:480px; margin: auto;"">
                                <img src=""images/23_sad_hi_md_1_tab20_ascend_lgsm_bar.png"" width=""480"" height=""420"" style=""object-fit:contain;"">
                            </div>
                        </div>","54","html-slider-response",64,241615,"0.0-60.0","tba6e0sshv",22,"","","","","","",0,"",NA,"","Sad","images/23_sad_hi_md_1_tab20_ascend_lgsm_bar.png",NA,NA
NA,"<div style=""width:500px;"">
                            <p style=""font-size:50px; font-weight:bold;""
                            >Sad</p>
                            <div style=""width:480px; margin: auto;"">
                                <img src=""images/23_sad_hi_lo_3_Accent_decend_smlg_bar.png"" width=""480"" height=""420"" style=""object-fit:contain;"">
                            </div>
                        </div>","-72","html-slider-response",65,243391,"0.0-61.0","tba6e0sshv",22,"","","","","","",0,"",NA,"","Sad","images/23_sad_hi_lo_3_Accent_decend_smlg_bar.png",NA,NA
NA,"<div style=""width:500px;"">
                            <p style=""font-size:50px; font-weight:bold;""
                            >Sad</p>
                            <div style=""width:480px; margin: auto;"">
                                <img src=""images/23_sad_med_lo_2_Paired_ascend_smlg_bar.png"" width=""480"" height=""420"" style=""object-fit:contain;"">
                            </div>
                        </div>","23","html-slider-response",66,245215,"0.0-62.0","tba6e0sshv",22,"","","","","","",0,"",NA,"","Sad","images/23_sad_med_lo_2_Paired_ascend_smlg_bar.png",NA,NA
NA,"<div style=""width:500px;"">
                            <p style=""font-size:50px; font-weight:bold;""
                            >Sad</p>
                            <div style=""width:480px; margin: auto;"">
                                <img src=""images/23_sad_hi_hi_1_tab20_ascend_lgsm_bar.png"" width=""480"" height=""420"" style=""object-fit:contain;"">
                            </div>
                        </div>","117","html-slider-response",67,247475,"0.0-63.0","tba6e0sshv",22,"","","","","","",0,"",NA,"","Sad","images/23_sad_hi_hi_1_tab20_ascend_lgsm_bar.png",NA,NA
NA,"<div style=""width:500px;"">
                            <p style=""font-size:50px; font-weight:bold;""
                            >Sad</p>
                            <div style=""width:480px; margin: auto;"">
                                <img src=""images/23_sad_hi_hi_2_Paired_ascend_lgsm_bar.png"" width=""480"" height=""420"" style=""object-fit:contain;"">
                            </div>
                        </div>","26","html-slider-response",68,249161,"0.0-64.0","tba6e0sshv",22,"","","","","","",0,"",NA,"","Sad","images/23_sad_hi_hi_2_Paired_ascend_lgsm_bar.png",NA,NA
NA,"<div style=""width:500px;"">
                            <p style=""font-size:50px; font-weight:bold;""
                            >Sad</p>
                            <div style=""width:480px; margin: auto;"">
                                <img src=""images/23_sad_lo_lo_1_Set1_ascend_smlg_bar.png"" width=""480"" height=""420"" style=""object-fit:contain;"">
                            </div>
                        </div>","-200","html-slider-response",69,250967,"0.0-65.0","tba6e0sshv",22,"","","","","","",0,"",NA,"","Sad","images/23_sad_lo_lo_1_Set1_ascend_smlg_bar.png",NA,NA
NA,"<div style=""width:500px;"">
                            <p style=""font-size:50px; font-weight:bold;""
                            >Sad</p>
                            <div style=""width:480px; margin: auto;"">
                                <img src=""images/23_sad_hi_lo_1_tab20c_ascend_smlg_bar.png"" width=""480"" height=""420"" style=""object-fit:contain;"">
                            </div>
                        </div>","140","html-slider-response",70,252982,"0.0-66.0","tba6e0sshv",22,"","","","","","",0,"",NA,"","Sad","images/23_sad_hi_lo_1_tab20c_ascend_smlg_bar.png",NA,NA
NA,"<div style=""width:500px;"">
                            <p style=""font-size:50px; font-weight:bold;""
                            >Sad</p>
                            <div style=""width:480px; margin: auto;"">
                                <img src=""images/23_sad_hi_hi_3_Set3_ascend_smlg_bar.png"" width=""480"" height=""420"" style=""object-fit:contain;"">
                            </div>
                        </div>","32","html-slider-response",71,254958,"0.0-67.0","tba6e0sshv",22,"","","","","","",0,"",NA,"","Sad","images/23_sad_hi_hi_3_Set3_ascend_smlg_bar.png",NA,NA
NA,"<div style=""width:500px;"">
                            <p style=""font-size:50px; font-weight:bold;""
                            >Sad</p>
                            <div style=""width:480px; margin: auto;"">
                                <img src=""images/23_sad_hi_md_2_Set1_ascend_lgsm_bar.png"" width=""480"" height=""420"" style=""object-fit:contain;"">
                            </div>
                        </div>","81","html-slider-response",72,257289,"0.0-68.0","tba6e0sshv",22,"","","","","","",0,"",NA,"","Sad","images/23_sad_hi_md_2_Set1_ascend_lgsm_bar.png",NA,NA
NA,"<div style=""width:500px;"">
                            <p style=""font-size:50px; font-weight:bold;""
                            >Sad</p>
                            <div style=""width:480px; margin: auto;"">
                                <img src=""images/23_sad_hi_hi_1_tab20_ascend_smlg_bar.png"" width=""480"" height=""420"" style=""object-fit:contain;"">
                            </div>
                        </div>","190","html-slider-response",73,259087,"0.0-69.0","tba6e0sshv",22,"","","","","","",0,"",NA,"","Sad","images/23_sad_hi_hi_1_tab20_ascend_smlg_bar.png",NA,NA
NA,"<div style=""width:500px;"">
                            <p style=""font-size:50px; font-weight:bold;""
                            >Sad</p>
                            <div style=""width:480px; margin: auto;"">
                                <img src=""images/23_sad_lo_lo_1_Set1_ascend_lgsm_bar.png"" width=""480"" height=""420"" style=""object-fit:contain;"">
                            </div>
                        </div>","-197","html-slider-response",74,260947,"0.0-70.0","tba6e0sshv",22,"","","","","","",0,"",NA,"","Sad","images/23_sad_lo_lo_1_Set1_ascend_lgsm_bar.png",NA,NA
NA,"<div style=""width:500px;"">
                            <p style=""font-size:50px; font-weight:bold;""
                            >Sad</p>
                            <div style=""width:480px; margin: auto;"">
                                <img src=""images/23_sad_hi_md_2_Set1_ascend_smlg_bar.png"" width=""480"" height=""420"" style=""object-fit:contain;"">
                            </div>
                        </div>","123","html-slider-response",75,263419,"0.0-71.0","tba6e0sshv",22,"","","","","","",0,"",NA,"","Sad","images/23_sad_hi_md_2_Set1_ascend_smlg_bar.png",NA,NA
NA,"<div style=""width:500px;"">
                            <p style=""font-size:50px; font-weight:bold;""
                            >Sad</p>
                            <div style=""width:480px; margin: auto;"">
                                <img src=""images/23_sad_hi_lo_2_Set1_decend_smlg_bar.png"" width=""480"" height=""420"" style=""object-fit:contain;"">
                            </div>
                        </div>","-77","html-slider-response",76,265214,"0.0-72.0","tba6e0sshv",22,"","","","","","",0,"",NA,"","Sad","images/23_sad_hi_lo_2_Set1_decend_smlg_bar.png",NA,NA
NA,"<div style=""width:500px;"">
                            <p style=""font-size:50px; font-weight:bold;""
                            >Sad</p>
                            <div style=""width:480px; margin: auto;"">
                                <img src=""images/23_sad_hi_hi_3_Set3_ascend_lgsm_bar.png"" width=""480"" height=""420"" style=""object-fit:contain;"">
                            </div>
                        </div>","36","html-slider-response",77,267655,"0.0-73.0","tba6e0sshv",22,"","","","","","",0,"",NA,"","Sad","images/23_sad_hi_hi_3_Set3_ascend_lgsm_bar.png",NA,NA
NA,"<div style=""width:500px;"">
                            <p style=""font-size:50px; font-weight:bold;""
                            >Sad</p>
                            <div style=""width:480px; margin: auto;"">
                                <img src=""images/23_sad_hi_lo_3_Accent_ascend_smlg_bar.png"" width=""480"" height=""420"" style=""object-fit:contain;"">
                            </div>
                        </div>","118","html-slider-response",78,269608,"0.0-74.0","tba6e0sshv",22,"","","","","","",0,"",NA,"","Sad","images/23_sad_hi_lo_3_Accent_ascend_smlg_bar.png",NA,NA
NA,"<div style=""width:500px;"">
                            <p style=""font-size:50px; font-weight:bold;""
                            >Sad</p>
                            <div style=""width:480px; margin: auto;"">
                                <img src=""images/23_sad_med_med_3_tab20b_ascend_smlg_bar.png"" width=""480"" height=""420"" style=""object-fit:contain;"">
                            </div>
                        </div>","60","html-slider-response",79,271982,"0.0-75.0","tba6e0sshv",22,"","","","","","",0,"",NA,"","Sad","images/23_sad_med_med_3_tab20b_ascend_smlg_bar.png",NA,NA
NA,"<div style=""width:500px;"">
                            <p style=""font-size:50px; font-weight:bold;""
                            >Sad</p>
                            <div style=""width:480px; margin: auto;"">
                                <img src=""images/23_sad_med_lo_1_Set1_decend_lgsm_bar.png"" width=""480"" height=""420"" style=""object-fit:contain;"">
                            </div>
                        </div>","-53","html-slider-response",80,273753,"0.0-76.0","tba6e0sshv",22,"","","","","","",0,"",NA,"","Sad","images/23_sad_med_lo_1_Set1_decend_lgsm_bar.png",NA,NA
NA,"<div style=""width:500px;"">
                            <p style=""font-size:50px; font-weight:bold;""
                            >Sad</p>
                            <div style=""width:480px; margin: auto;"">
                                <img src=""images/23_sad_hi_hi_3_Set3_decend_lgsm_bar.png"" width=""480"" height=""420"" style=""object-fit:contain;"">
                            </div>
                        </div>","33","html-slider-response",81,275985,"0.0-77.0","tba6e0sshv",22,"","","","","","",0,"",NA,"","Sad","images/23_sad_hi_hi_3_Set3_decend_lgsm_bar.png",NA,NA
NA,"<div style=""width:500px;"">
                            <p style=""font-size:50px; font-weight:bold;""
                            >Sad</p>
                            <div style=""width:480px; margin: auto;"">
                                <img src=""images/23_sad_lo_lo_2_Paired_ascend_smlg_bar.png"" width=""480"" height=""420"" style=""object-fit:contain;"">
                            </div>
                        </div>","-58","html-slider-response",82,278091,"0.0-78.0","tba6e0sshv",22,"","","","","","",0,"",NA,"","Sad","images/23_sad_lo_lo_2_Paired_ascend_smlg_bar.png",NA,NA
NA,"<div style=""width:500px;"">
                            <p style=""font-size:50px; font-weight:bold;""
                            >Sad</p>
                            <div style=""width:480px; margin: auto;"">
                                <img src=""images/23_sad_med_med_1_tab20_decend_lgsm_bar.png"" width=""480"" height=""420"" style=""object-fit:contain;"">
                            </div>
                        </div>","98","html-slider-response",83,281233,"0.0-79.0","tba6e0sshv",22,"","","","","","",0,"",NA,"","Sad","images/23_sad_med_med_1_tab20_decend_lgsm_bar.png",NA,NA
NA,"<div style=""width:500px;"">
                            <p style=""font-size:50px; font-weight:bold;""
                            >Sad</p>
                            <div style=""width:480px; margin: auto;"">
                                <img src=""images/23_sad_lo_lo_2_Paired_decend_lgsm_bar.png"" width=""480"" height=""420"" style=""object-fit:contain;"">
                            </div>
                        </div>","-105","html-slider-response",84,283467,"0.0-80.0","tba6e0sshv",22,"","","","","","",0,"",NA,"","Sad","images/23_sad_lo_lo_2_Paired_decend_lgsm_bar.png",NA,NA
NA,"<div style=""width:500px;"">
                            <p style=""font-size:50px; font-weight:bold;""
                            >Sad</p>
                            <div style=""width:480px; margin: auto;"">
                                <img src=""images/23_sad_med_lo_2_Paired_ascend_lgsm_bar.png"" width=""480"" height=""420"" style=""object-fit:contain;"">
                            </div>
                        </div>","-41","html-slider-response",85,285596,"0.0-81.0","tba6e0sshv",22,"","","","","","",0,"",NA,"","Sad","images/23_sad_med_lo_2_Paired_ascend_lgsm_bar.png",NA,NA
NA,"<div style=""width:500px;"">
                            <p style=""font-size:50px; font-weight:bold;""
                            >Sad</p>
                            <div style=""width:480px; margin: auto;"">
                                <img src=""images/23_sad_hi_lo_2_Set1_decend_lgsm_bar.png"" width=""480"" height=""420"" style=""object-fit:contain;"">
                            </div>
                        </div>","35","html-slider-response",86,287326,"0.0-82.0","tba6e0sshv",22,"","","","","","",0,"",NA,"","Sad","images/23_sad_hi_lo_2_Set1_decend_lgsm_bar.png",NA,NA
NA,"<div style=""width:500px;"">
                            <p style=""font-size:50px; font-weight:bold;""
                            >Sad</p>
                            <div style=""width:480px; margin: auto;"">
                                <img src=""images/23_sad_med_med_3_tab20b_ascend_lgsm_bar.png"" width=""480"" height=""420"" style=""object-fit:contain;"">
                            </div>
                        </div>","90","html-slider-response",87,289476,"0.0-83.0","tba6e0sshv",22,"","","","","","",0,"",NA,"","Sad","images/23_sad_med_med_3_tab20b_ascend_lgsm_bar.png",NA,NA
NA,"<div style=""width:500px;"">
                            <p style=""font-size:50px; font-weight:bold;""
                            >Sad</p>
                            <div style=""width:480px; margin: auto;"">
                                <img src=""images/23_sad_med_lo_1_Set1_ascend_smlg_bar.png"" width=""480"" height=""420"" style=""object-fit:contain;"">
                            </div>
                        </div>","-53","html-slider-response",88,291917,"0.0-84.0","tba6e0sshv",22,"","","","","","",0,"",NA,"","Sad","images/23_sad_med_lo_1_Set1_ascend_smlg_bar.png",NA,NA
NA,"<div style=""width:500px;"">
                            <p style=""font-size:50px; font-weight:bold;""
                            >Sad</p>
                            <div style=""width:480px; margin: auto;"">
                                <img src=""images/23_sad_med_lo_3_tab20_decend_lgsm_bar.png"" width=""480"" height=""420"" style=""object-fit:contain;"">
                            </div>
                        </div>","-93","html-slider-response",89,294140,"0.0-85.0","tba6e0sshv",22,"","","","","","",0,"",NA,"","Sad","images/23_sad_med_lo_3_tab20_decend_lgsm_bar.png",NA,NA
1968,"<p>Great Job! You've finished block 1.<br></br> You have 4 block(s) left to go.<br></br></p>","0","html-button-response",90,296611,"0.0-86.0","tba6e0sshv",22,"","","","","","",NA,"",NA,"","","",NA,NA
2334,"<p>In this block of trials, you will be asked to rate how much you associate each texture with the concept</p >
                        <p style = 'font-size:150%; font-weight: bold'>Angry</p><br></br>","0","html-button-response",91,298947,"0.0-87.0","tba6e0sshv",22,"","","","","","",NA,"",NA,"","","",NA,NA
NA,"<div style=""width:500px;"">
                            <p style=""font-size:50px; font-weight:bold;""
                            >Angry</p>
                            <div style=""width:480px; margin: auto;"">
                                <img src=""images/23_angry_med_lo_3_Pastel1_ascend_lgsm_bar.png"" width=""480"" height=""420"" style=""object-fit:contain;"">
                            </div>
                        </div>","-177","html-slider-response",92,301351,"0.0-88.0","tba6e0sshv",22,"","","","","","",0,"",NA,"","Angry","images/23_angry_med_lo_3_Pastel1_ascend_lgsm_bar.png",NA,NA
NA,"<div style=""width:500px;"">
                            <p style=""font-size:50px; font-weight:bold;""
                            >Angry</p>
                            <div style=""width:480px; margin: auto;"">
                                <img src=""images/23_angry_lo_lo_3_Pastel2_decend_smlg_bar.png"" width=""480"" height=""420"" style=""object-fit:contain;"">
                            </div>
                        </div>","-87","html-slider-response",93,303390,"0.0-89.0","tba6e0sshv",22,"","","","","","",0,"",NA,"","Angry","images/23_angry_lo_lo_3_Pastel2_decend_smlg_bar.png",NA,NA
NA,"<div style=""width:500px;"">
                            <p style=""font-size:50px; font-weight:bold;""
                            >Angry</p>
                            <div style=""width:480px; margin: auto;"">
                                <img src=""images/23_angry_hi_md_1_Set1_ascend_smlg_bar.png"" width=""480"" height=""420"" style=""object-fit:contain;"">
                            </div>
                        </div>","63","html-slider-response",94,305148,"0.0-90.0","tba6e0sshv",22,"","","","","","",0,"",NA,"","Angry","images/23_angry_hi_md_1_Set1_ascend_smlg_bar.png",NA,NA
NA,"<div style=""width:500px;"">
                            <p style=""font-size:50px; font-weight:bold;""
                            >Angry</p>
                            <div style=""width:480px; margin: auto;"">
                                <img src=""images/23_angry_lo_lo_1_tab20c_decend_lgsm_bar.png"" width=""480"" height=""420"" style=""object-fit:contain;"">
                            </div>
                        </div>","-200","html-slider-response",95,307263,"0.0-91.0","tba6e0sshv",22,"","","","","","",0,"",NA,"","Angry","images/23_angry_lo_lo_1_tab20c_decend_lgsm_bar.png",NA,NA
NA,"<div style=""width:500px;"">
                            <p style=""font-size:50px; font-weight:bold;""
                            >Angry</p>
                            <div style=""width:480px; margin: auto;"">
                                <img src=""images/23_angry_hi_hi_2_Paired_ascend_lgsm_bar.png"" width=""480"" height=""420"" style=""object-fit:contain;"">
                            </div>
                        </div>","150","html-slider-response",96,309350,"0.0-92.0","tba6e0sshv",22,"","","","","","",0,"",NA,"","Angry","images/23_angry_hi_hi_2_Paired_ascend_lgsm_bar.png",NA,NA
NA,"<div style=""width:500px;"">
                            <p style=""font-size:50px; font-weight:bold;""
                            >Angry</p>
                            <div style=""width:480px; margin: auto;"">
                                <img src=""images/23_angry_hi_lo_3_Paired_decend_lgsm_bar.png"" width=""480"" height=""420"" style=""object-fit:contain;"">
                            </div>
                        </div>","84","html-slider-response",97,311241,"0.0-93.0","tba6e0sshv",22,"","","","","","",0,"",NA,"","Angry","images/23_angry_hi_lo_3_Paired_decend_lgsm_bar.png",NA,NA
NA,"<div style=""width:500px;"">
                            <p style=""font-size:50px; font-weight:bold;""
                            >Angry</p>
                            <div style=""width:480px; margin: auto;"">
                                <img src=""images/23_angry_hi_md_2_tab20_decend_lgsm_bar.png"" width=""480"" height=""420"" style=""object-fit:contain;"">
                            </div>
                        </div>","151","html-slider-response",98,312886,"0.0-94.0","tba6e0sshv",22,"","","","","","",0,"",NA,"","Angry","images/23_angry_hi_md_2_tab20_decend_lgsm_bar.png",NA,NA
NA,"<div style=""width:500px;"">
                            <p style=""font-size:50px; font-weight:bold;""
                            >Angry</p>
                            <div style=""width:480px; margin: auto;"">
                                <img src=""images/23_angry_hi_lo_3_Paired_ascend_lgsm_bar.png"" width=""480"" height=""420"" style=""object-fit:contain;"">
                            </div>
                        </div>","38","html-slider-response",99,315415,"0.0-95.0","tba6e0sshv",22,"","","","","","",0,"",NA,"","Angry","images/23_angry_hi_lo_3_Paired_ascend_lgsm_bar.png",NA,NA
NA,"<div style=""width:500px;"">
                            <p style=""font-size:50px; font-weight:bold;""
                            >Angry</p>
                            <div style=""width:480px; margin: auto;"">
                                <img src=""images/23_angry_lo_lo_3_Pastel2_ascend_smlg_bar.png"" width=""480"" height=""420"" style=""object-fit:contain;"">
                            </div>
                        </div>","-161","html-slider-response",100,317302,"0.0-96.0","tba6e0sshv",22,"","","","","","",0,"",NA,"","Angry","images/23_angry_lo_lo_3_Pastel2_ascend_smlg_bar.png",NA,NA
NA,"<div style=""width:500px;"">
                            <p style=""font-size:50px; font-weight:bold;""
                            >Angry</p>
                            <div style=""width:480px; margin: auto;"">
                                <img src=""images/23_angry_hi_lo_2_tab20c_ascend_lgsm_bar.png"" width=""480"" height=""420"" style=""object-fit:contain;"">
                            </div>
                        </div>","34","html-slider-response",101,321472,"0.0-97.0","tba6e0sshv",22,"","","","","","",0,"",NA,"","Angry","images/23_angry_hi_lo_2_tab20c_ascend_lgsm_bar.png",NA,NA
NA,"<div style=""width:500px;"">
                            <p style=""font-size:50px; font-weight:bold;""
                            >Angry</p>
                            <div style=""width:480px; margin: auto;"">
                                <img src=""images/23_angry_hi_md_2_tab20_ascend_smlg_bar.png"" width=""480"" height=""420"" style=""object-fit:contain;"">
                            </div>
                        </div>","200","html-slider-response",102,323585,"0.0-98.0","tba6e0sshv",22,"","","","","","",0,"",NA,"","Angry","images/23_angry_hi_md_2_tab20_ascend_smlg_bar.png",NA,NA
NA,"<div style=""width:500px;"">
                            <p style=""font-size:50px; font-weight:bold;""
                            >Angry</p>
                            <div style=""width:480px; margin: auto;"">
                                <img src=""images/23_angry_lo_lo_2_Pastel1_ascend_lgsm_bar.png"" width=""480"" height=""420"" style=""object-fit:contain;"">
                            </div>
                        </div>","-160","html-slider-response",103,326001,"0.0-99.0","tba6e0sshv",22,"","","","","","",0,"",NA,"","Angry","images/23_angry_lo_lo_2_Pastel1_ascend_lgsm_bar.png",NA,NA
NA,"<div style=""width:500px;"">
                            <p style=""font-size:50px; font-weight:bold;""
                            >Angry</p>
                            <div style=""width:480px; margin: auto;"">
                                <img src=""images/23_angry_hi_lo_1_tab20_decend_smlg_bar.png"" width=""480"" height=""420"" style=""object-fit:contain;"">
                            </div>
                        </div>","38","html-slider-response",104,328046,"0.0-100.0","tba6e0sshv",22,"","","","","","",0,"",NA,"","Angry","images/23_angry_hi_lo_1_tab20_decend_smlg_bar.png",NA,NA
NA,"<div style=""width:500px;"">
                            <p style=""font-size:50px; font-weight:bold;""
                            >Angry</p>
                            <div style=""width:480px; margin: auto;"">
                                <img src=""images/23_angry_hi_md_1_Set1_decend_lgsm_bar.png"" width=""480"" height=""420"" style=""object-fit:contain;"">
                            </div>
                        </div>","107","html-slider-response",105,330047,"0.0-101.0","tba6e0sshv",22,"","","","","","",0,"",NA,"","Angry","images/23_angry_hi_md_1_Set1_decend_lgsm_bar.png",NA,NA
NA,"<div style=""width:500px;"">
                            <p style=""font-size:50px; font-weight:bold;""
                            >Angry</p>
                            <div style=""width:480px; margin: auto;"">
                                <img src=""images/23_angry_hi_md_2_tab20_ascend_lgsm_bar.png"" width=""480"" height=""420"" style=""object-fit:contain;"">
                            </div>
                        </div>","-59","html-slider-response",106,332273,"0.0-102.0","tba6e0sshv",22,"","","","","","",0,"",NA,"","Angry","images/23_angry_hi_md_2_tab20_ascend_lgsm_bar.png",NA,NA
NA,"<div style=""width:500px;"">
                            <p style=""font-size:50px; font-weight:bold;""
                            >Angry</p>
                            <div style=""width:480px; margin: auto;"">
                                <img src=""images/23_angry_med_lo_3_Pastel1_decend_smlg_bar.png"" width=""480"" height=""420"" style=""object-fit:contain;"">
                            </div>
                        </div>","-155","html-slider-response",107,334415,"0.0-103.0","tba6e0sshv",22,"","","","","","",0,"",NA,"","Angry","images/23_angry_med_lo_3_Pastel1_decend_smlg_bar.png",NA,NA
NA,"<div style=""width:500px;"">
                            <p style=""font-size:50px; font-weight:bold;""
                            >Angry</p>
                            <div style=""width:480px; margin: auto;"">
                                <img src=""images/23_angry_hi_lo_1_tab20_ascend_smlg_bar.png"" width=""480"" height=""420"" style=""object-fit:contain;"">
                            </div>
                        </div>","75","html-slider-response",108,336490,"0.0-104.0","tba6e0sshv",22,"","","","","","",0,"",NA,"","Angry","images/23_angry_hi_lo_1_tab20_ascend_smlg_bar.png",NA,NA
NA,"<div style=""width:500px;"">
                            <p style=""font-size:50px; font-weight:bold;""
                            >Angry</p>
                            <div style=""width:480px; margin: auto;"">
                                <img src=""images/23_angry_hi_hi_1_tab20_decend_lgsm_bar.png"" width=""480"" height=""420"" style=""object-fit:contain;"">
                            </div>
                        </div>","152","html-slider-response",109,338240,"0.0-105.0","tba6e0sshv",22,"","","","","","",0,"",NA,"","Angry","images/23_angry_hi_hi_1_tab20_decend_lgsm_bar.png",NA,NA
NA,"<div style=""width:500px;"">
                            <p style=""font-size:50px; font-weight:bold;""
                            >Angry</p>
                            <div style=""width:480px; margin: auto;"">
                                <img src=""images/23_angry_hi_md_1_Set1_decend_smlg_bar.png"" width=""480"" height=""420"" style=""object-fit:contain;"">
                            </div>
                        </div>","-60","html-slider-response",110,341347,"0.0-106.0","tba6e0sshv",22,"","","","","","",0,"",NA,"","Angry","images/23_angry_hi_md_1_Set1_decend_smlg_bar.png",NA,NA
NA,"<div style=""width:500px;"">
                            <p style=""font-size:50px; font-weight:bold;""
                            >Angry</p>
                            <div style=""width:480px; margin: auto;"">
                                <img src=""images/23_angry_med_med_3_Set1_ascend_lgsm_bar.png"" width=""480"" height=""420"" style=""object-fit:contain;"">
                            </div>
                        </div>","-150","html-slider-response",111,343174,"0.0-107.0","tba6e0sshv",22,"","","","","","",0,"",NA,"","Angry","images/23_angry_med_med_3_Set1_ascend_lgsm_bar.png",NA,NA
NA,"<div style=""width:500px;"">
                            <p style=""font-size:50px; font-weight:bold;""
                            >Angry</p>
                            <div style=""width:480px; margin: auto;"">
                                <img src=""images/23_angry_hi_md_3_Paired_decend_smlg_bar.png"" width=""480"" height=""420"" style=""object-fit:contain;"">
                            </div>
                        </div>","27","html-slider-response",112,345523,"0.0-108.0","tba6e0sshv",22,"","","","","","",0,"",NA,"","Angry","images/23_angry_hi_md_3_Paired_decend_smlg_bar.png",NA,NA
NA,"<div style=""width:500px;"">
                            <p style=""font-size:50px; font-weight:bold;""
                            >Angry</p>
                            <div style=""width:480px; margin: auto;"">
                                <img src=""images/23_angry_lo_lo_3_Pastel2_ascend_lgsm_bar.png"" width=""480"" height=""420"" style=""object-fit:contain;"">
                            </div>
                        </div>","-200","html-slider-response",113,347380,"0.0-109.0","tba6e0sshv",22,"","","","","","",0,"",NA,"","Angry","images/23_angry_lo_lo_3_Pastel2_ascend_lgsm_bar.png",NA,NA
NA,"<div style=""width:500px;"">
                            <p style=""font-size:50px; font-weight:bold;""
                            >Angry</p>
                            <div style=""width:480px; margin: auto;"">
                                <img src=""images/23_angry_med_lo_2_Pastel2_ascend_lgsm_bar.png"" width=""480"" height=""420"" style=""object-fit:contain;"">
                            </div>
                        </div>","-200","html-slider-response",114,349323,"0.0-110.0","tba6e0sshv",22,"","","","","","",0,"",NA,"","Angry","images/23_angry_med_lo_2_Pastel2_ascend_lgsm_bar.png",NA,NA
NA,"<div style=""width:500px;"">
                            <p style=""font-size:50px; font-weight:bold;""
                            >Angry</p>
                            <div style=""width:480px; margin: auto;"">
                                <img src=""images/23_angry_hi_hi_1_tab20_decend_smlg_bar.png"" width=""480"" height=""420"" style=""object-fit:contain;"">
                            </div>
                        </div>","94","html-slider-response",115,351649,"0.0-111.0","tba6e0sshv",22,"","","","","","",0,"",NA,"","Angry","images/23_angry_hi_hi_1_tab20_decend_smlg_bar.png",NA,NA
NA,"<div style=""width:500px;"">
                            <p style=""font-size:50px; font-weight:bold;""
                            >Angry</p>
                            <div style=""width:480px; margin: auto;"">
                                <img src=""images/23_angry_hi_md_3_Paired_ascend_lgsm_bar.png"" width=""480"" height=""420"" style=""object-fit:contain;"">
                            </div>
                        </div>","44","html-slider-response",116,354050,"0.0-112.0","tba6e0sshv",22,"","","","","","",0,"",NA,"","Angry","images/23_angry_hi_md_3_Paired_ascend_lgsm_bar.png",NA,NA
NA,"<div style=""width:500px;"">
                            <p style=""font-size:50px; font-weight:bold;""
                            >Angry</p>
                            <div style=""width:480px; margin: auto;"">
                                <img src=""images/23_angry_hi_hi_3_tab10new_ascend_smlg_bar.png"" width=""480"" height=""420"" style=""object-fit:contain;"">
                            </div>
                        </div>","-67","html-slider-response",117,357233,"0.0-113.0","tba6e0sshv",22,"","","","","","",0,"",NA,"","Angry","images/23_angry_hi_hi_3_tab10new_ascend_smlg_bar.png",NA,NA
NA,"<div style=""width:500px;"">
                            <p style=""font-size:50px; font-weight:bold;""
                            >Angry</p>
                            <div style=""width:480px; margin: auto;"">
                                <img src=""images/23_angry_med_med_3_Set1_ascend_smlg_bar.png"" width=""480"" height=""420"" style=""object-fit:contain;"">
                            </div>
                        </div>","-126","html-slider-response",118,360746,"0.0-114.0","tba6e0sshv",22,"","","","","","",0,"",NA,"","Angry","images/23_angry_med_med_3_Set1_ascend_smlg_bar.png",NA,NA
NA,"<div style=""width:500px;"">
                            <p style=""font-size:50px; font-weight:bold;""
                            >Angry</p>
                            <div style=""width:480px; margin: auto;"">
                                <img src=""images/23_angry_hi_lo_2_tab20c_decend_lgsm_bar.png"" width=""480"" height=""420"" style=""object-fit:contain;"">
                            </div>
                        </div>","174","html-slider-response",119,363305,"0.0-115.0","tba6e0sshv",22,"","","","","","",0,"",NA,"","Angry","images/23_angry_hi_lo_2_tab20c_decend_lgsm_bar.png",NA,NA
NA,"<div style=""width:500px;"">
                            <p style=""font-size:50px; font-weight:bold;""
                            >Angry</p>
                            <div style=""width:480px; margin: auto;"">
                                <img src=""images/23_angry_lo_lo_1_tab20c_ascend_smlg_bar.png"" width=""480"" height=""420"" style=""object-fit:contain;"">
                            </div>
                        </div>","-154","html-slider-response",120,365255,"0.0-116.0","tba6e0sshv",22,"","","","","","",0,"",NA,"","Angry","images/23_angry_lo_lo_1_tab20c_ascend_smlg_bar.png",NA,NA
NA,"<div style=""width:500px;"">
                            <p style=""font-size:50px; font-weight:bold;""
                            >Angry</p>
                            <div style=""width:480px; margin: auto;"">
                                <img src=""images/23_angry_hi_hi_3_tab10new_decend_lgsm_bar.png"" width=""480"" height=""420"" style=""object-fit:contain;"">
                            </div>
                        </div>","62","html-slider-response",121,368325,"0.0-117.0","tba6e0sshv",22,"","","","","","",0,"",NA,"","Angry","images/23_angry_hi_hi_3_tab10new_decend_lgsm_bar.png",NA,NA
NA,"<div style=""width:500px;"">
                            <p style=""font-size:50px; font-weight:bold;""
                            >Angry</p>
                            <div style=""width:480px; margin: auto;"">
                                <img src=""images/23_angry_hi_lo_3_Paired_decend_smlg_bar.png"" width=""480"" height=""420"" style=""object-fit:contain;"">
                            </div>
                        </div>","-30","html-slider-response",122,370564,"0.0-118.0","tba6e0sshv",22,"","","","","","",0,"",NA,"","Angry","images/23_angry_hi_lo_3_Paired_decend_smlg_bar.png",NA,NA
NA,"<div style=""width:500px;"">
                            <p style=""font-size:50px; font-weight:bold;""
                            >Angry</p>
                            <div style=""width:480px; margin: auto;"">
                                <img src=""images/23_angry_hi_lo_2_tab20c_decend_smlg_bar.png"" width=""480"" height=""420"" style=""object-fit:contain;"">
                            </div>
                        </div>","49","html-slider-response",123,372758,"0.0-119.0","tba6e0sshv",22,"","","","","","",0,"",NA,"","Angry","images/23_angry_hi_lo_2_tab20c_decend_smlg_bar.png",NA,NA
NA,"<div style=""width:500px;"">
                            <p style=""font-size:50px; font-weight:bold;""
                            >Angry</p>
                            <div style=""width:480px; margin: auto;"">
                                <img src=""images/23_angry_med_lo_3_Pastel1_decend_lgsm_bar.png"" width=""480"" height=""420"" style=""object-fit:contain;"">
                            </div>
                        </div>","-77","html-slider-response",124,375834,"0.0-120.0","tba6e0sshv",22,"","","","","","",0,"",NA,"","Angry","images/23_angry_med_lo_3_Pastel1_decend_lgsm_bar.png",NA,NA
NA,"<div style=""width:500px;"">
                            <p style=""font-size:50px; font-weight:bold;""
                            >Angry</p>
                            <div style=""width:480px; margin: auto;"">
                                <img src=""images/23_angry_hi_md_2_tab20_decend_smlg_bar.png"" width=""480"" height=""420"" style=""object-fit:contain;"">
                            </div>
                        </div>","130","html-slider-response",125,378353,"0.0-121.0","tba6e0sshv",22,"","","","","","",0,"",NA,"","Angry","images/23_angry_hi_md_2_tab20_decend_smlg_bar.png",NA,NA
NA,"<div style=""width:500px;"">
                            <p style=""font-size:50px; font-weight:bold;""
                            >Angry</p>
                            <div style=""width:480px; margin: auto;"">
                                <img src=""images/23_angry_med_med_3_Set1_decend_lgsm_bar.png"" width=""480"" height=""420"" style=""object-fit:contain;"">
                            </div>
                        </div>","-50","html-slider-response",126,380361,"0.0-122.0","tba6e0sshv",22,"","","","","","",0,"",NA,"","Angry","images/23_angry_med_med_3_Set1_decend_lgsm_bar.png",NA,NA
NA,"<div style=""width:500px;"">
                            <p style=""font-size:50px; font-weight:bold;""
                            >Angry</p>
                            <div style=""width:480px; margin: auto;"">
                                <img src=""images/23_angry_lo_lo_2_Pastel1_ascend_smlg_bar.png"" width=""480"" height=""420"" style=""object-fit:contain;"">
                            </div>
                        </div>","-200","html-slider-response",127,382251,"0.0-123.0","tba6e0sshv",22,"","","","","","",0,"",NA,"","Angry","images/23_angry_lo_lo_2_Pastel1_ascend_smlg_bar.png",NA,NA
NA,"<div style=""width:500px;"">
                            <p style=""font-size:50px; font-weight:bold;""
                            >Angry</p>
                            <div style=""width:480px; margin: auto;"">
                                <img src=""images/23_angry_hi_hi_3_tab10new_decend_smlg_bar.png"" width=""480"" height=""420"" style=""object-fit:contain;"">
                            </div>
                        </div>","18","html-slider-response",128,385210,"0.0-124.0","tba6e0sshv",22,"","","","","","",0,"",NA,"","Angry","images/23_angry_hi_hi_3_tab10new_decend_smlg_bar.png",NA,NA
NA,"<div style=""width:500px;"">
                            <p style=""font-size:50px; font-weight:bold;""
                            >Angry</p>
                            <div style=""width:480px; margin: auto;"">
                                <img src=""images/23_angry_med_lo_2_Pastel2_decend_lgsm_bar.png"" width=""480"" height=""420"" style=""object-fit:contain;"">
                            </div>
                        </div>","-22","html-slider-response",129,387626,"0.0-125.0","tba6e0sshv",22,"","","","","","",0,"",NA,"","Angry","images/23_angry_med_lo_2_Pastel2_decend_lgsm_bar.png",NA,NA
NA,"<div style=""width:500px;"">
                            <p style=""font-size:50px; font-weight:bold;""
                            >Angry</p>
                            <div style=""width:480px; margin: auto;"">
                                <img src=""images/23_angry_med_med_2_Paired_decend_lgsm_bar.png"" width=""480"" height=""420"" style=""object-fit:contain;"">
                            </div>
                        </div>","36","html-slider-response",130,390017,"0.0-126.0","tba6e0sshv",22,"","","","","","",0,"",NA,"","Angry","images/23_angry_med_med_2_Paired_decend_lgsm_bar.png",NA,NA
NA,"<div style=""width:500px;"">
                            <p style=""font-size:50px; font-weight:bold;""
                            >Angry</p>
                            <div style=""width:480px; margin: auto;"">
                                <img src=""images/23_angry_med_lo_2_Pastel2_decend_smlg_bar.png"" width=""480"" height=""420"" style=""object-fit:contain;"">
                            </div>
                        </div>","-68","html-slider-response",131,392317,"0.0-127.0","tba6e0sshv",22,"","","","","","",0,"",NA,"","Angry","images/23_angry_med_lo_2_Pastel2_decend_smlg_bar.png",NA,NA
NA,"<div style=""width:500px;"">
                            <p style=""font-size:50px; font-weight:bold;""
                            >Angry</p>
                            <div style=""width:480px; margin: auto;"">
                                <img src=""images/23_angry_lo_lo_2_Pastel1_decend_smlg_bar.png"" width=""480"" height=""420"" style=""object-fit:contain;"">
                            </div>
                        </div>","-174","html-slider-response",132,394491,"0.0-128.0","tba6e0sshv",22,"","","","","","",0,"",NA,"","Angry","images/23_angry_lo_lo_2_Pastel1_decend_smlg_bar.png",NA,NA
NA,"<div style=""width:500px;"">
                            <p style=""font-size:50px; font-weight:bold;""
                            >Angry</p>
                            <div style=""width:480px; margin: auto;"">
                                <img src=""images/23_angry_med_lo_2_Pastel2_ascend_smlg_bar.png"" width=""480"" height=""420"" style=""object-fit:contain;"">
                            </div>
                        </div>","-58","html-slider-response",133,396295,"0.0-129.0","tba6e0sshv",22,"","","","","","",0,"",NA,"","Angry","images/23_angry_med_lo_2_Pastel2_ascend_smlg_bar.png",NA,NA
NA,"<div style=""width:500px;"">
                            <p style=""font-size:50px; font-weight:bold;""
                            >Angry</p>
                            <div style=""width:480px; margin: auto;"">
                                <img src=""images/23_angry_med_lo_1_tab20c_ascend_lgsm_bar.png"" width=""480"" height=""420"" style=""object-fit:contain;"">
                            </div>
                        </div>","-37","html-slider-response",134,398493,"0.0-130.0","tba6e0sshv",22,"","","","","","",0,"",NA,"","Angry","images/23_angry_med_lo_1_tab20c_ascend_lgsm_bar.png",NA,NA
NA,"<div style=""width:500px;"">
                            <p style=""font-size:50px; font-weight:bold;""
                            >Angry</p>
                            <div style=""width:480px; margin: auto;"">
                                <img src=""images/23_angry_med_med_2_Paired_ascend_smlg_bar.png"" width=""480"" height=""420"" style=""object-fit:contain;"">
                            </div>
                        </div>","22","html-slider-response",135,400506,"0.0-131.0","tba6e0sshv",22,"","","","","","",0,"",NA,"","Angry","images/23_angry_med_med_2_Paired_ascend_smlg_bar.png",NA,NA
NA,"<div style=""width:500px;"">
                            <p style=""font-size:50px; font-weight:bold;""
                            >Angry</p>
                            <div style=""width:480px; margin: auto;"">
                                <img src=""images/23_angry_hi_lo_2_tab20c_ascend_smlg_bar.png"" width=""480"" height=""420"" style=""object-fit:contain;"">
                            </div>
                        </div>","97","html-slider-response",136,402784,"0.0-132.0","tba6e0sshv",22,"","","","","","",0,"",NA,"","Angry","images/23_angry_hi_lo_2_tab20c_ascend_smlg_bar.png",NA,NA
NA,"<div style=""width:500px;"">
                            <p style=""font-size:50px; font-weight:bold;""
                            >Angry</p>
                            <div style=""width:480px; margin: auto;"">
                                <img src=""images/23_angry_hi_md_3_Paired_ascend_smlg_bar.png"" width=""480"" height=""420"" style=""object-fit:contain;"">
                            </div>
                        </div>","167","html-slider-response",137,405147,"0.0-133.0","tba6e0sshv",22,"","","","","","",0,"",NA,"","Angry","images/23_angry_hi_md_3_Paired_ascend_smlg_bar.png",NA,NA
NA,"<div style=""width:500px;"">
                            <p style=""font-size:50px; font-weight:bold;""
                            >Angry</p>
                            <div style=""width:480px; margin: auto;"">
                                <img src=""images/23_angry_hi_hi_3_tab10new_ascend_lgsm_bar.png"" width=""480"" height=""420"" style=""object-fit:contain;"">
                            </div>
                        </div>","22","html-slider-response",138,407100,"0.0-134.0","tba6e0sshv",22,"","","","","","",0,"",NA,"","Angry","images/23_angry_hi_hi_3_tab10new_ascend_lgsm_bar.png",NA,NA
NA,"<div style=""width:500px;"">
                            <p style=""font-size:50px; font-weight:bold;""
                            >Angry</p>
                            <div style=""width:480px; margin: auto;"">
                                <img src=""images/23_angry_hi_hi_1_tab20_ascend_lgsm_bar.png"" width=""480"" height=""420"" style=""object-fit:contain;"">
                            </div>
                        </div>","66","html-slider-response",139,408707,"0.0-135.0","tba6e0sshv",22,"","","","","","",0,"",NA,"","Angry","images/23_angry_hi_hi_1_tab20_ascend_lgsm_bar.png",NA,NA
NA,"<div style=""width:500px;"">
                            <p style=""font-size:50px; font-weight:bold;""
                            >Angry</p>
                            <div style=""width:480px; margin: auto;"">
                                <img src=""images/23_angry_med_med_1_tab20b_decend_smlg_bar.png"" width=""480"" height=""420"" style=""object-fit:contain;"">
                            </div>
                        </div>","-26","html-slider-response",140,410334,"0.0-136.0","tba6e0sshv",22,"","","","","","",0,"",NA,"","Angry","images/23_angry_med_med_1_tab20b_decend_smlg_bar.png",NA,NA
NA,"<div style=""width:500px;"">
                            <p style=""font-size:50px; font-weight:bold;""
                            >Angry</p>
                            <div style=""width:480px; margin: auto;"">
                                <img src=""images/23_angry_med_med_1_tab20b_ascend_lgsm_bar.png"" width=""480"" height=""420"" style=""object-fit:contain;"">
                            </div>
                        </div>","-62","html-slider-response",141,411841,"0.0-137.0","tba6e0sshv",22,"","","","","","",0,"",NA,"","Angry","images/23_angry_med_med_1_tab20b_ascend_lgsm_bar.png",NA,NA
NA,"<div style=""width:500px;"">
                            <p style=""font-size:50px; font-weight:bold;""
                            >Angry</p>
                            <div style=""width:480px; margin: auto;"">
                                <img src=""images/23_angry_lo_lo_1_tab20c_decend_smlg_bar.png"" width=""480"" height=""420"" style=""object-fit:contain;"">
                            </div>
                        </div>","-162","html-slider-response",142,414123,"0.0-138.0","tba6e0sshv",22,"","","","","","",0,"",NA,"","Angry","images/23_angry_lo_lo_1_tab20c_decend_smlg_bar.png",NA,NA
NA,"<div style=""width:500px;"">
                            <p style=""font-size:50px; font-weight:bold;""
                            >Angry</p>
                            <div style=""width:480px; margin: auto;"">
                                <img src=""images/23_angry_hi_hi_1_tab20_ascend_smlg_bar.png"" width=""480"" height=""420"" style=""object-fit:contain;"">
                            </div>
                        </div>","154","html-slider-response",143,416160,"0.0-139.0","tba6e0sshv",22,"","","","","","",0,"",NA,"","Angry","images/23_angry_hi_hi_1_tab20_ascend_smlg_bar.png",NA,NA
NA,"<div style=""width:500px;"">
                            <p style=""font-size:50px; font-weight:bold;""
                            >Angry</p>
                            <div style=""width:480px; margin: auto;"">
                                <img src=""images/23_angry_hi_lo_3_Paired_ascend_smlg_bar.png"" width=""480"" height=""420"" style=""object-fit:contain;"">
                            </div>
                        </div>","180","html-slider-response",144,417990,"0.0-140.0","tba6e0sshv",22,"","","","","","",0,"",NA,"","Angry","images/23_angry_hi_lo_3_Paired_ascend_smlg_bar.png",NA,NA
NA,"<div style=""width:500px;"">
                            <p style=""font-size:50px; font-weight:bold;""
                            >Angry</p>
                            <div style=""width:480px; margin: auto;"">
                                <img src=""images/23_angry_hi_lo_1_tab20_ascend_lgsm_bar.png"" width=""480"" height=""420"" style=""object-fit:contain;"">
                            </div>
                        </div>","30","html-slider-response",145,420291,"0.0-141.0","tba6e0sshv",22,"","","","","","",0,"",NA,"","Angry","images/23_angry_hi_lo_1_tab20_ascend_lgsm_bar.png",NA,NA
NA,"<div style=""width:500px;"">
                            <p style=""font-size:50px; font-weight:bold;""
                            >Angry</p>
                            <div style=""width:480px; margin: auto;"">
                                <img src=""images/23_angry_med_lo_3_Pastel1_ascend_smlg_bar.png"" width=""480"" height=""420"" style=""object-fit:contain;"">
                            </div>
                        </div>","-171","html-slider-response",146,421894,"0.0-142.0","tba6e0sshv",22,"","","","","","",0,"",NA,"","Angry","images/23_angry_med_lo_3_Pastel1_ascend_smlg_bar.png",NA,NA
NA,"<div style=""width:500px;"">
                            <p style=""font-size:50px; font-weight:bold;""
                            >Angry</p>
                            <div style=""width:480px; margin: auto;"">
                                <img src=""images/23_angry_lo_lo_2_Pastel1_decend_lgsm_bar.png"" width=""480"" height=""420"" style=""object-fit:contain;"">
                            </div>
                        </div>","-200","html-slider-response",147,423513,"0.0-143.0","tba6e0sshv",22,"","","","","","",0,"",NA,"","Angry","images/23_angry_lo_lo_2_Pastel1_decend_lgsm_bar.png",NA,NA
NA,"<div style=""width:500px;"">
                            <p style=""font-size:50px; font-weight:bold;""
                            >Angry</p>
                            <div style=""width:480px; margin: auto;"">
                                <img src=""images/23_angry_med_lo_1_tab20c_decend_smlg_bar.png"" width=""480"" height=""420"" style=""object-fit:contain;"">
                            </div>
                        </div>","-21","html-slider-response",148,425406,"0.0-144.0","tba6e0sshv",22,"","","","","","",0,"",NA,"","Angry","images/23_angry_med_lo_1_tab20c_decend_smlg_bar.png",NA,NA
NA,"<div style=""width:500px;"">
                            <p style=""font-size:50px; font-weight:bold;""
                            >Angry</p>
                            <div style=""width:480px; margin: auto;"">
                                <img src=""images/23_angry_med_lo_1_tab20c_ascend_smlg_bar.png"" width=""480"" height=""420"" style=""object-fit:contain;"">
                            </div>
                        </div>","13","html-slider-response",149,428820,"0.0-145.0","tba6e0sshv",22,"","","","","","",0,"",NA,"","Angry","images/23_angry_med_lo_1_tab20c_ascend_smlg_bar.png",NA,NA
NA,"<div style=""width:500px;"">
                            <p style=""font-size:50px; font-weight:bold;""
                            >Angry</p>
                            <div style=""width:480px; margin: auto;"">
                                <img src=""images/23_angry_lo_lo_3_Pastel2_decend_lgsm_bar.png"" width=""480"" height=""420"" style=""object-fit:contain;"">
                            </div>
                        </div>","-138","html-slider-response",150,430850,"0.0-146.0","tba6e0sshv",22,"","","","","","",0,"",NA,"","Angry","images/23_angry_lo_lo_3_Pastel2_decend_lgsm_bar.png",NA,NA
NA,"<div style=""width:500px;"">
                            <p style=""font-size:50px; font-weight:bold;""
                            >Angry</p>
                            <div style=""width:480px; margin: auto;"">
                                <img src=""images/23_angry_med_lo_1_tab20c_decend_lgsm_bar.png"" width=""480"" height=""420"" style=""object-fit:contain;"">
                            </div>
                        </div>","-38","html-slider-response",151,432866,"0.0-147.0","tba6e0sshv",22,"","","","","","",0,"",NA,"","Angry","images/23_angry_med_lo_1_tab20c_decend_lgsm_bar.png",NA,NA
NA,"<div style=""width:500px;"">
                            <p style=""font-size:50px; font-weight:bold;""
                            >Angry</p>
                            <div style=""width:480px; margin: auto;"">
                                <img src=""images/23_angry_hi_md_3_Paired_decend_lgsm_bar.png"" width=""480"" height=""420"" style=""object-fit:contain;"">
                            </div>
                        </div>","106","html-slider-response",152,434565,"0.0-148.0","tba6e0sshv",22,"","","","","","",0,"",NA,"","Angry","images/23_angry_hi_md_3_Paired_decend_lgsm_bar.png",NA,NA
NA,"<div style=""width:500px;"">
                            <p style=""font-size:50px; font-weight:bold;""
                            >Angry</p>
                            <div style=""width:480px; margin: auto;"">
                                <img src=""images/23_angry_hi_lo_1_tab20_decend_lgsm_bar.png"" width=""480"" height=""420"" style=""object-fit:contain;"">
                            </div>
                        </div>","200","html-slider-response",153,436330,"0.0-149.0","tba6e0sshv",22,"","","","","","",0,"",NA,"","Angry","images/23_angry_hi_lo_1_tab20_decend_lgsm_bar.png",NA,NA
NA,"<div style=""width:500px;"">
                            <p style=""font-size:50px; font-weight:bold;""
                            >Angry</p>
                            <div style=""width:480px; margin: auto;"">
                                <img src=""images/23_angry_med_med_2_Paired_ascend_lgsm_bar.png"" width=""480"" height=""420"" style=""object-fit:contain;"">
                            </div>
                        </div>","27","html-slider-response",154,438682,"0.0-150.0","tba6e0sshv",22,"","","","","","",0,"",NA,"","Angry","images/23_angry_med_med_2_Paired_ascend_lgsm_bar.png",NA,NA
NA,"<div style=""width:500px;"">
                            <p style=""font-size:50px; font-weight:bold;""
                            >Angry</p>
                            <div style=""width:480px; margin: auto;"">
                                <img src=""images/23_angry_lo_lo_1_tab20c_ascend_lgsm_bar.png"" width=""480"" height=""420"" style=""object-fit:contain;"">
                            </div>
                        </div>","-153","html-slider-response",155,441011,"0.0-151.0","tba6e0sshv",22,"","","","","","",0,"",NA,"","Angry","images/23_angry_lo_lo_1_tab20c_ascend_lgsm_bar.png",NA,NA
NA,"<div style=""width:500px;"">
                            <p style=""font-size:50px; font-weight:bold;""
                            >Angry</p>
                            <div style=""width:480px; margin: auto;"">
                                <img src=""images/23_angry_hi_hi_2_Paired_decend_smlg_bar.png"" width=""480"" height=""420"" style=""object-fit:contain;"">
                            </div>
                        </div>","121","html-slider-response",156,443024,"0.0-152.0","tba6e0sshv",22,"","","","","","",0,"",NA,"","Angry","images/23_angry_hi_hi_2_Paired_decend_smlg_bar.png",NA,NA
NA,"<div style=""width:500px;"">
                            <p style=""font-size:50px; font-weight:bold;""
                            >Angry</p>
                            <div style=""width:480px; margin: auto;"">
                                <img src=""images/23_angry_med_med_2_Paired_decend_smlg_bar.png"" width=""480"" height=""420"" style=""object-fit:contain;"">
                            </div>
                        </div>","14","html-slider-response",157,444855,"0.0-153.0","tba6e0sshv",22,"","","","","","",0,"",NA,"","Angry","images/23_angry_med_med_2_Paired_decend_smlg_bar.png",NA,NA
NA,"<div style=""width:500px;"">
                            <p style=""font-size:50px; font-weight:bold;""
                            >Angry</p>
                            <div style=""width:480px; margin: auto;"">
                                <img src=""images/23_angry_med_med_3_Set1_decend_smlg_bar.png"" width=""480"" height=""420"" style=""object-fit:contain;"">
                            </div>
                        </div>","15","html-slider-response",158,446632,"0.0-154.0","tba6e0sshv",22,"","","","","","",0,"",NA,"","Angry","images/23_angry_med_med_3_Set1_decend_smlg_bar.png",NA,NA
NA,"<div style=""width:500px;"">
                            <p style=""font-size:50px; font-weight:bold;""
                            >Angry</p>
                            <div style=""width:480px; margin: auto;"">
                                <img src=""images/23_angry_hi_md_1_Set1_ascend_lgsm_bar.png"" width=""480"" height=""420"" style=""object-fit:contain;"">
                            </div>
                        </div>","56","html-slider-response",159,448449,"0.0-155.0","tba6e0sshv",22,"","","","","","",0,"",NA,"","Angry","images/23_angry_hi_md_1_Set1_ascend_lgsm_bar.png",NA,NA
NA,"<div style=""width:500px;"">
                            <p style=""font-size:50px; font-weight:bold;""
                            >Angry</p>
                            <div style=""width:480px; margin: auto;"">
                                <img src=""images/23_angry_med_med_1_tab20b_decend_lgsm_bar.png"" width=""480"" height=""420"" style=""object-fit:contain;"">
                            </div>
                        </div>","113","html-slider-response",160,450484,"0.0-156.0","tba6e0sshv",22,"","","","","","",0,"",NA,"","Angry","images/23_angry_med_med_1_tab20b_decend_lgsm_bar.png",NA,NA
NA,"<div style=""width:500px;"">
                            <p style=""font-size:50px; font-weight:bold;""
                            >Angry</p>
                            <div style=""width:480px; margin: auto;"">
                                <img src=""images/23_angry_med_med_1_tab20b_ascend_smlg_bar.png"" width=""480"" height=""420"" style=""object-fit:contain;"">
                            </div>
                        </div>","102","html-slider-response",161,452681,"0.0-157.0","tba6e0sshv",22,"","","","","","",0,"",NA,"","Angry","images/23_angry_med_med_1_tab20b_ascend_smlg_bar.png",NA,NA
NA,"<div style=""width:500px;"">
                            <p style=""font-size:50px; font-weight:bold;""
                            >Angry</p>
                            <div style=""width:480px; margin: auto;"">
                                <img src=""images/23_angry_hi_hi_2_Paired_decend_lgsm_bar.png"" width=""480"" height=""420"" style=""object-fit:contain;"">
                            </div>
                        </div>","182","html-slider-response",162,454981,"0.0-158.0","tba6e0sshv",22,"","","","","","",0,"",NA,"","Angry","images/23_angry_hi_hi_2_Paired_decend_lgsm_bar.png",NA,NA
NA,"<div style=""width:500px;"">
                            <p style=""font-size:50px; font-weight:bold;""
                            >Angry</p>
                            <div style=""width:480px; margin: auto;"">
                                <img src=""images/23_angry_hi_hi_2_Paired_ascend_smlg_bar.png"" width=""480"" height=""420"" style=""object-fit:contain;"">
                            </div>
                        </div>","185","html-slider-response",163,457188,"0.0-159.0","tba6e0sshv",22,"","","","","","",0,"",NA,"","Angry","images/23_angry_hi_hi_2_Paired_ascend_smlg_bar.png",NA,NA
1143,"<p>Great Job! You've finished block 2.<br></br> You have 3 block(s) left to go.<br></br></p>","0","html-button-response",164,458834,"0.0-160.0","tba6e0sshv",22,"","","","","","",NA,"",NA,"","","",NA,NA
9531,"<p>In this block of trials, you will be asked to rate how much you associate each texture with the concept</p >
                        <p style = 'font-size:150%; font-weight: bold'>Disgust</p><br></br>","0","html-button-response",165,468366,"0.0-161.0","tba6e0sshv",22,"","","","","","",NA,"",NA,"","","",NA,NA
NA,"<div style=""width:500px;"">
                            <p style=""font-size:50px; font-weight:bold;""
                            >Disgust</p>
                            <div style=""width:480px; margin: auto;"">
                                <img src=""images/23_disgust_lo_lo_3_tab20_ascend_smlg_bar.png"" width=""480"" height=""420"" style=""object-fit:contain;"">
                            </div>
                        </div>","-81","html-slider-response",166,470697,"0.0-162.0","tba6e0sshv",22,"","","","","","",0,"",NA,"","Disgust","images/23_disgust_lo_lo_3_tab20_ascend_smlg_bar.png",NA,NA
NA,"<div style=""width:500px;"">
                            <p style=""font-size:50px; font-weight:bold;""
                            >Disgust</p>
                            <div style=""width:480px; margin: auto;"">
                                <img src=""images/23_disgust_hi_md_1_tab20b_decend_lgsm_bar.png"" width=""480"" height=""420"" style=""object-fit:contain;"">
                            </div>
                        </div>","200","html-slider-response",167,472608,"0.0-163.0","tba6e0sshv",22,"","","","","","",0,"",NA,"","Disgust","images/23_disgust_hi_md_1_tab20b_decend_lgsm_bar.png",NA,NA
NA,"<div style=""width:500px;"">
                            <p style=""font-size:50px; font-weight:bold;""
                            >Disgust</p>
                            <div style=""width:480px; margin: auto;"">
                                <img src=""images/23_disgust_hi_md_2_Dark2_ascend_lgsm_bar.png"" width=""480"" height=""420"" style=""object-fit:contain;"">
                            </div>
                        </div>","21","html-slider-response",168,474515,"0.0-164.0","tba6e0sshv",22,"","","","","","",0,"",NA,"","Disgust","images/23_disgust_hi_md_2_Dark2_ascend_lgsm_bar.png",NA,NA
NA,"<div style=""width:500px;"">
                            <p style=""font-size:50px; font-weight:bold;""
                            >Disgust</p>
                            <div style=""width:480px; margin: auto;"">
                                <img src=""images/23_disgust_med_lo_1_tab20c_ascend_lgsm_bar.png"" width=""480"" height=""420"" style=""object-fit:contain;"">
                            </div>
                        </div>","-65","html-slider-response",169,476381,"0.0-165.0","tba6e0sshv",22,"","","","","","",0,"",NA,"","Disgust","images/23_disgust_med_lo_1_tab20c_ascend_lgsm_bar.png",NA,NA
NA,"<div style=""width:500px;"">
                            <p style=""font-size:50px; font-weight:bold;""
                            >Disgust</p>
