"rt","stimulus","response","trial_type","trial_index","time_elapsed","internal_node_id","subject_id","condition_num","success","timeout","failed_images","failed_audio","failed_video","question_order","slider_start","practiceTrial","practiceTrialNum","correct","concept","texture_id","ishihara_plate","correct_response"
4570,"Welcome to our experiment!<p>At the bottom of this screen, you will see a button that says ""Begin Experiment"".<br>Please only click that button when you are ready to complete the 30 minute experiment in one sitting.</p><p> Once you click that button, it will not be possible to restart the experiment.","0","html-button-response",0,4574,"0.0-0.0","ugagcq8m6c",25,"","","","","","",NA,"",NA,"","","",NA,NA
NA,"","","preload",1,6927,"0.0-1.0","ugagcq8m6c",25,"true","false","[]","[]","[]","",NA,"",NA,"","","",NA,NA
1572,"","","fullscreen",2,9524,"0.0-2.0","ugagcq8m6c",25,"true","","","","","",NA,"",NA,"","","",NA,NA
17014,"","{""Consent"":[""<strong>I consent</strong>""]}","survey-multi-select",3,26544,"0.0-3.0","ugagcq8m6c",25,"","","","","","[0]",NA,"",NA,"","","",NA,NA
1482,"Welcome! <p> This experiment involves two parts: demographic information, followed by the experimental task.<p> It will take about 30 minutes to complete both parts.","0","html-button-response",4,28029,"0.0-4.0","ugagcq8m6c",25,"","","","","","",NA,"",NA,"","","",NA,NA
33893,"","{""Age"":""18"",""Gender"":""Female"",""Race/ethnicity"":""Black"",""Languages"":""English and Igbo""}","survey-text",5,61940,"0.0-5.0","ugagcq8m6c",25,"","","","","","",NA,"",NA,"","","",NA,NA
10388,"
                        <div>
                            <div style='text-align:left; font-size:18px; line-height:25px; width: 1300px;'>
                                During this experiment you will be asked to rate how much you associate charts with                                different concepts. Below, you can see some examples of the charts you will be asked to rate. Above the charts
                                is the list of concepts. You will be asked
                                to rate how much you associate each chart with each concept on a scale from 'not at all' to 'very much' like the
                                one below. <br>

                        <div style=""text-align: left; width: 1300px;"">
                            <p style=""font-size:18px; line-height:20px; text-align:center; font-weight:bold"">
                                Disgust, Fearful, Happy, Sad, Angry
                            </p>
                        </div>

                        <div style=""display: flex; justify-content: center; width: 100%;"">
                            <div style=""
                                display: grid;
                                grid-template-columns: repeat(5, 1fr);
                                gap: 8px;
                                padding: 10px;
                                width: 900px;  
                                margin: 0 auto;
                            "">
                                
                                    <div style=""width: 100%;"">
                                        <img src=""images/26_fearful_lo_lo_1_Pastel1_ascend_lgsm_bar.png"" style=""width: 100%; height: auto; object-fit: contain;"">
                                    </div>
                                
                                    <div style=""width: 100%;"">
                                        <img src=""images/26_happy_lo_lo_1_tab20b_ascend_smlg_bar.png"" style=""width: 100%; height: auto; object-fit: contain;"">
                                    </div>
                                
                                    <div style=""width: 100%;"">
                                        <img src=""images/26_disgust_lo_lo_1_tab20c_decend_lgsm_bar.png"" style=""width: 100%; height: auto; object-fit: contain;"">
                                    </div>
                                
                                    <div style=""width: 100%;"">
                                        <img src=""images/26_disgust_hi_hi_1_tab20b_ascend_lgsm_bar.png"" style=""width: 100%; height: auto; object-fit: contain;"">
                                    </div>
                                
                                    <div style=""width: 100%;"">
                                        <img src=""images/26_angry_lo_lo_1_tab20c_decend_smlg_bar.png"" style=""width: 100%; height: auto; object-fit: contain;"">
                                    </div>
                                
                                    <div style=""width: 100%;"">
                                        <img src=""images/26_sad_lo_lo_1_Set1_decend_smlg_bar.png"" style=""width: 100%; height: auto; object-fit: contain;"">
                                    </div>
                                
                                    <div style=""width: 100%;"">
                                        <img src=""images/26_happy_hi_hi_1_Set1_ascend_lgsm_bar.png"" style=""width: 100%; height: auto; object-fit: contain;"">
                                    </div>
                                
                                    <div style=""width: 100%;"">
                                        <img src=""images/26_fearful_hi_hi_1_tab20b_decend_lgsm_bar.png"" style=""width: 100%; height: auto; object-fit: contain;"">
                                    </div>
                                
                                    <div style=""width: 100%;"">
                                        <img src=""images/26_sad_hi_hi_1_tab20_ascend_lgsm_bar.png"" style=""width: 100%; height: auto; object-fit: contain;"">
                                    </div>
                                
                                    <div style=""width: 100%;"">
                                        <img src=""images/26_angry_hi_hi_1_tab20_decend_lgsm_bar.png"" style=""width: 100%; height: auto; object-fit: contain;"">
                                    </div>
                                
                            </div>
                        </div>
                    </div>
                </div>
                    ","200","html-slider-response",6,72332,"0.0-6.0","ugagcq8m6c",25,"","","","","","",0,"true",NA,"","","",NA,NA
4094,"<div style=""width:1300px;""><p style=""text-align:left"">To move the slider, click and drag your cursor to the location of the scale where you would like to make your rating and then let go. When you let go of the slider, your response will be recorded and the next trial will begin. <br>
                    We are interested in your initial impressions of each chart for a given concept, so please go with your first intuition. 
                    Before you begin the experiment, there will be four training trials for you to practice using the slider. 
                     When you are ready to start the training trials, please click ""Continue"".</p><br></div>","0","html-button-response",7,76429,"0.0-7.0","ugagcq8m6c",25,"","","","","","",NA,"",NA,"","","",NA,NA
NA,"<div style=""width:500px;"">
                                    <p style=""font-size:25px;"">Please move the slider all the way to the <br> right endpoint of the scale</p>

                                    </div>
                                </div>","200","html-slider-response",8,84189,"0.0-8.0-0.0","ugagcq8m6c",25,"","","","","","",0,"true",0,"true","","",NA,NA
1369,"<p align='center'><b>Good job!</b> Click on 'Continue' to proceed.</p>","0","html-button-response",9,86076,"0.0-8.0-1.0","ugagcq8m6c",25,"","","","","","",NA,"",NA,"","","",NA,NA
NA,"<div style=""width:500px;"">
                                    <p style=""font-size:25px;"">Please move the slider all the way to the <br> left endpoint of the scale</p>

                                    </div>
                                </div>","-200","html-slider-response",10,90021,"0.0-9.0-0.0","ugagcq8m6c",25,"","","","","","",0,"true",1,"true","","",NA,NA
964,"<p align='center'><b>Good job!</b> Click on 'Continue' to proceed.</p>","0","html-button-response",11,91501,"0.0-9.0-1.0","ugagcq8m6c",25,"","","","","","",NA,"",NA,"","","",NA,NA
NA,"<div style=""width:500px;"">
                                    <p style=""font-size:25px;"">Please move the slider halfway between the center and right endpoint of the scale</p>

                                    </div>
                                </div>","2","html-slider-response",12,96492,"0.0-10.0-0.0","ugagcq8m6c",25,"","","","","","",0,"true",2,"false","","",NA,NA
3989,"<p align='center'><b>Not quite!</b> The slider was not placed near the instructed located. Click on 'Continue' to try again. </p>","0","html-button-response",13,100986,"0.0-10.0-1.0","ugagcq8m6c",25,"","","","","","",NA,"",NA,"","","",NA,NA
NA,"<div style=""width:500px;"">
                                    <p style=""font-size:25px;"">Please move the slider halfway between the center and right endpoint of the scale</p>

                                    </div>
                                </div>","98","html-slider-response",14,107042,"0.0-10.1-0.1","ugagcq8m6c",25,"","","","","","",0,"true",2,"true","","",NA,NA
1382,"<p align='center'><b>Good job!</b> Click on 'Continue' to proceed.</p>","0","html-button-response",15,108929,"0.0-10.1-1.1","ugagcq8m6c",25,"","","","","","",NA,"",NA,"","","",NA,NA
NA,"<div style=""width:500px;"">
                                    <p style=""font-size:25px;"">Please move the slider halfway between the center and left endpoint of the scale</p>

                                    </div>
                                </div>","-109","html-slider-response",16,112665,"0.0-11.0-0.0","ugagcq8m6c",25,"","","","","","",0,"true",3,"true","","",NA,NA
1131,"<p align='center'><b>Good job!</b> Click on 'Continue' to proceed.</p>","0","html-button-response",17,114306,"0.0-11.0-1.0","ugagcq8m6c",25,"","","","","","",NA,"",NA,"","","",NA,NA
1043,"<p>Great job! You've completed the practice trials. Now you will begin the main task.</p>","0","html-button-response",18,115350,"0.0-12.0","ugagcq8m6c",25,"","","","","","",NA,"",NA,"","","",NA,NA
3733,"<p>In this block of trials, you will be asked to rate how much you associate each texture with the concept</p >
                        <p style = 'font-size:150%; font-weight: bold'>Disgust</p><br></br>","0","html-button-response",19,119085,"0.0-13.0","ugagcq8m6c",25,"","","","","","",NA,"",NA,"","","",NA,NA
NA,"<div style=""width:500px;"">
                            <p style=""font-size:50px; font-weight:bold;""
                            >Disgust</p>
                            <div style=""width:480px; margin: auto;"">
                                <img src=""images/26_disgust_hi_lo_3_Paired_ascend_lgsm_bar.png"" width=""480"" height=""420"" style=""object-fit:contain;"">
                            </div>
                        </div>","-198","html-slider-response",20,127271,"0.0-14.0","ugagcq8m6c",25,"","","","","","",0,"",NA,"","Disgust","images/26_disgust_hi_lo_3_Paired_ascend_lgsm_bar.png",NA,NA
NA,"<div style=""width:500px;"">
                            <p style=""font-size:50px; font-weight:bold;""
                            >Disgust</p>
                            <div style=""width:480px; margin: auto;"">
                                <img src=""images/26_disgust_med_med_2_tab20_ascend_lgsm_bar.png"" width=""480"" height=""420"" style=""object-fit:contain;"">
                            </div>
                        </div>","-156","html-slider-response",21,131657,"0.0-15.0","ugagcq8m6c",25,"","","","","","",0,"",NA,"","Disgust","images/26_disgust_med_med_2_tab20_ascend_lgsm_bar.png",NA,NA
NA,"<div style=""width:500px;"">
                            <p style=""font-size:50px; font-weight:bold;""
                            >Disgust</p>
                            <div style=""width:480px; margin: auto;"">
                                <img src=""images/26_disgust_lo_lo_1_tab20c_decend_smlg_bar.png"" width=""480"" height=""420"" style=""object-fit:contain;"">
                            </div>
                        </div>","-200","html-slider-response",22,135572,"0.0-16.0","ugagcq8m6c",25,"","","","","","",0,"",NA,"","Disgust","images/26_disgust_lo_lo_1_tab20c_decend_smlg_bar.png",NA,NA
NA,"<div style=""width:500px;"">
                            <p style=""font-size:50px; font-weight:bold;""
                            >Disgust</p>
                            <div style=""width:480px; margin: auto;"">
                                <img src=""images/26_disgust_hi_md_3_tab20_decend_lgsm_bar.png"" width=""480"" height=""420"" style=""object-fit:contain;"">
                            </div>
                        </div>","-192","html-slider-response",23,138750,"0.0-17.0","ugagcq8m6c",25,"","","","","","",0,"",NA,"","Disgust","images/26_disgust_hi_md_3_tab20_decend_lgsm_bar.png",NA,NA
NA,"<div style=""width:500px;"">
                            <p style=""font-size:50px; font-weight:bold;""
                            >Disgust</p>
                            <div style=""width:480px; margin: auto;"">
                                <img src=""images/26_disgust_hi_md_2_Dark2_ascend_lgsm_bar.png"" width=""480"" height=""420"" style=""object-fit:contain;"">
                            </div>
                        </div>","-200","html-slider-response",24,142208,"0.0-18.0","ugagcq8m6c",25,"","","","","","",0,"",NA,"","Disgust","images/26_disgust_hi_md_2_Dark2_ascend_lgsm_bar.png",NA,NA
NA,"<div style=""width:500px;"">
                            <p style=""font-size:50px; font-weight:bold;""
                            >Disgust</p>
                            <div style=""width:480px; margin: auto;"">
                                <img src=""images/26_disgust_hi_hi_2_tab20_ascend_lgsm_bar.png"" width=""480"" height=""420"" style=""object-fit:contain;"">
                            </div>
                        </div>","-193","html-slider-response",25,145192,"0.0-19.0","ugagcq8m6c",25,"","","","","","",0,"",NA,"","Disgust","images/26_disgust_hi_hi_2_tab20_ascend_lgsm_bar.png",NA,NA
NA,"<div style=""width:500px;"">
                            <p style=""font-size:50px; font-weight:bold;""
                            >Disgust</p>
                            <div style=""width:480px; margin: auto;"">
                                <img src=""images/26_disgust_hi_lo_2_tab20_decend_smlg_bar.png"" width=""480"" height=""420"" style=""object-fit:contain;"">
                            </div>
                        </div>","-185","html-slider-response",26,149037,"0.0-20.0","ugagcq8m6c",25,"","","","","","",0,"",NA,"","Disgust","images/26_disgust_hi_lo_2_tab20_decend_smlg_bar.png",NA,NA
NA,"<div style=""width:500px;"">
                            <p style=""font-size:50px; font-weight:bold;""
                            >Disgust</p>
                            <div style=""width:480px; margin: auto;"">
                                <img src=""images/26_disgust_hi_hi_1_tab20b_decend_lgsm_bar.png"" width=""480"" height=""420"" style=""object-fit:contain;"">
                            </div>
                        </div>","-157","html-slider-response",27,152225,"0.0-21.0","ugagcq8m6c",25,"","","","","","",0,"",NA,"","Disgust","images/26_disgust_hi_hi_1_tab20b_decend_lgsm_bar.png",NA,NA
NA,"<div style=""width:500px;"">
                            <p style=""font-size:50px; font-weight:bold;""
                            >Disgust</p>
                            <div style=""width:480px; margin: auto;"">
                                <img src=""images/26_disgust_lo_lo_3_tab20_ascend_smlg_bar.png"" width=""480"" height=""420"" style=""object-fit:contain;"">
                            </div>
                        </div>","-200","html-slider-response",28,155114,"0.0-22.0","ugagcq8m6c",25,"","","","","","",0,"",NA,"","Disgust","images/26_disgust_lo_lo_3_tab20_ascend_smlg_bar.png",NA,NA
NA,"<div style=""width:500px;"">
                            <p style=""font-size:50px; font-weight:bold;""
                            >Disgust</p>
                            <div style=""width:480px; margin: auto;"">
                                <img src=""images/26_disgust_lo_lo_1_tab20c_ascend_lgsm_bar.png"" width=""480"" height=""420"" style=""object-fit:contain;"">
                            </div>
                        </div>","-200","html-slider-response",29,157584,"0.0-23.0","ugagcq8m6c",25,"","","","","","",0,"",NA,"","Disgust","images/26_disgust_lo_lo_1_tab20c_ascend_lgsm_bar.png",NA,NA
NA,"<div style=""width:500px;"">
                            <p style=""font-size:50px; font-weight:bold;""
                            >Disgust</p>
                            <div style=""width:480px; margin: auto;"">
                                <img src=""images/26_disgust_hi_hi_3_Dark2_decend_lgsm_bar.png"" width=""480"" height=""420"" style=""object-fit:contain;"">
                            </div>
                        </div>","-200","html-slider-response",30,160336,"0.0-24.0","ugagcq8m6c",25,"","","","","","",0,"",NA,"","Disgust","images/26_disgust_hi_hi_3_Dark2_decend_lgsm_bar.png",NA,NA
NA,"<div style=""width:500px;"">
                            <p style=""font-size:50px; font-weight:bold;""
                            >Disgust</p>
                            <div style=""width:480px; margin: auto;"">
                                <img src=""images/26_disgust_hi_md_3_tab20_ascend_smlg_bar.png"" width=""480"" height=""420"" style=""object-fit:contain;"">
                            </div>
                        </div>","-200","html-slider-response",31,162789,"0.0-25.0","ugagcq8m6c",25,"","","","","","",0,"",NA,"","Disgust","images/26_disgust_hi_md_3_tab20_ascend_smlg_bar.png",NA,NA
NA,"<div style=""width:500px;"">
                            <p style=""font-size:50px; font-weight:bold;""
                            >Disgust</p>
                            <div style=""width:480px; margin: auto;"">
                                <img src=""images/26_disgust_med_med_3_Paired_decend_smlg_bar.png"" width=""480"" height=""420"" style=""object-fit:contain;"">
                            </div>
                        </div>","-200","html-slider-response",32,165032,"0.0-26.0","ugagcq8m6c",25,"","","","","","",0,"",NA,"","Disgust","images/26_disgust_med_med_3_Paired_decend_smlg_bar.png",NA,NA
NA,"<div style=""width:500px;"">
                            <p style=""font-size:50px; font-weight:bold;""
                            >Disgust</p>
                            <div style=""width:480px; margin: auto;"">
                                <img src=""images/26_disgust_med_lo_2_tab20_ascend_smlg_bar.png"" width=""480"" height=""420"" style=""object-fit:contain;"">
                            </div>
                        </div>","-200","html-slider-response",33,167059,"0.0-27.0","ugagcq8m6c",25,"","","","","","",0,"",NA,"","Disgust","images/26_disgust_med_lo_2_tab20_ascend_smlg_bar.png",NA,NA
NA,"<div style=""width:500px;"">
                            <p style=""font-size:50px; font-weight:bold;""
                            >Disgust</p>
                            <div style=""width:480px; margin: auto;"">
                                <img src=""images/26_disgust_med_med_3_Paired_decend_lgsm_bar.png"" width=""480"" height=""420"" style=""object-fit:contain;"">
                            </div>
                        </div>","2","html-slider-response",34,169104,"0.0-28.0","ugagcq8m6c",25,"","","","","","",0,"",NA,"","Disgust","images/26_disgust_med_med_3_Paired_decend_lgsm_bar.png",NA,NA
NA,"<div style=""width:500px;"">
                            <p style=""font-size:50px; font-weight:bold;""
                            >Disgust</p>
                            <div style=""width:480px; margin: auto;"">
                                <img src=""images/26_disgust_hi_hi_2_tab20_decend_smlg_bar.png"" width=""480"" height=""420"" style=""object-fit:contain;"">
                            </div>
                        </div>","-200","html-slider-response",35,171129,"0.0-29.0","ugagcq8m6c",25,"","","","","","",0,"",NA,"","Disgust","images/26_disgust_hi_hi_2_tab20_decend_smlg_bar.png",NA,NA
NA,"<div style=""width:500px;"">
                            <p style=""font-size:50px; font-weight:bold;""
                            >Disgust</p>
                            <div style=""width:480px; margin: auto;"">
                                <img src=""images/26_disgust_med_med_1_tab20b_ascend_lgsm_bar.png"" width=""480"" height=""420"" style=""object-fit:contain;"">
                            </div>
                        </div>","-200","html-slider-response",36,174905,"0.0-30.0","ugagcq8m6c",25,"","","","","","",0,"",NA,"","Disgust","images/26_disgust_med_med_1_tab20b_ascend_lgsm_bar.png",NA,NA
NA,"<div style=""width:500px;"">
                            <p style=""font-size:50px; font-weight:bold;""
                            >Disgust</p>
                            <div style=""width:480px; margin: auto;"">
                                <img src=""images/26_disgust_hi_lo_3_Paired_decend_lgsm_bar.png"" width=""480"" height=""420"" style=""object-fit:contain;"">
                            </div>
                        </div>","-200","html-slider-response",37,177690,"0.0-31.0","ugagcq8m6c",25,"","","","","","",0,"",NA,"","Disgust","images/26_disgust_hi_lo_3_Paired_decend_lgsm_bar.png",NA,NA
NA,"<div style=""width:500px;"">
                            <p style=""font-size:50px; font-weight:bold;""
                            >Disgust</p>
                            <div style=""width:480px; margin: auto;"">
                                <img src=""images/26_disgust_med_lo_3_Pastel2_ascend_lgsm_bar.png"" width=""480"" height=""420"" style=""object-fit:contain;"">
                            </div>
                        </div>","-200","html-slider-response",38,179433,"0.0-32.0","ugagcq8m6c",25,"","","","","","",0,"",NA,"","Disgust","images/26_disgust_med_lo_3_Pastel2_ascend_lgsm_bar.png",NA,NA
NA,"<div style=""width:500px;"">
                            <p style=""font-size:50px; font-weight:bold;""
                            >Disgust</p>
                            <div style=""width:480px; margin: auto;"">
                                <img src=""images/26_disgust_hi_md_1_tab20b_ascend_smlg_bar.png"" width=""480"" height=""420"" style=""object-fit:contain;"">
                            </div>
                        </div>","-200","html-slider-response",39,181902,"0.0-33.0","ugagcq8m6c",25,"","","","","","",0,"",NA,"","Disgust","images/26_disgust_hi_md_1_tab20b_ascend_smlg_bar.png",NA,NA
NA,"<div style=""width:500px;"">
                            <p style=""font-size:50px; font-weight:bold;""
                            >Disgust</p>
                            <div style=""width:480px; margin: auto;"">
                                <img src=""images/26_disgust_hi_md_2_Dark2_decend_smlg_bar.png"" width=""480"" height=""420"" style=""object-fit:contain;"">
                            </div>
                        </div>","-200","html-slider-response",40,184591,"0.0-34.0","ugagcq8m6c",25,"","","","","","",0,"",NA,"","Disgust","images/26_disgust_hi_md_2_Dark2_decend_smlg_bar.png",NA,NA
NA,"<div style=""width:500px;"">
                            <p style=""font-size:50px; font-weight:bold;""
                            >Disgust</p>
                            <div style=""width:480px; margin: auto;"">
                                <img src=""images/26_disgust_med_med_1_tab20b_decend_smlg_bar.png"" width=""480"" height=""420"" style=""object-fit:contain;"">
                            </div>
                        </div>","-200","html-slider-response",41,187291,"0.0-35.0","ugagcq8m6c",25,"","","","","","",0,"",NA,"","Disgust","images/26_disgust_med_med_1_tab20b_decend_smlg_bar.png",NA,NA
NA,"<div style=""width:500px;"">
                            <p style=""font-size:50px; font-weight:bold;""
                            >Disgust</p>
                            <div style=""width:480px; margin: auto;"">
                                <img src=""images/26_disgust_lo_lo_2_Pastel1_ascend_smlg_bar.png"" width=""480"" height=""420"" style=""object-fit:contain;"">
                            </div>
                        </div>","-200","html-slider-response",42,189724,"0.0-36.0","ugagcq8m6c",25,"","","","","","",0,"",NA,"","Disgust","images/26_disgust_lo_lo_2_Pastel1_ascend_smlg_bar.png",NA,NA
NA,"<div style=""width:500px;"">
                            <p style=""font-size:50px; font-weight:bold;""
                            >Disgust</p>
                            <div style=""width:480px; margin: auto;"">
                                <img src=""images/26_disgust_hi_lo_1_tab20b_ascend_lgsm_bar.png"" width=""480"" height=""420"" style=""object-fit:contain;"">
                            </div>
                        </div>","-200","html-slider-response",43,191890,"0.0-37.0","ugagcq8m6c",25,"","","","","","",0,"",NA,"","Disgust","images/26_disgust_hi_lo_1_tab20b_ascend_lgsm_bar.png",NA,NA
NA,"<div style=""width:500px;"">
                            <p style=""font-size:50px; font-weight:bold;""
                            >Disgust</p>
                            <div style=""width:480px; margin: auto;"">
                                <img src=""images/26_disgust_med_med_2_tab20_ascend_smlg_bar.png"" width=""480"" height=""420"" style=""object-fit:contain;"">
                            </div>
                        </div>","-200","html-slider-response",44,194057,"0.0-38.0","ugagcq8m6c",25,"","","","","","",0,"",NA,"","Disgust","images/26_disgust_med_med_2_tab20_ascend_smlg_bar.png",NA,NA
NA,"<div style=""width:500px;"">
                            <p style=""font-size:50px; font-weight:bold;""
                            >Disgust</p>
                            <div style=""width:480px; margin: auto;"">
                                <img src=""images/26_disgust_hi_md_1_tab20b_decend_lgsm_bar.png"" width=""480"" height=""420"" style=""object-fit:contain;"">
                            </div>
                        </div>","-200","html-slider-response",45,196589,"0.0-39.0","ugagcq8m6c",25,"","","","","","",0,"",NA,"","Disgust","images/26_disgust_hi_md_1_tab20b_decend_lgsm_bar.png",NA,NA
NA,"<div style=""width:500px;"">
                            <p style=""font-size:50px; font-weight:bold;""
                            >Disgust</p>
                            <div style=""width:480px; margin: auto;"">
                                <img src=""images/26_disgust_lo_lo_2_Pastel1_ascend_lgsm_bar.png"" width=""480"" height=""420"" style=""object-fit:contain;"">
                            </div>
                        </div>","-200","html-slider-response",46,198658,"0.0-40.0","ugagcq8m6c",25,"","","","","","",0,"",NA,"","Disgust","images/26_disgust_lo_lo_2_Pastel1_ascend_lgsm_bar.png",NA,NA
NA,"<div style=""width:500px;"">
                            <p style=""font-size:50px; font-weight:bold;""
                            >Disgust</p>
                            <div style=""width:480px; margin: auto;"">
                                <img src=""images/26_disgust_med_med_1_tab20b_decend_lgsm_bar.png"" width=""480"" height=""420"" style=""object-fit:contain;"">
                            </div>
                        </div>","-200","html-slider-response",47,202059,"0.0-41.0","ugagcq8m6c",25,"","","","","","",0,"",NA,"","Disgust","images/26_disgust_med_med_1_tab20b_decend_lgsm_bar.png",NA,NA
NA,"<div style=""width:500px;"">
                            <p style=""font-size:50px; font-weight:bold;""
                            >Disgust</p>
                            <div style=""width:480px; margin: auto;"">
                                <img src=""images/26_disgust_med_lo_2_tab20_ascend_lgsm_bar.png"" width=""480"" height=""420"" style=""object-fit:contain;"">
                            </div>
                        </div>","-200","html-slider-response",48,204294,"0.0-42.0","ugagcq8m6c",25,"","","","","","",0,"",NA,"","Disgust","images/26_disgust_med_lo_2_tab20_ascend_lgsm_bar.png",NA,NA
NA,"<div style=""width:500px;"">
                            <p style=""font-size:50px; font-weight:bold;""
                            >Disgust</p>
                            <div style=""width:480px; margin: auto;"">
                                <img src=""images/26_disgust_lo_lo_2_Pastel1_decend_lgsm_bar.png"" width=""480"" height=""420"" style=""object-fit:contain;"">
                            </div>
                        </div>","-200","html-slider-response",49,206471,"0.0-43.0","ugagcq8m6c",25,"","","","","","",0,"",NA,"","Disgust","images/26_disgust_lo_lo_2_Pastel1_decend_lgsm_bar.png",NA,NA
NA,"<div style=""width:500px;"">
                            <p style=""font-size:50px; font-weight:bold;""
                            >Disgust</p>
                            <div style=""width:480px; margin: auto;"">
                                <img src=""images/26_disgust_med_med_1_tab20b_ascend_smlg_bar.png"" width=""480"" height=""420"" style=""object-fit:contain;"">
                            </div>
                        </div>","-200","html-slider-response",50,208523,"0.0-44.0","ugagcq8m6c",25,"","","","","","",0,"",NA,"","Disgust","images/26_disgust_med_med_1_tab20b_ascend_smlg_bar.png",NA,NA
NA,"<div style=""width:500px;"">
                            <p style=""font-size:50px; font-weight:bold;""
                            >Disgust</p>
                            <div style=""width:480px; margin: auto;"">
                                <img src=""images/26_disgust_lo_lo_3_tab20_decend_lgsm_bar.png"" width=""480"" height=""420"" style=""object-fit:contain;"">
                            </div>
                        </div>","-200","html-slider-response",51,211026,"0.0-45.0","ugagcq8m6c",25,"","","","","","",0,"",NA,"","Disgust","images/26_disgust_lo_lo_3_tab20_decend_lgsm_bar.png",NA,NA
NA,"<div style=""width:500px;"">
                            <p style=""font-size:50px; font-weight:bold;""
                            >Disgust</p>
                            <div style=""width:480px; margin: auto;"">
                                <img src=""images/26_disgust_hi_lo_2_tab20_ascend_lgsm_bar.png"" width=""480"" height=""420"" style=""object-fit:contain;"">
                            </div>
                        </div>","-200","html-slider-response",52,212603,"0.0-46.0","ugagcq8m6c",25,"","","","","","",0,"",NA,"","Disgust","images/26_disgust_hi_lo_2_tab20_ascend_lgsm_bar.png",NA,NA
NA,"<div style=""width:500px;"">
                            <p style=""font-size:50px; font-weight:bold;""
                            >Disgust</p>
                            <div style=""width:480px; margin: auto;"">
                                <img src=""images/26_disgust_hi_lo_3_Paired_ascend_smlg_bar.png"" width=""480"" height=""420"" style=""object-fit:contain;"">
                            </div>
                        </div>","-200","html-slider-response",53,214464,"0.0-47.0","ugagcq8m6c",25,"","","","","","",0,"",NA,"","Disgust","images/26_disgust_hi_lo_3_Paired_ascend_smlg_bar.png",NA,NA
NA,"<div style=""width:500px;"">
                            <p style=""font-size:50px; font-weight:bold;""
                            >Disgust</p>
                            <div style=""width:480px; margin: auto;"">
                                <img src=""images/26_disgust_med_lo_3_Pastel2_decend_lgsm_bar.png"" width=""480"" height=""420"" style=""object-fit:contain;"">
                            </div>
                        </div>","-200","html-slider-response",54,216405,"0.0-48.0","ugagcq8m6c",25,"","","","","","",0,"",NA,"","Disgust","images/26_disgust_med_lo_3_Pastel2_decend_lgsm_bar.png",NA,NA
NA,"<div style=""width:500px;"">
                            <p style=""font-size:50px; font-weight:bold;""
                            >Disgust</p>
                            <div style=""width:480px; margin: auto;"">
                                <img src=""images/26_disgust_hi_hi_1_tab20b_ascend_lgsm_bar.png"" width=""480"" height=""420"" style=""object-fit:contain;"">
                            </div>
                        </div>","-200","html-slider-response",55,218430,"0.0-49.0","ugagcq8m6c",25,"","","","","","",0,"",NA,"","Disgust","images/26_disgust_hi_hi_1_tab20b_ascend_lgsm_bar.png",NA,NA
NA,"<div style=""width:500px;"">
                            <p style=""font-size:50px; font-weight:bold;""
                            >Disgust</p>
                            <div style=""width:480px; margin: auto;"">
                                <img src=""images/26_disgust_hi_lo_2_tab20_ascend_smlg_bar.png"" width=""480"" height=""420"" style=""object-fit:contain;"">
                            </div>
                        </div>","-200","html-slider-response",56,220489,"0.0-50.0","ugagcq8m6c",25,"","","","","","",0,"",NA,"","Disgust","images/26_disgust_hi_lo_2_tab20_ascend_smlg_bar.png",NA,NA
NA,"<div style=""width:500px;"">
                            <p style=""font-size:50px; font-weight:bold;""
                            >Disgust</p>
                            <div style=""width:480px; margin: auto;"">
                                <img src=""images/26_disgust_hi_md_2_Dark2_decend_lgsm_bar.png"" width=""480"" height=""420"" style=""object-fit:contain;"">
                            </div>
                        </div>","-200","html-slider-response",57,222756,"0.0-51.0","ugagcq8m6c",25,"","","","","","",0,"",NA,"","Disgust","images/26_disgust_hi_md_2_Dark2_decend_lgsm_bar.png",NA,NA
NA,"<div style=""width:500px;"">
                            <p style=""font-size:50px; font-weight:bold;""
                            >Disgust</p>
                            <div style=""width:480px; margin: auto;"">
                                <img src=""images/26_disgust_lo_lo_2_Pastel1_decend_smlg_bar.png"" width=""480"" height=""420"" style=""object-fit:contain;"">
                            </div>
                        </div>","-200","html-slider-response",58,224656,"0.0-52.0","ugagcq8m6c",25,"","","","","","",0,"",NA,"","Disgust","images/26_disgust_lo_lo_2_Pastel1_decend_smlg_bar.png",NA,NA
NA,"<div style=""width:500px;"">
                            <p style=""font-size:50px; font-weight:bold;""
                            >Disgust</p>
                            <div style=""width:480px; margin: auto;"">
                                <img src=""images/26_disgust_med_lo_1_tab20c_ascend_lgsm_bar.png"" width=""480"" height=""420"" style=""object-fit:contain;"">
                            </div>
                        </div>","-200","html-slider-response",59,226302,"0.0-53.0","ugagcq8m6c",25,"","","","","","",0,"",NA,"","Disgust","images/26_disgust_med_lo_1_tab20c_ascend_lgsm_bar.png",NA,NA
NA,"<div style=""width:500px;"">
                            <p style=""font-size:50px; font-weight:bold;""
                            >Disgust</p>
                            <div style=""width:480px; margin: auto;"">
                                <img src=""images/26_disgust_hi_hi_1_tab20b_decend_smlg_bar.png"" width=""480"" height=""420"" style=""object-fit:contain;"">
                            </div>
                        </div>","-200","html-slider-response",60,233125,"0.0-54.0","ugagcq8m6c",25,"","","","","","",0,"",NA,"","Disgust","images/26_disgust_hi_hi_1_tab20b_decend_smlg_bar.png",NA,NA
NA,"<div style=""width:500px;"">
                            <p style=""font-size:50px; font-weight:bold;""
                            >Disgust</p>
                            <div style=""width:480px; margin: auto;"">
                                <img src=""images/26_disgust_hi_lo_2_tab20_decend_lgsm_bar.png"" width=""480"" height=""420"" style=""object-fit:contain;"">
                            </div>
                        </div>","-200","html-slider-response",61,238159,"0.0-55.0","ugagcq8m6c",25,"","","","","","",0,"",NA,"","Disgust","images/26_disgust_hi_lo_2_tab20_decend_lgsm_bar.png",NA,NA
NA,"<div style=""width:500px;"">
                            <p style=""font-size:50px; font-weight:bold;""
                            >Disgust</p>
                            <div style=""width:480px; margin: auto;"">
                                <img src=""images/26_disgust_hi_md_2_Dark2_ascend_smlg_bar.png"" width=""480"" height=""420"" style=""object-fit:contain;"">
                            </div>
                        </div>","-200","html-slider-response",62,267256,"0.0-56.0","ugagcq8m6c",25,"","","","","","",0,"",NA,"","Disgust","images/26_disgust_hi_md_2_Dark2_ascend_smlg_bar.png",NA,NA
NA,"<div style=""width:500px;"">
                            <p style=""font-size:50px; font-weight:bold;""
                            >Disgust</p>
                            <div style=""width:480px; margin: auto;"">
                                <img src=""images/26_disgust_hi_hi_2_tab20_decend_lgsm_bar.png"" width=""480"" height=""420"" style=""object-fit:contain;"">
                            </div>
                        </div>","-200","html-slider-response",63,270423,"0.0-57.0","ugagcq8m6c",25,"","","","","","",0,"",NA,"","Disgust","images/26_disgust_hi_hi_2_tab20_decend_lgsm_bar.png",NA,NA
NA,"<div style=""width:500px;"">
                            <p style=""font-size:50px; font-weight:bold;""
                            >Disgust</p>
                            <div style=""width:480px; margin: auto;"">
                                <img src=""images/26_disgust_med_lo_3_Pastel2_decend_smlg_bar.png"" width=""480"" height=""420"" style=""object-fit:contain;"">
                            </div>
                        </div>","-200","html-slider-response",64,275861,"0.0-58.0","ugagcq8m6c",25,"","","","","","",0,"",NA,"","Disgust","images/26_disgust_med_lo_3_Pastel2_decend_smlg_bar.png",NA,NA
NA,"<div style=""width:500px;"">
                            <p style=""font-size:50px; font-weight:bold;""
                            >Disgust</p>
                            <div style=""width:480px; margin: auto;"">
                                <img src=""images/26_disgust_hi_md_1_tab20b_ascend_lgsm_bar.png"" width=""480"" height=""420"" style=""object-fit:contain;"">
                            </div>
                        </div>","-200","html-slider-response",65,278388,"0.0-59.0","ugagcq8m6c",25,"","","","","","",0,"",NA,"","Disgust","images/26_disgust_hi_md_1_tab20b_ascend_lgsm_bar.png",NA,NA
NA,"<div style=""width:500px;"">
                            <p style=""font-size:50px; font-weight:bold;""
                            >Disgust</p>
                            <div style=""width:480px; margin: auto;"">
                                <img src=""images/26_disgust_hi_lo_1_tab20b_decend_smlg_bar.png"" width=""480"" height=""420"" style=""object-fit:contain;"">
                            </div>
                        </div>","-200","html-slider-response",66,280130,"0.0-60.0","ugagcq8m6c",25,"","","","","","",0,"",NA,"","Disgust","images/26_disgust_hi_lo_1_tab20b_decend_smlg_bar.png",NA,NA
NA,"<div style=""width:500px;"">
                            <p style=""font-size:50px; font-weight:bold;""
                            >Disgust</p>
                            <div style=""width:480px; margin: auto;"">
                                <img src=""images/26_disgust_hi_hi_3_Dark2_decend_smlg_bar.png"" width=""480"" height=""420"" style=""object-fit:contain;"">
                            </div>
                        </div>","-200","html-slider-response",67,285416,"0.0-61.0","ugagcq8m6c",25,"","","","","","",0,"",NA,"","Disgust","images/26_disgust_hi_hi_3_Dark2_decend_smlg_bar.png",NA,NA
NA,"<div style=""width:500px;"">
                            <p style=""font-size:50px; font-weight:bold;""
                            >Disgust</p>
                            <div style=""width:480px; margin: auto;"">
                                <img src=""images/26_disgust_med_lo_1_tab20c_decend_lgsm_bar.png"" width=""480"" height=""420"" style=""object-fit:contain;"">
                            </div>
                        </div>","-147","html-slider-response",68,300026,"0.0-62.0","ugagcq8m6c",25,"","","","","","",0,"",NA,"","Disgust","images/26_disgust_med_lo_1_tab20c_decend_lgsm_bar.png",NA,NA
NA,"<div style=""width:500px;"">
                            <p style=""font-size:50px; font-weight:bold;""
                            >Disgust</p>
                            <div style=""width:480px; margin: auto;"">
                                <img src=""images/26_disgust_med_med_3_Paired_ascend_lgsm_bar.png"" width=""480"" height=""420"" style=""object-fit:contain;"">
                            </div>
                        </div>","-190","html-slider-response",69,301786,"0.0-63.0","ugagcq8m6c",25,"","","","","","",0,"",NA,"","Disgust","images/26_disgust_med_med_3_Paired_ascend_lgsm_bar.png",NA,NA
NA,"<div style=""width:500px;"">
                            <p style=""font-size:50px; font-weight:bold;""
                            >Disgust</p>
                            <div style=""width:480px; margin: auto;"">
                                <img src=""images/26_disgust_hi_lo_1_tab20b_decend_lgsm_bar.png"" width=""480"" height=""420"" style=""object-fit:contain;"">
                            </div>
                        </div>","-191","html-slider-response",70,305809,"0.0-64.0","ugagcq8m6c",25,"","","","","","",0,"",NA,"","Disgust","images/26_disgust_hi_lo_1_tab20b_decend_lgsm_bar.png",NA,NA
NA,"<div style=""width:500px;"">
                            <p style=""font-size:50px; font-weight:bold;""
                            >Disgust</p>
                            <div style=""width:480px; margin: auto;"">
                                <img src=""images/26_disgust_hi_md_1_tab20b_decend_smlg_bar.png"" width=""480"" height=""420"" style=""object-fit:contain;"">
                            </div>
                        </div>","-191","html-slider-response",71,308196,"0.0-65.0","ugagcq8m6c",25,"","","","","","",0,"",NA,"","Disgust","images/26_disgust_hi_md_1_tab20b_decend_smlg_bar.png",NA,NA
NA,"<div style=""width:500px;"">
                            <p style=""font-size:50px; font-weight:bold;""
                            >Disgust</p>
                            <div style=""width:480px; margin: auto;"">
                                <img src=""images/26_disgust_hi_lo_3_Paired_decend_smlg_bar.png"" width=""480"" height=""420"" style=""object-fit:contain;"">
                            </div>
                        </div>","-191","html-slider-response",72,310710,"0.0-66.0","ugagcq8m6c",25,"","","","","","",0,"",NA,"","Disgust","images/26_disgust_hi_lo_3_Paired_decend_smlg_bar.png",NA,NA
NA,"<div style=""width:500px;"">
                            <p style=""font-size:50px; font-weight:bold;""
                            >Disgust</p>
                            <div style=""width:480px; margin: auto;"">
                                <img src=""images/26_disgust_lo_lo_1_tab20c_ascend_smlg_bar.png"" width=""480"" height=""420"" style=""object-fit:contain;"">
                            </div>
                        </div>","-191","html-slider-response",73,312646,"0.0-67.0","ugagcq8m6c",25,"","","","","","",0,"",NA,"","Disgust","images/26_disgust_lo_lo_1_tab20c_ascend_smlg_bar.png",NA,NA
NA,"<div style=""width:500px;"">
                            <p style=""font-size:50px; font-weight:bold;""
                            >Disgust</p>
                            <div style=""width:480px; margin: auto;"">
                                <img src=""images/26_disgust_med_lo_1_tab20c_decend_smlg_bar.png"" width=""480"" height=""420"" style=""object-fit:contain;"">
                            </div>
                        </div>","-191","html-slider-response",74,317084,"0.0-68.0","ugagcq8m6c",25,"","","","","","",0,"",NA,"","Disgust","images/26_disgust_med_lo_1_tab20c_decend_smlg_bar.png",NA,NA
NA,"<div style=""width:500px;"">
                            <p style=""font-size:50px; font-weight:bold;""
                            >Disgust</p>
                            <div style=""width:480px; margin: auto;"">
                                <img src=""images/26_disgust_hi_hi_2_tab20_ascend_smlg_bar.png"" width=""480"" height=""420"" style=""object-fit:contain;"">
                            </div>
                        </div>","-191","html-slider-response",75,318161,"0.0-69.0","ugagcq8m6c",25,"","","","","","",0,"",NA,"","Disgust","images/26_disgust_hi_hi_2_tab20_ascend_smlg_bar.png",NA,NA
NA,"<div style=""width:500px;"">
                            <p style=""font-size:50px; font-weight:bold;""
                            >Disgust</p>
                            <div style=""width:480px; margin: auto;"">
                                <img src=""images/26_disgust_med_med_2_tab20_decend_smlg_bar.png"" width=""480"" height=""420"" style=""object-fit:contain;"">
                            </div>
                        </div>","-191","html-slider-response",76,319135,"0.0-70.0","ugagcq8m6c",25,"","","","","","",0,"",NA,"","Disgust","images/26_disgust_med_med_2_tab20_decend_smlg_bar.png",NA,NA
NA,"<div style=""width:500px;"">
                            <p style=""font-size:50px; font-weight:bold;""
                            >Disgust</p>
                            <div style=""width:480px; margin: auto;"">
                                <img src=""images/26_disgust_hi_hi_3_Dark2_ascend_lgsm_bar.png"" width=""480"" height=""420"" style=""object-fit:contain;"">
                            </div>
                        </div>","-191","html-slider-response",77,321979,"0.0-71.0","ugagcq8m6c",25,"","","","","","",0,"",NA,"","Disgust","images/26_disgust_hi_hi_3_Dark2_ascend_lgsm_bar.png",NA,NA
NA,"<div style=""width:500px;"">
                            <p style=""font-size:50px; font-weight:bold;""
                            >Disgust</p>
                            <div style=""width:480px; margin: auto;"">
                                <img src=""images/26_disgust_lo_lo_1_tab20c_decend_lgsm_bar.png"" width=""480"" height=""420"" style=""object-fit:contain;"">
                            </div>
                        </div>","-191","html-slider-response",78,324854,"0.0-72.0","ugagcq8m6c",25,"","","","","","",0,"",NA,"","Disgust","images/26_disgust_lo_lo_1_tab20c_decend_lgsm_bar.png",NA,NA
NA,"<div style=""width:500px;"">
                            <p style=""font-size:50px; font-weight:bold;""
                            >Disgust</p>
                            <div style=""width:480px; margin: auto;"">
                                <img src=""images/26_disgust_hi_md_3_tab20_decend_smlg_bar.png"" width=""480"" height=""420"" style=""object-fit:contain;"">
                            </div>
                        </div>","-191","html-slider-response",79,328712,"0.0-73.0","ugagcq8m6c",25,"","","","","","",0,"",NA,"","Disgust","images/26_disgust_hi_md_3_tab20_decend_smlg_bar.png",NA,NA
NA,"<div style=""width:500px;"">
                            <p style=""font-size:50px; font-weight:bold;""
                            >Disgust</p>
                            <div style=""width:480px; margin: auto;"">
                                <img src=""images/26_disgust_med_med_3_Paired_ascend_smlg_bar.png"" width=""480"" height=""420"" style=""object-fit:contain;"">
                            </div>
                        </div>","-191","html-slider-response",80,331355,"0.0-74.0","ugagcq8m6c",25,"","","","","","",0,"",NA,"","Disgust","images/26_disgust_med_med_3_Paired_ascend_smlg_bar.png",NA,NA
NA,"<div style=""width:500px;"">
                            <p style=""font-size:50px; font-weight:bold;""
                            >Disgust</p>
                            <div style=""width:480px; margin: auto;"">
                                <img src=""images/26_disgust_hi_md_3_tab20_ascend_lgsm_bar.png"" width=""480"" height=""420"" style=""object-fit:contain;"">
                            </div>
                        </div>","-191","html-slider-response",81,334342,"0.0-75.0","ugagcq8m6c",25,"","","","","","",0,"",NA,"","Disgust","images/26_disgust_hi_md_3_tab20_ascend_lgsm_bar.png",NA,NA
NA,"<div style=""width:500px;"">
                            <p style=""font-size:50px; font-weight:bold;""
                            >Disgust</p>
                            <div style=""width:480px; margin: auto;"">
                                <img src=""images/26_disgust_med_lo_2_tab20_decend_smlg_bar.png"" width=""480"" height=""420"" style=""object-fit:contain;"">
                            </div>
                        </div>","-191","html-slider-response",82,338659,"0.0-76.0","ugagcq8m6c",25,"","","","","","",0,"",NA,"","Disgust","images/26_disgust_med_lo_2_tab20_decend_smlg_bar.png",NA,NA
NA,"<div style=""width:500px;"">
                            <p style=""font-size:50px; font-weight:bold;""
                            >Disgust</p>
                            <div style=""width:480px; margin: auto;"">
                                <img src=""images/26_disgust_med_lo_1_tab20c_ascend_smlg_bar.png"" width=""480"" height=""420"" style=""object-fit:contain;"">
                            </div>
                        </div>","-191","html-slider-response",83,347285,"0.0-77.0","ugagcq8m6c",25,"","","","","","",0,"",NA,"","Disgust","images/26_disgust_med_lo_1_tab20c_ascend_smlg_bar.png",NA,NA
NA,"<div style=""width:500px;"">
                            <p style=""font-size:50px; font-weight:bold;""
                            >Disgust</p>
                            <div style=""width:480px; margin: auto;"">
                                <img src=""images/26_disgust_hi_hi_1_tab20b_ascend_smlg_bar.png"" width=""480"" height=""420"" style=""object-fit:contain;"">
                            </div>
                        </div>","-194","html-slider-response",84,361691,"0.0-78.0","ugagcq8m6c",25,"","","","","","",0,"",NA,"","Disgust","images/26_disgust_hi_hi_1_tab20b_ascend_smlg_bar.png",NA,NA
NA,"<div style=""width:500px;"">
                            <p style=""font-size:50px; font-weight:bold;""
                            >Disgust</p>
                            <div style=""width:480px; margin: auto;"">
                                <img src=""images/26_disgust_lo_lo_3_tab20_decend_smlg_bar.png"" width=""480"" height=""420"" style=""object-fit:contain;"">
                            </div>
                        </div>","-194","html-slider-response",85,365894,"0.0-79.0","ugagcq8m6c",25,"","","","","","",0,"",NA,"","Disgust","images/26_disgust_lo_lo_3_tab20_decend_smlg_bar.png",NA,NA
NA,"<div style=""width:500px;"">
                            <p style=""font-size:50px; font-weight:bold;""
                            >Disgust</p>
                            <div style=""width:480px; margin: auto;"">
                                <img src=""images/26_disgust_hi_lo_1_tab20b_ascend_smlg_bar.png"" width=""480"" height=""420"" style=""object-fit:contain;"">
                            </div>
                        </div>","-194","html-slider-response",86,369196,"0.0-80.0","ugagcq8m6c",25,"","","","","","",0,"",NA,"","Disgust","images/26_disgust_hi_lo_1_tab20b_ascend_smlg_bar.png",NA,NA
NA,"<div style=""width:500px;"">
                            <p style=""font-size:50px; font-weight:bold;""
                            >Disgust</p>
                            <div style=""width:480px; margin: auto;"">
                                <img src=""images/26_disgust_hi_hi_3_Dark2_ascend_smlg_bar.png"" width=""480"" height=""420"" style=""object-fit:contain;"">
                            </div>
                        </div>","-194","html-slider-response",87,370800,"0.0-81.0","ugagcq8m6c",25,"","","","","","",0,"",NA,"","Disgust","images/26_disgust_hi_hi_3_Dark2_ascend_smlg_bar.png",NA,NA
NA,"<div style=""width:500px;"">
                            <p style=""font-size:50px; font-weight:bold;""
                            >Disgust</p>
                            <div style=""width:480px; margin: auto;"">
                                <img src=""images/26_disgust_med_med_2_tab20_decend_lgsm_bar.png"" width=""480"" height=""420"" style=""object-fit:contain;"">
                            </div>
                        </div>","-194","html-slider-response",88,373282,"0.0-82.0","ugagcq8m6c",25,"","","","","","",0,"",NA,"","Disgust","images/26_disgust_med_med_2_tab20_decend_lgsm_bar.png",NA,NA
NA,"<div style=""width:500px;"">
                            <p style=""font-size:50px; font-weight:bold;""
                            >Disgust</p>
                            <div style=""width:480px; margin: auto;"">
                                <img src=""images/26_disgust_lo_lo_3_tab20_ascend_lgsm_bar.png"" width=""480"" height=""420"" style=""object-fit:contain;"">
                            </div>
                        </div>","-194","html-slider-response",89,375525,"0.0-83.0","ugagcq8m6c",25,"","","","","","",0,"",NA,"","Disgust","images/26_disgust_lo_lo_3_tab20_ascend_lgsm_bar.png",NA,NA
NA,"<div style=""width:500px;"">
                            <p style=""font-size:50px; font-weight:bold;""
                            >Disgust</p>
                            <div style=""width:480px; margin: auto;"">
                                <img src=""images/26_disgust_med_lo_3_Pastel2_ascend_smlg_bar.png"" width=""480"" height=""420"" style=""object-fit:contain;"">
                            </div>
                        </div>","-194","html-slider-response",90,381145,"0.0-84.0","ugagcq8m6c",25,"","","","","","",0,"",NA,"","Disgust","images/26_disgust_med_lo_3_Pastel2_ascend_smlg_bar.png",NA,NA
NA,"<div style=""width:500px;"">
                            <p style=""font-size:50px; font-weight:bold;""
                            >Disgust</p>
                            <div style=""width:480px; margin: auto;"">
                                <img src=""images/26_disgust_med_lo_2_tab20_decend_lgsm_bar.png"" width=""480"" height=""420"" style=""object-fit:contain;"">
                            </div>
                        </div>","-194","html-slider-response",91,386890,"0.0-85.0","ugagcq8m6c",25,"","","","","","",0,"",NA,"","Disgust","images/26_disgust_med_lo_2_tab20_decend_lgsm_bar.png",NA,NA
7231,"<p>Great Job! You've finished block 1.<br></br> You have 4 block(s) left to go.<br></br></p>","0","html-button-response",92,394631,"0.0-86.0","ugagcq8m6c",25,"","","","","","",NA,"",NA,"","","",NA,NA
1011,"<p>In this block of trials, you will be asked to rate how much you associate each texture with the concept</p >
                        <p style = 'font-size:150%; font-weight: bold'>Fearful</p><br></br>","0","html-button-response",93,395644,"0.0-87.0","ugagcq8m6c",25,"","","","","","",NA,"",NA,"","","",NA,NA
NA,"<div style=""width:500px;"">
                            <p style=""font-size:50px; font-weight:bold;""
                            >Fearful</p>
                            <div style=""width:480px; margin: auto;"">
                                <img src=""images/26_fearful_hi_hi_2_tab20_ascend_smlg_bar.png"" width=""480"" height=""420"" style=""object-fit:contain;"">
                            </div>
                        </div>","-192","html-slider-response",94,398020,"0.0-88.0","ugagcq8m6c",25,"","","","","","",0,"",NA,"","Fearful","images/26_fearful_hi_hi_2_tab20_ascend_smlg_bar.png",NA,NA
NA,"<div style=""width:500px;"">
                            <p style=""font-size:50px; font-weight:bold;""
                            >Fearful</p>
                            <div style=""width:480px; margin: auto;"">
                                <img src=""images/26_fearful_lo_lo_3_tab20c_ascend_lgsm_bar.png"" width=""480"" height=""420"" style=""object-fit:contain;"">
                            </div>
                        </div>","-196","html-slider-response",95,413988,"0.0-89.0","ugagcq8m6c",25,"","","","","","",0,"",NA,"","Fearful","images/26_fearful_lo_lo_3_tab20c_ascend_lgsm_bar.png",NA,NA
NA,"<div style=""width:500px;"">
                            <p style=""font-size:50px; font-weight:bold;""
                            >Fearful</p>
                            <div style=""width:480px; margin: auto;"">
                                <img src=""images/26_fearful_hi_lo_2_tab20b_ascend_lgsm_bar.png"" width=""480"" height=""420"" style=""object-fit:contain;"">
                            </div>
                        </div>","-194","html-slider-response",96,417729,"0.0-90.0","ugagcq8m6c",25,"","","","","","",0,"",NA,"","Fearful","images/26_fearful_hi_lo_2_tab20b_ascend_lgsm_bar.png",NA,NA
NA,"<div style=""width:500px;"">
                            <p style=""font-size:50px; font-weight:bold;""
                            >Fearful</p>
                            <div style=""width:480px; margin: auto;"">
                                <img src=""images/26_fearful_hi_lo_1_tab20_ascend_smlg_bar.png"" width=""480"" height=""420"" style=""object-fit:contain;"">
                            </div>
                        </div>","-194","html-slider-response",97,418955,"0.0-91.0","ugagcq8m6c",25,"","","","","","",0,"",NA,"","Fearful","images/26_fearful_hi_lo_1_tab20_ascend_smlg_bar.png",NA,NA
NA,"<div style=""width:500px;"">
                            <p style=""font-size:50px; font-weight:bold;""
                            >Fearful</p>
                            <div style=""width:480px; margin: auto;"">
                                <img src=""images/26_fearful_med_lo_1_Pastel1_ascend_lgsm_bar.png"" width=""480"" height=""420"" style=""object-fit:contain;"">
                            </div>
                        </div>","-194","html-slider-response",98,421083,"0.0-92.0","ugagcq8m6c",25,"","","","","","",0,"",NA,"","Fearful","images/26_fearful_med_lo_1_Pastel1_ascend_lgsm_bar.png",NA,NA
NA,"<div style=""width:500px;"">
                            <p style=""font-size:50px; font-weight:bold;""
                            >Fearful</p>
                            <div style=""width:480px; margin: auto;"">
                                <img src=""images/26_fearful_hi_md_1_tab20b_ascend_lgsm_bar.png"" width=""480"" height=""420"" style=""object-fit:contain;"">
                            </div>
                        </div>","-194","html-slider-response",99,422511,"0.0-93.0","ugagcq8m6c",25,"","","","","","",0,"",NA,"","Fearful","images/26_fearful_hi_md_1_tab20b_ascend_lgsm_bar.png",NA,NA
NA,"<div style=""width:500px;"">
                            <p style=""font-size:50px; font-weight:bold;""
                            >Fearful</p>
                            <div style=""width:480px; margin: auto;"">
                                <img src=""images/26_fearful_hi_lo_1_tab20_decend_lgsm_bar.png"" width=""480"" height=""420"" style=""object-fit:contain;"">
                            </div>
                        </div>","-194","html-slider-response",100,424428,"0.0-94.0","ugagcq8m6c",25,"","","","","","",0,"",NA,"","Fearful","images/26_fearful_hi_lo_1_tab20_decend_lgsm_bar.png",NA,NA
NA,"<div style=""width:500px;"">
                            <p style=""font-size:50px; font-weight:bold;""
                            >Fearful</p>
                            <div style=""width:480px; margin: auto;"">
                                <img src=""images/26_fearful_hi_hi_3_tab10new_ascend_smlg_bar.png"" width=""480"" height=""420"" style=""object-fit:contain;"">
                            </div>
                        </div>","-193","html-slider-response",101,436742,"0.0-95.0","ugagcq8m6c",25,"","","","","","",0,"",NA,"","Fearful","images/26_fearful_hi_hi_3_tab10new_ascend_smlg_bar.png",NA,NA
NA,"<div style=""width:500px;"">
                            <p style=""font-size:50px; font-weight:bold;""
                            >Fearful</p>
                            <div style=""width:480px; margin: auto;"">
                                <img src=""images/26_fearful_hi_lo_3_Accent_ascend_lgsm_bar.png"" width=""480"" height=""420"" style=""object-fit:contain;"">
                            </div>
                        </div>","-193","html-slider-response",102,438238,"0.0-96.0","ugagcq8m6c",25,"","","","","","",0,"",NA,"","Fearful","images/26_fearful_hi_lo_3_Accent_ascend_lgsm_bar.png",NA,NA
NA,"<div style=""width:500px;"">
                            <p style=""font-size:50px; font-weight:bold;""
                            >Fearful</p>
                            <div style=""width:480px; margin: auto;"">
                                <img src=""images/26_fearful_lo_lo_2_Set3_ascend_lgsm_bar.png"" width=""480"" height=""420"" style=""object-fit:contain;"">
                            </div>
                        </div>","-193","html-slider-response",103,441176,"0.0-97.0","ugagcq8m6c",25,"","","","","","",0,"",NA,"","Fearful","images/26_fearful_lo_lo_2_Set3_ascend_lgsm_bar.png",NA,NA
NA,"<div style=""width:500px;"">
                            <p style=""font-size:50px; font-weight:bold;""
                            >Fearful</p>
                            <div style=""width:480px; margin: auto;"">
                                <img src=""images/26_fearful_hi_hi_2_tab20_ascend_lgsm_bar.png"" width=""480"" height=""420"" style=""object-fit:contain;"">
                            </div>
                        </div>","-193","html-slider-response",104,445723,"0.0-98.0","ugagcq8m6c",25,"","","","","","",0,"",NA,"","Fearful","images/26_fearful_hi_hi_2_tab20_ascend_lgsm_bar.png",NA,NA
NA,"<div style=""width:500px;"">
                            <p style=""font-size:50px; font-weight:bold;""
                            >Fearful</p>
                            <div style=""width:480px; margin: auto;"">
                                <img src=""images/26_fearful_hi_lo_2_tab20b_ascend_smlg_bar.png"" width=""480"" height=""420"" style=""object-fit:contain;"">
                            </div>
                        </div>","-193","html-slider-response",105,449904,"0.0-99.0","ugagcq8m6c",25,"","","","","","",0,"",NA,"","Fearful","images/26_fearful_hi_lo_2_tab20b_ascend_smlg_bar.png",NA,NA
NA,"<div style=""width:500px;"">
                            <p style=""font-size:50px; font-weight:bold;""
                            >Fearful</p>
                            <div style=""width:480px; margin: auto;"">
                                <img src=""images/26_fearful_med_med_3_tab20b_decend_smlg_bar.png"" width=""480"" height=""420"" style=""object-fit:contain;"">
                            </div>
                        </div>","-193","html-slider-response",106,452775,"0.0-100.0","ugagcq8m6c",25,"","","","","","",0,"",NA,"","Fearful","images/26_fearful_med_med_3_tab20b_decend_smlg_bar.png",NA,NA
NA,"<div style=""width:500px;"">
                            <p style=""font-size:50px; font-weight:bold;""
                            >Fearful</p>
                            <div style=""width:480px; margin: auto;"">
                                <img src=""images/26_fearful_med_lo_2_Set3_decend_lgsm_bar.png"" width=""480"" height=""420"" style=""object-fit:contain;"">
                            </div>
                        </div>","-193","html-slider-response",107,454195,"0.0-101.0","ugagcq8m6c",25,"","","","","","",0,"",NA,"","Fearful","images/26_fearful_med_lo_2_Set3_decend_lgsm_bar.png",NA,NA
NA,"<div style=""width:500px;"">
                            <p style=""font-size:50px; font-weight:bold;""
                            >Fearful</p>
                            <div style=""width:480px; margin: auto;"">
                                <img src=""images/26_fearful_med_med_1_tab20c_decend_smlg_bar.png"" width=""480"" height=""420"" style=""object-fit:contain;"">
                            </div>
                        </div>","-193","html-slider-response",108,455403,"0.0-102.0","ugagcq8m6c",25,"","","","","","",0,"",NA,"","Fearful","images/26_fearful_med_med_1_tab20c_decend_smlg_bar.png",NA,NA
NA,"<div style=""width:500px;"">
                            <p style=""font-size:50px; font-weight:bold;""
                            >Fearful</p>
                            <div style=""width:480px; margin: auto;"">
                                <img src=""images/26_fearful_med_lo_1_Pastel1_decend_lgsm_bar.png"" width=""480"" height=""420"" style=""object-fit:contain;"">
                            </div>
                        </div>","-193","html-slider-response",109,457742,"0.0-103.0","ugagcq8m6c",25,"","","","","","",0,"",NA,"","Fearful","images/26_fearful_med_lo_1_Pastel1_decend_lgsm_bar.png",NA,NA
NA,"<div style=""width:500px;"">
                            <p style=""font-size:50px; font-weight:bold;""
                            >Fearful</p>
                            <div style=""width:480px; margin: auto;"">
                                <img src=""images/26_fearful_hi_hi_1_tab20b_decend_smlg_bar.png"" width=""480"" height=""420"" style=""object-fit:contain;"">
                            </div>
                        </div>","-177","html-slider-response",110,461088,"0.0-104.0","ugagcq8m6c",25,"","","","","","",0,"",NA,"","Fearful","images/26_fearful_hi_hi_1_tab20b_decend_smlg_bar.png",NA,NA
NA,"<div style=""width:500px;"">
                            <p style=""font-size:50px; font-weight:bold;""
                            >Fearful</p>
                            <div style=""width:480px; margin: auto;"">
                                <img src=""images/26_fearful_med_med_3_tab20b_decend_lgsm_bar.png"" width=""480"" height=""420"" style=""object-fit:contain;"">
                            </div>
                        </div>","-177","html-slider-response",111,462178,"0.0-105.0","ugagcq8m6c",25,"","","","","","",0,"",NA,"","Fearful","images/26_fearful_med_med_3_tab20b_decend_lgsm_bar.png",NA,NA
NA,"<div style=""width:500px;"">
                            <p style=""font-size:50px; font-weight:bold;""
                            >Fearful</p>
                            <div style=""width:480px; margin: auto;"">
                                <img src=""images/26_fearful_hi_lo_2_tab20b_decend_smlg_bar.png"" width=""480"" height=""420"" style=""object-fit:contain;"">
                            </div>
                        </div>","-177","html-slider-response",112,472855,"0.0-106.0","ugagcq8m6c",25,"","","","","","",0,"",NA,"","Fearful","images/26_fearful_hi_lo_2_tab20b_decend_smlg_bar.png",NA,NA
NA,"<div style=""width:500px;"">
                            <p style=""font-size:50px; font-weight:bold;""
                            >Fearful</p>
                            <div style=""width:480px; margin: auto;"">
                                <img src=""images/26_fearful_med_med_1_tab20c_decend_lgsm_bar.png"" width=""480"" height=""420"" style=""object-fit:contain;"">
                            </div>
                        </div>","-177","html-slider-response",113,475576,"0.0-107.0","ugagcq8m6c",25,"","","","","","",0,"",NA,"","Fearful","images/26_fearful_med_med_1_tab20c_decend_lgsm_bar.png",NA,NA
NA,"<div style=""width:500px;"">
                            <p style=""font-size:50px; font-weight:bold;""
                            >Fearful</p>
                            <div style=""width:480px; margin: auto;"">
                                <img src=""images/26_fearful_hi_hi_1_tab20b_ascend_lgsm_bar.png"" width=""480"" height=""420"" style=""object-fit:contain;"">
                            </div>
                        </div>","-177","html-slider-response",114,476978,"0.0-108.0","ugagcq8m6c",25,"","","","","","",0,"",NA,"","Fearful","images/26_fearful_hi_hi_1_tab20b_ascend_lgsm_bar.png",NA,NA
NA,"<div style=""width:500px;"">
                            <p style=""font-size:50px; font-weight:bold;""
                            >Fearful</p>
                            <div style=""width:480px; margin: auto;"">
                                <img src=""images/26_fearful_hi_hi_2_tab20_decend_smlg_bar.png"" width=""480"" height=""420"" style=""object-fit:contain;"">
                            </div>
                        </div>","-177","html-slider-response",115,478555,"0.0-109.0","ugagcq8m6c",25,"","","","","","",0,"",NA,"","Fearful","images/26_fearful_hi_hi_2_tab20_decend_smlg_bar.png",NA,NA
NA,"<div style=""width:500px;"">
                            <p style=""font-size:50px; font-weight:bold;""
                            >Fearful</p>
                            <div style=""width:480px; margin: auto;"">
                                <img src=""images/26_fearful_med_med_2_tab20_ascend_lgsm_bar.png"" width=""480"" height=""420"" style=""object-fit:contain;"">
                            </div>
                        </div>","-177","html-slider-response",116,479561,"0.0-110.0","ugagcq8m6c",25,"","","","","","",0,"",NA,"","Fearful","images/26_fearful_med_med_2_tab20_ascend_lgsm_bar.png",NA,NA
NA,"<div style=""width:500px;"">
                            <p style=""font-size:50px; font-weight:bold;""
                            >Fearful</p>
                            <div style=""width:480px; margin: auto;"">
                                <img src=""images/26_fearful_hi_md_1_tab20b_ascend_smlg_bar.png"" width=""480"" height=""420"" style=""object-fit:contain;"">
                            </div>
                        </div>","-177","html-slider-response",117,482406,"0.0-111.0","ugagcq8m6c",25,"","","","","","",0,"",NA,"","Fearful","images/26_fearful_hi_md_1_tab20b_ascend_smlg_bar.png",NA,NA
NA,"<div style=""width:500px;"">
                            <p style=""font-size:50px; font-weight:bold;""
                            >Fearful</p>
                            <div style=""width:480px; margin: auto;"">
                                <img src=""images/26_fearful_hi_lo_3_Accent_decend_smlg_bar.png"" width=""480"" height=""420"" style=""object-fit:contain;"">
                            </div>
                        </div>","-177","html-slider-response",118,483706,"0.0-112.0","ugagcq8m6c",25,"","","","","","",0,"",NA,"","Fearful","images/26_fearful_hi_lo_3_Accent_decend_smlg_bar.png",NA,NA
NA,"<div style=""width:500px;"">
                            <p style=""font-size:50px; font-weight:bold;""
                            >Fearful</p>
                            <div style=""width:480px; margin: auto;"">
                                <img src=""images/26_fearful_med_lo_2_Set3_ascend_lgsm_bar.png"" width=""480"" height=""420"" style=""object-fit:contain;"">
                            </div>
                        </div>","-177","html-slider-response",119,487124,"0.0-113.0","ugagcq8m6c",25,"","","","","","",0,"",NA,"","Fearful","images/26_fearful_med_lo_2_Set3_ascend_lgsm_bar.png",NA,NA
NA,"<div style=""width:500px;"">
                            <p style=""font-size:50px; font-weight:bold;""
                            >Fearful</p>
                            <div style=""width:480px; margin: auto;"">
                                <img src=""images/26_fearful_med_med_1_tab20c_ascend_lgsm_bar.png"" width=""480"" height=""420"" style=""object-fit:contain;"">
                            </div>
                        </div>","-177","html-slider-response",120,489685,"0.0-114.0","ugagcq8m6c",25,"","","","","","",0,"",NA,"","Fearful","images/26_fearful_med_med_1_tab20c_ascend_lgsm_bar.png",NA,NA
NA,"<div style=""width:500px;"">
                            <p style=""font-size:50px; font-weight:bold;""
                            >Fearful</p>
                            <div style=""width:480px; margin: auto;"">
                                <img src=""images/26_fearful_hi_hi_3_tab10new_ascend_lgsm_bar.png"" width=""480"" height=""420"" style=""object-fit:contain;"">
                            </div>
                        </div>","-177","html-slider-response",121,491057,"0.0-115.0","ugagcq8m6c",25,"","","","","","",0,"",NA,"","Fearful","images/26_fearful_hi_hi_3_tab10new_ascend_lgsm_bar.png",NA,NA
NA,"<div style=""width:500px;"">
                            <p style=""font-size:50px; font-weight:bold;""
                            >Fearful</p>
                            <div style=""width:480px; margin: auto;"">
                                <img src=""images/26_fearful_med_lo_3_tab20_ascend_smlg_bar.png"" width=""480"" height=""420"" style=""object-fit:contain;"">
                            </div>
                        </div>","-177","html-slider-response",122,493182,"0.0-116.0","ugagcq8m6c",25,"","","","","","",0,"",NA,"","Fearful","images/26_fearful_med_lo_3_tab20_ascend_smlg_bar.png",NA,NA
NA,"<div style=""width:500px;"">
                            <p style=""font-size:50px; font-weight:bold;""
                            >Fearful</p>
                            <div style=""width:480px; margin: auto;"">
                                <img src=""images/26_fearful_hi_hi_1_tab20b_decend_lgsm_bar.png"" width=""480"" height=""420"" style=""object-fit:contain;"">
                            </div>
                        </div>","-177","html-slider-response",123,496194,"0.0-117.0","ugagcq8m6c",25,"","","","","","",0,"",NA,"","Fearful","images/26_fearful_hi_hi_1_tab20b_decend_lgsm_bar.png",NA,NA
NA,"<div style=""width:500px;"">
                            <p style=""font-size:50px; font-weight:bold;""
                            >Fearful</p>
                            <div style=""width:480px; margin: auto;"">
                                <img src=""images/26_fearful_hi_md_2_tab10new_ascend_smlg_bar.png"" width=""480"" height=""420"" style=""object-fit:contain;"">
                            </div>
                        </div>","-177","html-slider-response",124,499775,"0.0-118.0","ugagcq8m6c",25,"","","","","","",0,"",NA,"","Fearful","images/26_fearful_hi_md_2_tab10new_ascend_smlg_bar.png",NA,NA
NA,"<div style=""width:500px;"">
                            <p style=""font-size:50px; font-weight:bold;""
                            >Fearful</p>
                            <div style=""width:480px; margin: auto;"">
                                <img src=""images/26_fearful_hi_lo_3_Accent_decend_lgsm_bar.png"" width=""480"" height=""420"" style=""object-fit:contain;"">
                            </div>
                        </div>","-177","html-slider-response",125,502325,"0.0-119.0","ugagcq8m6c",25,"","","","","","",0,"",NA,"","Fearful","images/26_fearful_hi_lo_3_Accent_decend_lgsm_bar.png",NA,NA
NA,"<div style=""width:500px;"">
                            <p style=""font-size:50px; font-weight:bold;""
                            >Fearful</p>
                            <div style=""width:480px; margin: auto;"">
                                <img src=""images/26_fearful_med_lo_1_Pastel1_decend_smlg_bar.png"" width=""480"" height=""420"" style=""object-fit:contain;"">
                            </div>
                        </div>","-177","html-slider-response",126,504408,"0.0-120.0","ugagcq8m6c",25,"","","","","","",0,"",NA,"","Fearful","images/26_fearful_med_lo_1_Pastel1_decend_smlg_bar.png",NA,NA
NA,"<div style=""width:500px;"">
                            <p style=""font-size:50px; font-weight:bold;""
                            >Fearful</p>
                            <div style=""width:480px; margin: auto;"">
                                <img src=""images/26_fearful_med_lo_3_tab20_decend_lgsm_bar.png"" width=""480"" height=""420"" style=""object-fit:contain;"">
                            </div>
                        </div>","-177","html-slider-response",127,505710,"0.0-121.0","ugagcq8m6c",25,"","","","","","",0,"",NA,"","Fearful","images/26_fearful_med_lo_3_tab20_decend_lgsm_bar.png",NA,NA
NA,"<div style=""width:500px;"">
                            <p style=""font-size:50px; font-weight:bold;""
                            >Fearful</p>
                            <div style=""width:480px; margin: auto;"">
                                <img src=""images/26_fearful_med_med_2_tab20_decend_smlg_bar.png"" width=""480"" height=""420"" style=""object-fit:contain;"">
                            </div>
                        </div>","-177","html-slider-response",128,516372,"0.0-122.0","ugagcq8m6c",25,"","","","","","",0,"",NA,"","Fearful","images/26_fearful_med_med_2_tab20_decend_smlg_bar.png",NA,NA
NA,"<div style=""width:500px;"">
                            <p style=""font-size:50px; font-weight:bold;""
                            >Fearful</p>
                            <div style=""width:480px; margin: auto;"">
                                <img src=""images/26_fearful_med_lo_2_Set3_decend_smlg_bar.png"" width=""480"" height=""420"" style=""object-fit:contain;"">
                            </div>
                        </div>","-177","html-slider-response",129,524846,"0.0-123.0","ugagcq8m6c",25,"","","","","","",0,"",NA,"","Fearful","images/26_fearful_med_lo_2_Set3_decend_smlg_bar.png",NA,NA
NA,"<div style=""width:500px;"">
                            <p style=""font-size:50px; font-weight:bold;""
                            >Fearful</p>
                            <div style=""width:480px; margin: auto;"">
                                <img src=""images/26_fearful_hi_md_3_tab20_ascend_smlg_bar.png"" width=""480"" height=""420"" style=""object-fit:contain;"">
                            </div>
                        </div>","-177","html-slider-response",130,544219,"0.0-124.0","ugagcq8m6c",25,"","","","","","",0,"",NA,"","Fearful","images/26_fearful_hi_md_3_tab20_ascend_smlg_bar.png",NA,NA
NA,"<div style=""width:500px;"">
                            <p style=""font-size:50px; font-weight:bold;""
                            >Fearful</p>
                            <div style=""width:480px; margin: auto;"">
                                <img src=""images/26_fearful_hi_lo_2_tab20b_decend_lgsm_bar.png"" width=""480"" height=""420"" style=""object-fit:contain;"">
                            </div>
                        </div>","-177","html-slider-response",131,552976,"0.0-125.0","ugagcq8m6c",25,"","","","","","",0,"",NA,"","Fearful","images/26_fearful_hi_lo_2_tab20b_decend_lgsm_bar.png",NA,NA
NA,"<div style=""width:500px;"">
                            <p style=""font-size:50px; font-weight:bold;""
                            >Fearful</p>
                            <div style=""width:480px; margin: auto;"">
                                <img src=""images/26_fearful_hi_lo_1_tab20_ascend_lgsm_bar.png"" width=""480"" height=""420"" style=""object-fit:contain;"">
                            </div>
                        </div>","-177","html-slider-response",132,581022,"0.0-126.0","ugagcq8m6c",25,"","","","","","",0,"",NA,"","Fearful","images/26_fearful_hi_lo_1_tab20_ascend_lgsm_bar.png",NA,NA
NA,"<div style=""width:500px;"">
                            <p style=""font-size:50px; font-weight:bold;""
                            >Fearful</p>
                            <div style=""width:480px; margin: auto;"">
                                <img src=""images/26_fearful_lo_lo_1_Pastel1_decend_smlg_bar.png"" width=""480"" height=""420"" style=""object-fit:contain;"">
                            </div>
                        </div>","-177","html-slider-response",133,595323,"0.0-127.0","ugagcq8m6c",25,"","","","","","",0,"",NA,"","Fearful","images/26_fearful_lo_lo_1_Pastel1_decend_smlg_bar.png",NA,NA
NA,"<div style=""width:500px;"">
                            <p style=""font-size:50px; font-weight:bold;""
                            >Fearful</p>
                            <div style=""width:480px; margin: auto;"">
                                <img src=""images/26_fearful_lo_lo_3_tab20c_decend_smlg_bar.png"" width=""480"" height=""420"" style=""object-fit:contain;"">
                            </div>
                        </div>","-177","html-slider-response",134,596482,"0.0-128.0","ugagcq8m6c",25,"","","","","","",0,"",NA,"","Fearful","images/26_fearful_lo_lo_3_tab20c_decend_smlg_bar.png",NA,NA
NA,"<div style=""width:500px;"">
                            <p style=""font-size:50px; font-weight:bold;""
                            >Fearful</p>
                            <div style=""width:480px; margin: auto;"">
                                <img src=""images/26_fearful_med_med_3_tab20b_ascend_lgsm_bar.png"" width=""480"" height=""420"" style=""object-fit:contain;"">
                            </div>
                        </div>","-177","html-slider-response",135,597576,"0.0-129.0","ugagcq8m6c",25,"","","","","","",0,"",NA,"","Fearful","images/26_fearful_med_med_3_tab20b_ascend_lgsm_bar.png",NA,NA
NA,"<div style=""width:500px;"">
                            <p style=""font-size:50px; font-weight:bold;""
                            >Fearful</p>
                            <div style=""width:480px; margin: auto;"">
                                <img src=""images/26_fearful_lo_lo_1_Pastel1_decend_lgsm_bar.png"" width=""480"" height=""420"" style=""object-fit:contain;"">
                            </div>
                        </div>","-177","html-slider-response",136,599328,"0.0-130.0","ugagcq8m6c",25,"","","","","","",0,"",NA,"","Fearful","images/26_fearful_lo_lo_1_Pastel1_decend_lgsm_bar.png",NA,NA
NA,"<div style=""width:500px;"">
                            <p style=""font-size:50px; font-weight:bold;""
                            >Fearful</p>
                            <div style=""width:480px; margin: auto;"">
                                <img src=""images/26_fearful_hi_md_2_tab10new_decend_smlg_bar.png"" width=""480"" height=""420"" style=""object-fit:contain;"">
                            </div>
                        </div>","-177","html-slider-response",137,600885,"0.0-131.0","ugagcq8m6c",25,"","","","","","",0,"",NA,"","Fearful","images/26_fearful_hi_md_2_tab10new_decend_smlg_bar.png",NA,NA
NA,"<div style=""width:500px;"">
                            <p style=""font-size:50px; font-weight:bold;""
                            >Fearful</p>
                            <div style=""width:480px; margin: auto;"">
                                <img src=""images/26_fearful_med_med_3_tab20b_ascend_smlg_bar.png"" width=""480"" height=""420"" style=""object-fit:contain;"">
                            </div>
                        </div>","-177","html-slider-response",138,605657,"0.0-132.0","ugagcq8m6c",25,"","","","","","",0,"",NA,"","Fearful","images/26_fearful_med_med_3_tab20b_ascend_smlg_bar.png",NA,NA
NA,"<div style=""width:500px;"">
                            <p style=""font-size:50px; font-weight:bold;""
                            >Fearful</p>
                            <div style=""width:480px; margin: auto;"">
                                <img src=""images/26_fearful_med_med_2_tab20_decend_lgsm_bar.png"" width=""480"" height=""420"" style=""object-fit:contain;"">
                            </div>
                        </div>","-177","html-slider-response",139,609649,"0.0-133.0","ugagcq8m6c",25,"","","","","","",0,"",NA,"","Fearful","images/26_fearful_med_med_2_tab20_decend_lgsm_bar.png",NA,NA
NA,"<div style=""width:500px;"">
                            <p style=""font-size:50px; font-weight:bold;""
                            >Fearful</p>
                            <div style=""width:480px; margin: auto;"">
                                <img src=""images/26_fearful_hi_hi_1_tab20b_ascend_smlg_bar.png"" width=""480"" height=""420"" style=""object-fit:contain;"">
                            </div>
                        </div>","-177","html-slider-response",140,612084,"0.0-134.0","ugagcq8m6c",25,"","","","","","",0,"",NA,"","Fearful","images/26_fearful_hi_hi_1_tab20b_ascend_smlg_bar.png",NA,NA
NA,"<div style=""width:500px;"">
                            <p style=""font-size:50px; font-weight:bold;""
                            >Fearful</p>
                            <div style=""width:480px; margin: auto;"">
                                <img src=""images/26_fearful_lo_lo_1_Pastel1_ascend_smlg_bar.png"" width=""480"" height=""420"" style=""object-fit:contain;"">
                            </div>
                        </div>","-177","html-slider-response",141,614435,"0.0-135.0","ugagcq8m6c",25,"","","","","","",0,"",NA,"","Fearful","images/26_fearful_lo_lo_1_Pastel1_ascend_smlg_bar.png",NA,NA
NA,"<div style=""width:500px;"">
                            <p style=""font-size:50px; font-weight:bold;""
                            >Fearful</p>
                            <div style=""width:480px; margin: auto;"">
                                <img src=""images/26_fearful_hi_md_3_tab20_decend_lgsm_bar.png"" width=""480"" height=""420"" style=""object-fit:contain;"">
                            </div>
                        </div>","-177","html-slider-response",142,616123,"0.0-136.0","ugagcq8m6c",25,"","","","","","",0,"",NA,"","Fearful","images/26_fearful_hi_md_3_tab20_decend_lgsm_bar.png",NA,NA
NA,"<div style=""width:500px;"">
                            <p style=""font-size:50px; font-weight:bold;""
                            >Fearful</p>
                            <div style=""width:480px; margin: auto;"">
                                <img src=""images/26_fearful_lo_lo_2_Set3_decend_lgsm_bar.png"" width=""480"" height=""420"" style=""object-fit:contain;"">
                            </div>
                        </div>","-177","html-slider-response",143,617091,"0.0-137.0","ugagcq8m6c",25,"","","","","","",0,"",NA,"","Fearful","images/26_fearful_lo_lo_2_Set3_decend_lgsm_bar.png",NA,NA
NA,"<div style=""width:500px;"">
                            <p style=""font-size:50px; font-weight:bold;""
                            >Fearful</p>
                            <div style=""width:480px; margin: auto;"">
                                <img src=""images/26_fearful_med_lo_3_tab20_decend_smlg_bar.png"" width=""480"" height=""420"" style=""object-fit:contain;"">
                            </div>
                        </div>","-177","html-slider-response",144,621436,"0.0-138.0","ugagcq8m6c",25,"","","","","","",0,"",NA,"","Fearful","images/26_fearful_med_lo_3_tab20_decend_smlg_bar.png",NA,NA
NA,"<div style=""width:500px;"">
                            <p style=""font-size:50px; font-weight:bold;""
                            >Fearful</p>
                            <div style=""width:480px; margin: auto;"">
                                <img src=""images/26_fearful_med_med_1_tab20c_ascend_smlg_bar.png"" width=""480"" height=""420"" style=""object-fit:contain;"">
                            </div>
                        </div>","-177","html-slider-response",145,623987,"0.0-139.0","ugagcq8m6c",25,"","","","","","",0,"",NA,"","Fearful","images/26_fearful_med_med_1_tab20c_ascend_smlg_bar.png",NA,NA
NA,"<div style=""width:500px;"">
                            <p style=""font-size:50px; font-weight:bold;""
                            >Fearful</p>
                            <div style=""width:480px; margin: auto;"">
                                <img src=""images/26_fearful_lo_lo_3_tab20c_decend_lgsm_bar.png"" width=""480"" height=""420"" style=""object-fit:contain;"">
                            </div>
                        </div>","-177","html-slider-response",146,625117,"0.0-140.0","ugagcq8m6c",25,"","","","","","",0,"",NA,"","Fearful","images/26_fearful_lo_lo_3_tab20c_decend_lgsm_bar.png",NA,NA
NA,"<div style=""width:500px;"">
                            <p style=""font-size:50px; font-weight:bold;""
                            >Fearful</p>
                            <div style=""width:480px; margin: auto;"">
                                <img src=""images/26_fearful_hi_md_1_tab20b_decend_lgsm_bar.png"" width=""480"" height=""420"" style=""object-fit:contain;"">
                            </div>
                        </div>","-177","html-slider-response",147,627007,"0.0-141.0","ugagcq8m6c",25,"","","","","","",0,"",NA,"","Fearful","images/26_fearful_hi_md_1_tab20b_decend_lgsm_bar.png",NA,NA
NA,"<div style=""width:500px;"">
                            <p style=""font-size:50px; font-weight:bold;""
                            >Fearful</p>
                            <div style=""width:480px; margin: auto;"">
                                <img src=""images/26_fearful_hi_md_3_tab20_decend_smlg_bar.png"" width=""480"" height=""420"" style=""object-fit:contain;"">
                            </div>
                        </div>","-176","html-slider-response",148,637969,"0.0-142.0","ugagcq8m6c",25,"","","","","","",0,"",NA,"","Fearful","images/26_fearful_hi_md_3_tab20_decend_smlg_bar.png",NA,NA
NA,"<div style=""width:500px;"">
                            <p style=""font-size:50px; font-weight:bold;""
                            >Fearful</p>
                            <div style=""width:480px; margin: auto;"">
                                <img src=""images/26_fearful_hi_hi_3_tab10new_decend_lgsm_bar.png"" width=""480"" height=""420"" style=""object-fit:contain;"">
                            </div>
                        </div>","-176","html-slider-response",149,640560,"0.0-143.0","ugagcq8m6c",25,"","","","","","",0,"",NA,"","Fearful","images/26_fearful_hi_hi_3_tab10new_decend_lgsm_bar.png",NA,NA
NA,"<div style=""width:500px;"">
                            <p style=""font-size:50px; font-weight:bold;""
                            >Fearful</p>
                            <div style=""width:480px; margin: auto;"">
                                <img src=""images/26_fearful_lo_lo_1_Pastel1_ascend_lgsm_bar.png"" width=""480"" height=""420"" style=""object-fit:contain;"">
                            </div>
                        </div>","-176","html-slider-response",150,645067,"0.0-144.0","ugagcq8m6c",25,"","","","","","",0,"",NA,"","Fearful","images/26_fearful_lo_lo_1_Pastel1_ascend_lgsm_bar.png",NA,NA
NA,"<div style=""width:500px;"">
                            <p style=""font-size:50px; font-weight:bold;""
                            >Fearful</p>
                            <div style=""width:480px; margin: auto;"">
                                <img src=""images/26_fearful_hi_hi_3_tab10new_decend_smlg_bar.png"" width=""480"" height=""420"" style=""object-fit:contain;"">
                            </div>
                        </div>","-176","html-slider-response",151,646421,"0.0-145.0","ugagcq8m6c",25,"","","","","","",0,"",NA,"","Fearful","images/26_fearful_hi_hi_3_tab10new_decend_smlg_bar.png",NA,NA
NA,"<div style=""width:500px;"">
                            <p style=""font-size:50px; font-weight:bold;""
                            >Fearful</p>
                            <div style=""width:480px; margin: auto;"">
                                <img src=""images/26_fearful_hi_md_1_tab20b_decend_smlg_bar.png"" width=""480"" height=""420"" style=""object-fit:contain;"">
                            </div>
                        </div>","-176","html-slider-response",152,650753,"0.0-146.0","ugagcq8m6c",25,"","","","","","",0,"",NA,"","Fearful","images/26_fearful_hi_md_1_tab20b_decend_smlg_bar.png",NA,NA
NA,"<div style=""width:500px;"">
                            <p style=""font-size:50px; font-weight:bold;""
                            >Fearful</p>
                            <div style=""width:480px; margin: auto;"">
                                <img src=""images/26_fearful_med_lo_1_Pastel1_ascend_smlg_bar.png"" width=""480"" height=""420"" style=""object-fit:contain;"">
                            </div>
                        </div>","-176","html-slider-response",153,653518,"0.0-147.0","ugagcq8m6c",25,"","","","","","",0,"",NA,"","Fearful","images/26_fearful_med_lo_1_Pastel1_ascend_smlg_bar.png",NA,NA
NA,"<div style=""width:500px;"">
                            <p style=""font-size:50px; font-weight:bold;""
                            >Fearful</p>
                            <div style=""width:480px; margin: auto;"">
                                <img src=""images/26_fearful_hi_md_2_tab10new_decend_lgsm_bar.png"" width=""480"" height=""420"" style=""object-fit:contain;"">
                            </div>
                        </div>","-176","html-slider-response",154,654737,"0.0-148.0","ugagcq8m6c",25,"","","","","","",0,"",NA,"","Fearful","images/26_fearful_hi_md_2_tab10new_decend_lgsm_bar.png",NA,NA
NA,"<div style=""width:500px;"">
                            <p style=""font-size:50px; font-weight:bold;""
                            >Fearful</p>
                            <div style=""width:480px; margin: auto;"">
                                <img src=""images/26_fearful_hi_hi_2_tab20_decend_lgsm_bar.png"" width=""480"" height=""420"" style=""object-fit:contain;"">
                            </div>
                        </div>","-193","html-slider-response",155,668545,"0.0-149.0","ugagcq8m6c",25,"","","","","","",0,"",NA,"","Fearful","images/26_fearful_hi_hi_2_tab20_decend_lgsm_bar.png",NA,NA
NA,"<div style=""width:500px;"">
                            <p style=""font-size:50px; font-weight:bold;""
                            >Fearful</p>
                            <div style=""width:480px; margin: auto;"">
                                <img src=""images/26_fearful_med_med_2_tab20_ascend_smlg_bar.png"" width=""480"" height=""420"" style=""object-fit:contain;"">
                            </div>
                        </div>","-193","html-slider-response",156,671694,"0.0-150.0","ugagcq8m6c",25,"","","","","","",0,"",NA,"","Fearful","images/26_fearful_med_med_2_tab20_ascend_smlg_bar.png",NA,NA
NA,"<div style=""width:500px;"">
                            <p style=""font-size:50px; font-weight:bold;""
                            >Fearful</p>
                            <div style=""width:480px; margin: auto;"">
                                <img src=""images/26_fearful_lo_lo_3_tab20c_ascend_smlg_bar.png"" width=""480"" height=""420"" style=""object-fit:contain;"">
                            </div>
                        </div>","-193","html-slider-response",157,673037,"0.0-151.0","ugagcq8m6c",25,"","","","","","",0,"",NA,"","Fearful","images/26_fearful_lo_lo_3_tab20c_ascend_smlg_bar.png",NA,NA
NA,"<div style=""width:500px;"">
                            <p style=""font-size:50px; font-weight:bold;""
                            >Fearful</p>
                            <div style=""width:480px; margin: auto;"">
                                <img src=""images/26_fearful_hi_lo_3_Accent_ascend_smlg_bar.png"" width=""480"" height=""420"" style=""object-fit:contain;"">
                            </div>
                        </div>","-193","html-slider-response",158,675425,"0.0-152.0","ugagcq8m6c",25,"","","","","","",0,"",NA,"","Fearful","images/26_fearful_hi_lo_3_Accent_ascend_smlg_bar.png",NA,NA
NA,"<div style=""width:500px;"">
                            <p style=""font-size:50px; font-weight:bold;""
                            >Fearful</p>
                            <div style=""width:480px; margin: auto;"">
                                <img src=""images/26_fearful_med_lo_2_Set3_ascend_smlg_bar.png"" width=""480"" height=""420"" style=""object-fit:contain;"">
                            </div>
                        </div>","-193","html-slider-response",159,678522,"0.0-153.0","ugagcq8m6c",25,"","","","","","",0,"",NA,"","Fearful","images/26_fearful_med_lo_2_Set3_ascend_smlg_bar.png",NA,NA
NA,"<div style=""width:500px;"">
                            <p style=""font-size:50px; font-weight:bold;""
                            >Fearful</p>
                            <div style=""width:480px; margin: auto;"">
                                <img src=""images/26_fearful_hi_md_2_tab10new_ascend_lgsm_bar.png"" width=""480"" height=""420"" style=""object-fit:contain;"">
                            </div>
                        </div>","-193","html-slider-response",160,685802,"0.0-154.0","ugagcq8m6c",25,"","","","","","",0,"",NA,"","Fearful","images/26_fearful_hi_md_2_tab10new_ascend_lgsm_bar.png",NA,NA
NA,"<div style=""width:500px;"">
                            <p style=""font-size:50px; font-weight:bold;""
                            >Fearful</p>
                            <div style=""width:480px; margin: auto;"">
                                <img src=""images/26_fearful_med_lo_3_tab20_ascend_lgsm_bar.png"" width=""480"" height=""420"" style=""object-fit:contain;"">
                            </div>
                        </div>","-193","html-slider-response",161,688902,"0.0-155.0","ugagcq8m6c",25,"","","","","","",0,"",NA,"","Fearful","images/26_fearful_med_lo_3_tab20_ascend_lgsm_bar.png",NA,NA
NA,"<div style=""width:500px;"">
                            <p style=""font-size:50px; font-weight:bold;""
                            >Fearful</p>
                            <div style=""width:480px; margin: auto;"">
                                <img src=""images/26_fearful_lo_lo_2_Set3_decend_smlg_bar.png"" width=""480"" height=""420"" style=""object-fit:contain;"">
                            </div>
                        </div>","-193","html-slider-response",162,693085,"0.0-156.0","ugagcq8m6c",25,"","","","","","",0,"",NA,"","Fearful","images/26_fearful_lo_lo_2_Set3_decend_smlg_bar.png",NA,NA
NA,"<div style=""width:500px;"">
                            <p style=""font-size:50px; font-weight:bold;""
                            >Fearful</p>
                            <div style=""width:480px; margin: auto;"">
                                <img src=""images/26_fearful_hi_lo_1_tab20_decend_smlg_bar.png"" width=""480"" height=""420"" style=""object-fit:contain;"">
                            </div>
                        </div>","-193","html-slider-response",163,704405,"0.0-157.0","ugagcq8m6c",25,"","","","","","",0,"",NA,"","Fearful","images/26_fearful_hi_lo_1_tab20_decend_smlg_bar.png",NA,NA
NA,"<div style=""width:500px;"">
                            <p style=""font-size:50px; font-weight:bold;""
                            >Fearful</p>
                            <div style=""width:480px; margin: auto;"">
                                <img src=""images/26_fearful_hi_md_3_tab20_ascend_lgsm_bar.png"" width=""480"" height=""420"" style=""object-fit:contain;"">
                            </div>
                        </div>","-193","html-slider-response",164,705527,"0.0-158.0","ugagcq8m6c",25,"","","","","","",0,"",NA,"","Fearful","images/26_fearful_hi_md_3_tab20_ascend_lgsm_bar.png",NA,NA
NA,"<div style=""width:500px;"">
                            <p style=""font-size:50px; font-weight:bold;""
                            >Fearful</p>
                            <div style=""width:480px; margin: auto;"">
                                <img src=""images/26_fearful_lo_lo_2_Set3_ascend_smlg_bar.png"" width=""480"" height=""420"" style=""object-fit:contain;"">
                            </div>
                        </div>","-193","html-slider-response",165,707343,"0.0-159.0","ugagcq8m6c",25,"","","","","","",0,"",NA,"","Fearful","images/26_fearful_lo_lo_2_Set3_ascend_smlg_bar.png",NA,NA
2550,"<p>Great Job! You've finished block 2.<br></br> You have 3 block(s) left to go.<br></br></p>","0","html-button-response",166,710395,"0.0-160.0","ugagcq8m6c",25,"","","","","","",NA,"",NA,"","","",NA,NA
2461,"<p>In this block of trials, you will be asked to rate how much you associate each texture with the concept</p >
                        <p style = 'font-size:150%; font-weight: bold'>Happy</p><br></br>","0","html-button-response",167,712858,"0.0-161.0","ugagcq8m6c",25,"","","","","","",NA,"",NA,"","","",NA,NA
NA,"<div style=""width:500px;"">
