"success","timeout","failed_images","failed_audio","failed_video","trial_type","trial_index","time_elapsed","internal_node_id","subject_id","condition_num","rt","stimulus","response","question_order","slider_start","practiceTrial","practiceTrialNum","correct","image_path","concept","repetition","map_id","map_num","scale_name","orientation_code","mapping_code","rotation_code","ishihara_plate","correct_response"
"true","false","[]","[]","[]","preload",0,310,"0.0-0.0","mgya959wqr",26,NA,"",NA,"",NA,"",NA,"","","",NA,NA,NA,"","","","",NA,NA
"","","","","","html-button-response",1,12536,"0.0-1.0","mgya959wqr",26,12225,"Welcome to our experiment!<p>At the bottom of this screen, you will see a button that says ""Begin Experiment"".<br>Please only click that button when you are ready to complete the 30 minute experiment in one sitting.</p><p> Once you click that button, it will not be possible to restart the experiment.",0.5,"",NA,"",NA,"","","",NA,NA,NA,"","","","",NA,NA
"true","","","","","fullscreen",2,16072,"0.0-2.0","mgya959wqr",26,2535,"",NA,"",NA,"",NA,"","","",NA,NA,NA,"","","","",NA,NA
"","","","","","survey-multi-select",3,43642,"0.0-3.0","mgya959wqr",26,27569,"",NA,"[0]",NA,"",NA,"","","",NA,NA,NA,"","","","",NA,NA
"","","","","","html-button-response",4,45772,"0.0-4.0","mgya959wqr",26,2129,"Welcome! <p> This experiment involves two parts: demographic information, followed by the experimental task.<p> It will take about 30 minutes to complete both parts.",0.5,"",NA,"",NA,"","","",NA,NA,NA,"","","","",NA,NA
"","","","","","survey-text",5,59803,"0.0-5.0","mgya959wqr",26,13984,"",NA,"",NA,"",NA,"","","",NA,NA,NA,"","","","",NA,NA
"","","","","","html-slider-response",6,135990,"0.0-6.0","mgya959wqr",26,76182,"<div style='text-align:left; font-size:20px; line-height:25px; width: 1000px;'>
                                During this experiment you will be asked to rate how much you associate maps with                    different concepts.<br> Below, you can see some examples of the maps you will be asked to rate. Above the maps
                    is the list of concepts.<br>You will be asked                    to rate how much you associate each map with each concept on a scale from 'not at all' to 'very much' like the
                    one below. <br><br>
                    Now, please look at the list of concepts and maps. For each concept, think about the map you associate 'very
                    much' with the concept.<br>                     When you see that map during the experiment, please rate it near the 'very much' endpoint of the
                    scale.<br>Now, please think about which map you associate 'not at all'                     with each concept. When you see that map during the experiment, please rate it near the 'not at all' endpoint
                    of the scale.<br>
                    Please use the full range of the scale. That is, if a map is somewhat associated with the concept, you would
                    click partway between the middle point and right side of the scale.                    You will be asked to rate each map for a given concept before moving on to the next concept.<br>Press the
                    'Continue' button for instructions on how to use the slider.                    <br>
                </div>

                <div style=""width: 500px; margin: 0 auto;"">
                    <!-- Centered text paragraphs -->
                    <div style=""text-align: center; width: 500px;"">
                        <p style=""font-size:25px; line-height:15px;"">
                            sad&nbsp;&nbsp;&nbsp;&nbsp;
                            disgust&nbsp;&nbsp;&nbsp;&nbsp;
                            angry&nbsp;&nbsp;&nbsp;&nbsp;
                            fearful&nbsp;&nbsp;&nbsp;&nbsp;
                            happy
                        </p>
                        <!-- <p style=""font-size:20px; line-height:15px;"">disgust</p>
                        <p style=""font-size:20px;line-height:15px;"">angry</p>
                        <p style=""font-size:20px;line-height:15px;"">fearful</p>
                        <p style=""font-size:20px;line-height:15px;"">happy</p> -->
                    </div>
            

                    <!-- Grid section -->
                   <div style=""display: flex; justify-content: center; padding-top: 15px;"">
                    <div style=""display: grid; grid-template-columns: repeat(10, 55px); grid-gap: 5px; width: auto;"">
                        <img src=""images/map13_Blues_scaleRev_orientDef_090.png"" alt=""map"" style=""width: 100%;""><img src=""images/map13_Reds_scaleDef_orientMir_180.png"" alt=""map"" style=""width: 100%;""><img src=""images/map27_BrBG_scaleDef_orientMir_000.png"" alt=""map"" style=""width: 100%;""><img src=""images/map07_vanimo_scaleDef_orientMir_000.png"" alt=""map"" style=""width: 100%;""><img src=""images/map26_YlGn_scaleRev_orientMir_270.png"" alt=""map"" style=""width: 100%;""><img src=""images/map23_BuPu_scaleDef_orientDef_180.png"" alt=""map"" style=""width: 100%;""><img src=""images/map05_Spectral_scaleDef_orientDef_000.png"" alt=""map"" style=""width: 100%;""><img src=""images/map15_YlOrRd_scaleRev_orientDef_270.png"" alt=""map"" style=""width: 100%;""><img src=""images/map05_bwr_scaleDef_orientMir_000.png"" alt=""map"" style=""width: 100%;""><img src=""images/map10_inferno_scaleDef_orientMir_180.png"" alt=""map"" style=""width: 100%;""><img src=""images/map02_RdYlGn_scaleRev_orientMir_270.png"" alt=""map"" style=""width: 100%;""><img src=""images/map23_GnBu_scaleRev_orientMir_090.png"" alt=""map"" style=""width: 100%;""><img src=""images/map07_managua_scaleDef_orientDef_180.png"" alt=""map"" style=""width: 100%;""><img src=""images/map07_berlin_scaleDef_orientDef_000.png"" alt=""map"" style=""width: 100%;""><img src=""images/map15_YlOrBr_scaleRev_orientDef_090.png"" alt=""map"" style=""width: 100%;""><img src=""images/map12_magma_scaleDef_orientDef_000.png"" alt=""map"" style=""width: 100%;""><img src=""images/map13_Greens_scaleDef_orientDef_180.png"" alt=""map"" style=""width: 100%;""><img src=""images/map27_PiYG_scaleDef_orientDef_000.png"" alt=""map"" style=""width: 100%;""><img src=""images/map12_cividis_scaleRev_orientDef_270.png"" alt=""map"" style=""width: 100%;""><img src=""images/map26_YlGnBu_scaleDef_orientDef_000.png"" alt=""map"" style=""width: 100%;""><img src=""images/map26_BuGn_scaleDef_orientMir_000.png"" alt=""map"" style=""width: 100%;""><img src=""images/map12_Purples_scaleRev_orientMir_270.png"" alt=""map"" style=""width: 100%;""><img src=""images/map02_RdGy_scaleRev_orientDef_090.png"" alt=""map"" style=""width: 100%;""><img src=""images/map05_seismic_scaleRev_orientMir_270.png"" alt=""map"" style=""width: 100%;""><img src=""images/map10_plasma_scaleDef_orientMir_000.png"" alt=""map"" style=""width: 100%;""><img src=""images/map10_turbo_scaleDef_orientDef_000.png"" alt=""map"" style=""width: 100%;""><img src=""images/map07_gist_earth_scaleDef_orientMir_180.png"" alt=""map"" style=""width: 100%;""><img src=""images/map27_PRGn_scaleDef_orientDef_180.png"" alt=""map"" style=""width: 100%;""><img src=""images/map27_PuOr_scaleDef_orientMir_180.png"" alt=""map"" style=""width: 100%;""><img src=""images/map12_Greys_scaleDef_orientMir_000.png"" alt=""map"" style=""width: 100%;""><img src=""images/map23_PuBu_scaleRev_orientMir_270.png"" alt=""map"" style=""width: 100%;""><img src=""images/map15_OrRd_scaleRev_orientMir_090.png"" alt=""map"" style=""width: 100%;""><img src=""images/map10_viridis_scaleDef_orientDef_180.png"" alt=""map"" style=""width: 100%;""><img src=""images/map26_PuBuGn_scaleDef_orientDef_180.png"" alt=""map"" style=""width: 100%;""><img src=""images/map02_RdBu_scaleDef_orientDef_180.png"" alt=""map"" style=""width: 100%;""><img src=""images/map05_coolwarm_scaleDef_orientDef_180.png"" alt=""map"" style=""width: 100%;""><img src=""images/map23_RdPu_scaleDef_orientDef_000.png"" alt=""map"" style=""width: 100%;""><img src=""images/map02_RdYlBu_scaleRev_orientMir_090.png"" alt=""map"" style=""width: 100%;""><img src=""images/map15_PuRd_scaleRev_orientMir_270.png"" alt=""map"" style=""width: 100%;""><img src=""images/map13_Oranges_scaleRev_orientMir_090.png"" alt=""map"" style=""width: 100%;"">
                    </div>
                </div>

                    <!-- Clear floats -->
                    <div style=""clear: both;""></div>
                </div>
                            ",NA,"",0,"true",NA,"","","",NA,NA,NA,"","","","",NA,NA
"","","","","","html-button-response",7,139850,"0.0-7.0","mgya959wqr",26,3859,"<div style=""width:800px;""><p style=""text-align:left"">To move the slider, click and drag your cursor to the location of the scale where you would like to make your rating and then let go. When you let go of the slider, your response will be recorded and the next trial will begin. <br>
                    We are interested in your initial impressions of each map for the given concept, so please go with your first intuition. <br>
                    Before you begin the experiment, there will be four training trials for you to practice using the scale. <br>
                     When you are ready to start the training trials, please click ""Continue"".</p><br></div>",0.5,"",NA,"",NA,"","","",NA,NA,NA,"","","","",NA,NA
"","","","","","html-slider-response",8,144449,"0.0-8.0-0.0","mgya959wqr",26,NA,"<div style=""width:500px;"">
                                    <p style=""font-size:25px;"">Please move the slider all the way to the <br> right endpoint of the scale</p>

                                    </div>
                                </div>",1,"",0,"true",0,"true","","",NA,NA,NA,"","","","",NA,NA
"","","","","","html-button-response",9,146574,"0.0-8.0-1.0","mgya959wqr",26,1614,"<p align='center'><b>Good job!</b> Click on 'Continue' to proceed.</p>",0.5,"",NA,"",NA,"","","",NA,NA,NA,"","","","",NA,NA
"","","","","","html-slider-response",10,149496,"0.0-9.0-0.0","mgya959wqr",26,NA,"<div style=""width:500px;"">
                                    <p style=""font-size:25px;"">Please move the slider all the way to the <br> left endpoint of the scale</p>

                                    </div>
                                </div>",0,"",0,"true",1,"true","","",NA,NA,NA,"","","","",NA,NA
"","","","","","html-button-response",11,151104,"0.0-9.0-1.0","mgya959wqr",26,1104,"<p align='center'><b>Good job!</b> Click on 'Continue' to proceed.</p>",0.5,"",NA,"",NA,"","","",NA,NA,NA,"","","","",NA,NA
"","","","","","html-slider-response",12,155024,"0.0-10.0-0.0","mgya959wqr",26,NA,"<div style=""width:500px;"">
                                    <p style=""font-size:25px;"">Please move the slider halfway between the center and right endpoint of the scale</p>

                                    </div>
                                </div>",0.7625,"",0,"true",2,"true","","",NA,NA,NA,"","","","",NA,NA
"","","","","","html-button-response",13,156457,"0.0-10.0-1.0","mgya959wqr",26,918,"<p align='center'><b>Good job!</b> Click on 'Continue' to proceed.</p>",0.5,"",NA,"",NA,"","","",NA,NA,NA,"","","","",NA,NA
"","","","","","html-slider-response",14,158675,"0.0-11.0-0.0","mgya959wqr",26,NA,"<div style=""width:500px;"">
                                    <p style=""font-size:25px;"">Please move the slider halfway between the center and left endpoint of the scale</p>

                                    </div>
                                </div>",0.24,"",0,"true",3,"true","","",NA,NA,NA,"","","","",NA,NA
"","","","","","html-button-response",15,159963,"0.0-11.0-1.0","mgya959wqr",26,786,"<p align='center'><b>Good job!</b> Click on 'Continue' to proceed.</p>",0.5,"",NA,"",NA,"","","",NA,NA,NA,"","","","",NA,NA
"","","","","","html-button-response",16,162481,"0.0-12.0","mgya959wqr",26,2517,"<p>Great job! You've completed the practice trials. Now you will begin the main task.</p>",0.5,"",NA,"",NA,"","","",NA,NA,NA,"","","","",NA,NA
"","","","","","html-button-response",17,167713,"0.0-13.0","mgya959wqr",26,5231,"<p>In this block of trials, you will be asked to rate how much you associate each map with:</p > <p style = 'font-size:150%; font-weight: bold'>sad</p><br></br>",0.5,"",NA,"",NA,"","","",NA,NA,NA,"","","","",NA,NA
"","","","","","html-slider-response",18,172857,"0.0-14.0","mgya959wqr",26,NA,"<div style=""width:500px;"">
                            <p style=""font-size:50px; font-weight:bold;""
                            >sad</p>
                            <div style=""width:240px; margin: auto;"">
                                <img src=""images/map05_Spectral_scaleRev_orientDef_090.png"" style= ""width:200px""alt=""img"">
                            </div>
                        </div>",0.125,"",0,"",NA,"","images/map05_Spectral_scaleRev_orientDef_090.png","sad",1,5,5,"Spectral","orientDef","scaleRev","090",NA,NA
"","","","","","html-slider-response",19,176818,"0.0-15.0","mgya959wqr",26,NA,"<div style=""width:500px;"">
                            <p style=""font-size:50px; font-weight:bold;""
                            >sad</p>
                            <div style=""width:240px; margin: auto;"">
                                <img src=""images/map07_vanimo_scaleDef_orientMir_000.png"" style= ""width:200px""alt=""img"">
                            </div>
                        </div>",0.1325,"",0,"",NA,"","images/map07_vanimo_scaleDef_orientMir_000.png","sad",1,7,7,"vanimo","orientMir","scaleDef","000",NA,NA
"","","","","","html-slider-response",20,191379,"0.0-16.0","mgya959wqr",26,NA,"<div style=""width:500px;"">
                            <p style=""font-size:50px; font-weight:bold;""
                            >sad</p>
                            <div style=""width:240px; margin: auto;"">
                                <img src=""images/map13_Blues_scaleRev_orientDef_090.png"" style= ""width:200px""alt=""img"">
                            </div>
                        </div>",0.115,"",0,"",NA,"","images/map13_Blues_scaleRev_orientDef_090.png","sad",1,13,13,"Blues","orientDef","scaleRev","090",NA,NA
"","","","","","html-slider-response",21,196848,"0.0-17.0","mgya959wqr",26,NA,"<div style=""width:500px;"">
                            <p style=""font-size:50px; font-weight:bold;""
                            >sad</p>
                            <div style=""width:240px; margin: auto;"">
                                <img src=""images/map27_PiYG_scaleDef_orientDef_000.png"" style= ""width:200px""alt=""img"">
                            </div>
                        </div>",0.17,"",0,"",NA,"","images/map27_PiYG_scaleDef_orientDef_000.png","sad",1,27,27,"PiYG","orientDef","scaleDef","000",NA,NA
"","","","","","html-slider-response",22,200214,"0.0-18.0","mgya959wqr",26,NA,"<div style=""width:500px;"">
                            <p style=""font-size:50px; font-weight:bold;""
                            >sad</p>
                            <div style=""width:240px; margin: auto;"">
                                <img src=""images/map15_YlOrRd_scaleRev_orientDef_270.png"" style= ""width:200px""alt=""img"">
                            </div>
                        </div>",0.725,"",0,"",NA,"","images/map15_YlOrRd_scaleRev_orientDef_270.png","sad",1,15,15,"YlOrRd","orientDef","scaleRev","270",NA,NA
"","","","","","html-slider-response",23,203901,"0.0-19.0","mgya959wqr",26,NA,"<div style=""width:500px;"">
                            <p style=""font-size:50px; font-weight:bold;""
                            >sad</p>
                            <div style=""width:240px; margin: auto;"">
                                <img src=""images/map02_RdYlBu_scaleDef_orientMir_000.png"" style= ""width:200px""alt=""img"">
                            </div>
                        </div>",0.0825,"",0,"",NA,"","images/map02_RdYlBu_scaleDef_orientMir_000.png","sad",1,2,2,"RdYlBu","orientMir","scaleDef","000",NA,NA
"","","","","","html-slider-response",24,206122,"0.0-20.0","mgya959wqr",26,NA,"<div style=""width:500px;"">
                            <p style=""font-size:50px; font-weight:bold;""
                            >sad</p>
                            <div style=""width:240px; margin: auto;"">
                                <img src=""images/map27_BrBG_scaleDef_orientMir_000.png"" style= ""width:200px""alt=""img"">
                            </div>
                        </div>",0.0875,"",0,"",NA,"","images/map27_BrBG_scaleDef_orientMir_000.png","sad",1,27,27,"BrBG","orientMir","scaleDef","000",NA,NA
"","","","","","html-slider-response",25,208611,"0.0-21.0","mgya959wqr",26,NA,"<div style=""width:500px;"">
                            <p style=""font-size:50px; font-weight:bold;""
                            >sad</p>
                            <div style=""width:240px; margin: auto;"">
                                <img src=""images/map13_Oranges_scaleRev_orientMir_090.png"" style= ""width:200px""alt=""img"">
                            </div>
                        </div>",0.785,"",0,"",NA,"","images/map13_Oranges_scaleRev_orientMir_090.png","sad",1,13,13,"Oranges","orientMir","scaleRev","090",NA,NA
"","","","","","html-slider-response",26,210881,"0.0-22.0","mgya959wqr",26,NA,"<div style=""width:500px;"">
                            <p style=""font-size:50px; font-weight:bold;""
                            >sad</p>
                            <div style=""width:240px; margin: auto;"">
                                <img src=""images/map26_BuGn_scaleDef_orientMir_000.png"" style= ""width:200px""alt=""img"">
                            </div>
                        </div>",0.1525,"",0,"",NA,"","images/map26_BuGn_scaleDef_orientMir_000.png","sad",1,26,26,"BuGn","orientMir","scaleDef","000",NA,NA
"","","","","","html-slider-response",27,213107,"0.0-23.0","mgya959wqr",26,NA,"<div style=""width:500px;"">
                            <p style=""font-size:50px; font-weight:bold;""
                            >sad</p>
                            <div style=""width:240px; margin: auto;"">
                                <img src=""images/map05_coolwarm_scaleRev_orientDef_270.png"" style= ""width:200px""alt=""img"">
                            </div>
                        </div>",0.865,"",0,"",NA,"","images/map05_coolwarm_scaleRev_orientDef_270.png","sad",1,5,5,"coolwarm","orientDef","scaleRev","270",NA,NA
"","","","","","html-slider-response",28,215207,"0.0-24.0","mgya959wqr",26,NA,"<div style=""width:500px;"">
                            <p style=""font-size:50px; font-weight:bold;""
                            >sad</p>
                            <div style=""width:240px; margin: auto;"">
                                <img src=""images/map26_YlGn_scaleDef_orientMir_180.png"" style= ""width:200px""alt=""img"">
                            </div>
                        </div>",0.17,"",0,"",NA,"","images/map26_YlGn_scaleDef_orientMir_180.png","sad",1,26,26,"YlGn","orientMir","scaleDef","180",NA,NA
"","","","","","html-slider-response",29,218678,"0.0-25.0","mgya959wqr",26,NA,"<div style=""width:500px;"">
                            <p style=""font-size:50px; font-weight:bold;""
                            >sad</p>
                            <div style=""width:240px; margin: auto;"">
                                <img src=""images/map10_turbo_scaleDef_orientDef_000.png"" style= ""width:200px""alt=""img"">
                            </div>
                        </div>",0.155,"",0,"",NA,"","images/map10_turbo_scaleDef_orientDef_000.png","sad",1,10,10,"turbo","orientDef","scaleDef","000",NA,NA
"","","","","","html-slider-response",30,220754,"0.0-26.0","mgya959wqr",26,NA,"<div style=""width:500px;"">
                            <p style=""font-size:50px; font-weight:bold;""
                            >sad</p>
                            <div style=""width:240px; margin: auto;"">
                                <img src=""images/map23_GnBu_scaleDef_orientMir_000.png"" style= ""width:200px""alt=""img"">
                            </div>
                        </div>",0.16,"",0,"",NA,"","images/map23_GnBu_scaleDef_orientMir_000.png","sad",1,23,23,"GnBu","orientMir","scaleDef","000",NA,NA
"","","","","","html-slider-response",31,224154,"0.0-27.0","mgya959wqr",26,NA,"<div style=""width:500px;"">
                            <p style=""font-size:50px; font-weight:bold;""
                            >sad</p>
                            <div style=""width:240px; margin: auto;"">
                                <img src=""images/map02_RdYlGn_scaleRev_orientMir_270.png"" style= ""width:200px""alt=""img"">
                            </div>
                        </div>",0.835,"",0,"",NA,"","images/map02_RdYlGn_scaleRev_orientMir_270.png","sad",1,2,2,"RdYlGn","orientMir","scaleRev","270",NA,NA
"","","","","","html-slider-response",32,226617,"0.0-28.0","mgya959wqr",26,NA,"<div style=""width:500px;"">
                            <p style=""font-size:50px; font-weight:bold;""
                            >sad</p>
                            <div style=""width:240px; margin: auto;"">
                                <img src=""images/map13_Oranges_scaleDef_orientMir_000.png"" style= ""width:200px""alt=""img"">
                            </div>
                        </div>",0.935,"",0,"",NA,"","images/map13_Oranges_scaleDef_orientMir_000.png","sad",1,13,13,"Oranges","orientMir","scaleDef","000",NA,NA
"","","","","","html-slider-response",33,228732,"0.0-29.0","mgya959wqr",26,NA,"<div style=""width:500px;"">
                            <p style=""font-size:50px; font-weight:bold;""
                            >sad</p>
                            <div style=""width:240px; margin: auto;"">
                                <img src=""images/map23_PuBu_scaleDef_orientMir_180.png"" style= ""width:200px""alt=""img"">
                            </div>
                        </div>",0.0525,"",0,"",NA,"","images/map23_PuBu_scaleDef_orientMir_180.png","sad",1,23,23,"PuBu","orientMir","scaleDef","180",NA,NA
"","","","","","html-slider-response",34,230735,"0.0-30.0","mgya959wqr",26,NA,"<div style=""width:500px;"">
                            <p style=""font-size:50px; font-weight:bold;""
                            >sad</p>
                            <div style=""width:240px; margin: auto;"">
                                <img src=""images/map13_Reds_scaleDef_orientMir_180.png"" style= ""width:200px""alt=""img"">
                            </div>
                        </div>",0.945,"",0,"",NA,"","images/map13_Reds_scaleDef_orientMir_180.png","sad",1,13,13,"Reds","orientMir","scaleDef","180",NA,NA
"","","","","","html-slider-response",35,232567,"0.0-31.0","mgya959wqr",26,NA,"<div style=""width:500px;"">
                            <p style=""font-size:50px; font-weight:bold;""
                            >sad</p>
                            <div style=""width:240px; margin: auto;"">
                                <img src=""images/map15_YlOrBr_scaleRev_orientDef_090.png"" style= ""width:200px""alt=""img"">
                            </div>
                        </div>",0.055,"",0,"",NA,"","images/map15_YlOrBr_scaleRev_orientDef_090.png","sad",1,15,15,"YlOrBr","orientDef","scaleRev","090",NA,NA
"","","","","","html-slider-response",36,234916,"0.0-32.0","mgya959wqr",26,NA,"<div style=""width:500px;"">
                            <p style=""font-size:50px; font-weight:bold;""
                            >sad</p>
                            <div style=""width:240px; margin: auto;"">
                                <img src=""images/map02_RdGy_scaleRev_orientDef_090.png"" style= ""width:200px""alt=""img"">
                            </div>
                        </div>",0.945,"",0,"",NA,"","images/map02_RdGy_scaleRev_orientDef_090.png","sad",1,2,2,"RdGy","orientDef","scaleRev","090",NA,NA
"","","","","","html-slider-response",37,236844,"0.0-33.0","mgya959wqr",26,NA,"<div style=""width:500px;"">
                            <p style=""font-size:50px; font-weight:bold;""
                            >sad</p>
                            <div style=""width:240px; margin: auto;"">
                                <img src=""images/map12_cividis_scaleRev_orientDef_270.png"" style= ""width:200px""alt=""img"">
                            </div>
                        </div>",1,"",0,"",NA,"","images/map12_cividis_scaleRev_orientDef_270.png","sad",1,12,12,"cividis","orientDef","scaleRev","270",NA,NA
"","","","","","html-slider-response",38,239181,"0.0-34.0","mgya959wqr",26,NA,"<div style=""width:500px;"">
                            <p style=""font-size:50px; font-weight:bold;""
                            >sad</p>
                            <div style=""width:240px; margin: auto;"">
                                <img src=""images/map13_Greens_scaleDef_orientDef_180.png"" style= ""width:200px""alt=""img"">
                            </div>
                        </div>",0.595,"",0,"",NA,"","images/map13_Greens_scaleDef_orientDef_180.png","sad",1,13,13,"Greens","orientDef","scaleDef","180",NA,NA
"","","","","","html-slider-response",39,241022,"0.0-35.0","mgya959wqr",26,NA,"<div style=""width:500px;"">
                            <p style=""font-size:50px; font-weight:bold;""
                            >sad</p>
                            <div style=""width:240px; margin: auto;"">
                                <img src=""images/map05_bwr_scaleDef_orientMir_000.png"" style= ""width:200px""alt=""img"">
                            </div>
                        </div>",0.505,"",0,"",NA,"","images/map05_bwr_scaleDef_orientMir_000.png","sad",1,5,5,"bwr","orientMir","scaleDef","000",NA,NA
"","","","","","html-slider-response",40,245584,"0.0-36.0","mgya959wqr",26,NA,"<div style=""width:500px;"">
                            <p style=""font-size:50px; font-weight:bold;""
                            >sad</p>
                            <div style=""width:240px; margin: auto;"">
                                <img src=""images/map05_Spectral_scaleDef_orientDef_000.png"" style= ""width:200px""alt=""img"">
                            </div>
                        </div>",0.6925,"",0,"",NA,"","images/map05_Spectral_scaleDef_orientDef_000.png","sad",1,5,5,"Spectral","orientDef","scaleDef","000",NA,NA
"","","","","","html-slider-response",41,247722,"0.0-37.0","mgya959wqr",26,NA,"<div style=""width:500px;"">
                            <p style=""font-size:50px; font-weight:bold;""
                            >sad</p>
                            <div style=""width:240px; margin: auto;"">
                                <img src=""images/map07_managua_scaleDef_orientDef_180.png"" style= ""width:200px""alt=""img"">
                            </div>
                        </div>",0.735,"",0,"",NA,"","images/map07_managua_scaleDef_orientDef_180.png","sad",1,7,7,"managua","orientDef","scaleDef","180",NA,NA
"","","","","","html-slider-response",42,249795,"0.0-38.0","mgya959wqr",26,NA,"<div style=""width:500px;"">
                            <p style=""font-size:50px; font-weight:bold;""
                            >sad</p>
                            <div style=""width:240px; margin: auto;"">
                                <img src=""images/map23_GnBu_scaleRev_orientMir_090.png"" style= ""width:200px""alt=""img"">
                            </div>
                        </div>",0.2025,"",0,"",NA,"","images/map23_GnBu_scaleRev_orientMir_090.png","sad",1,23,23,"GnBu","orientMir","scaleRev","090",NA,NA
"","","","","","html-slider-response",43,252240,"0.0-39.0","mgya959wqr",26,NA,"<div style=""width:500px;"">
                            <p style=""font-size:50px; font-weight:bold;""
                            >sad</p>
                            <div style=""width:240px; margin: auto;"">
                                <img src=""images/map15_PuRd_scaleDef_orientMir_180.png"" style= ""width:200px""alt=""img"">
                            </div>
                        </div>",0.8225,"",0,"",NA,"","images/map15_PuRd_scaleDef_orientMir_180.png","sad",1,15,15,"PuRd","orientMir","scaleDef","180",NA,NA
"","","","","","html-slider-response",44,254540,"0.0-40.0","mgya959wqr",26,NA,"<div style=""width:500px;"">
                            <p style=""font-size:50px; font-weight:bold;""
                            >sad</p>
                            <div style=""width:240px; margin: auto;"">
                                <img src=""images/map26_PuBuGn_scaleRev_orientDef_270.png"" style= ""width:200px""alt=""img"">
                            </div>
                        </div>",0.1325,"",0,"",NA,"","images/map26_PuBuGn_scaleRev_orientDef_270.png","sad",1,26,26,"PuBuGn","orientDef","scaleRev","270",NA,NA
"","","","","","html-slider-response",45,256572,"0.0-41.0","mgya959wqr",26,NA,"<div style=""width:500px;"">
                            <p style=""font-size:50px; font-weight:bold;""
                            >sad</p>
                            <div style=""width:240px; margin: auto;"">
                                <img src=""images/map07_gist_earth_scaleRev_orientMir_270.png"" style= ""width:200px""alt=""img"">
                            </div>
                        </div>",0.235,"",0,"",NA,"","images/map07_gist_earth_scaleRev_orientMir_270.png","sad",1,7,7,"gist","scaleRev","earth","orientMir",NA,NA
"","","","","","html-slider-response",46,260348,"0.0-42.0","mgya959wqr",26,NA,"<div style=""width:500px;"">
                            <p style=""font-size:50px; font-weight:bold;""
                            >sad</p>
                            <div style=""width:240px; margin: auto;"">
                                <img src=""images/map02_RdGy_scaleDef_orientDef_000.png"" style= ""width:200px""alt=""img"">
                            </div>
                        </div>",0.755,"",0,"",NA,"","images/map02_RdGy_scaleDef_orientDef_000.png","sad",1,2,2,"RdGy","orientDef","scaleDef","000",NA,NA
"","","","","","html-slider-response",47,262643,"0.0-43.0","mgya959wqr",26,NA,"<div style=""width:500px;"">
                            <p style=""font-size:50px; font-weight:bold;""
                            >sad</p>
                            <div style=""width:240px; margin: auto;"">
                                <img src=""images/map27_PRGn_scaleDef_orientDef_180.png"" style= ""width:200px""alt=""img"">
                            </div>
                        </div>",0.1075,"",0,"",NA,"","images/map27_PRGn_scaleDef_orientDef_180.png","sad",1,27,27,"PRGn","orientDef","scaleDef","180",NA,NA
"","","","","","html-slider-response",48,264612,"0.0-44.0","mgya959wqr",26,NA,"<div style=""width:500px;"">
                            <p style=""font-size:50px; font-weight:bold;""
                            >sad</p>
                            <div style=""width:240px; margin: auto;"">
                                <img src=""images/map10_viridis_scaleDef_orientDef_180.png"" style= ""width:200px""alt=""img"">
                            </div>
                        </div>",0.845,"",0,"",NA,"","images/map10_viridis_scaleDef_orientDef_180.png","sad",1,10,10,"viridis","orientDef","scaleDef","180",NA,NA
"","","","","","html-slider-response",49,266852,"0.0-45.0","mgya959wqr",26,NA,"<div style=""width:500px;"">
                            <p style=""font-size:50px; font-weight:bold;""
                            >sad</p>
                            <div style=""width:240px; margin: auto;"">
                                <img src=""images/map27_BrBG_scaleRev_orientMir_090.png"" style= ""width:200px""alt=""img"">
                            </div>
                        </div>",0.1325,"",0,"",NA,"","images/map27_BrBG_scaleRev_orientMir_090.png","sad",1,27,27,"BrBG","orientMir","scaleRev","090",NA,NA
"","","","","","html-slider-response",50,268819,"0.0-46.0","mgya959wqr",26,NA,"<div style=""width:500px;"">
                            <p style=""font-size:50px; font-weight:bold;""
                            >sad</p>
                            <div style=""width:240px; margin: auto;"">
                                <img src=""images/map12_magma_scaleDef_orientDef_000.png"" style= ""width:200px""alt=""img"">
                            </div>
                        </div>",0.815,"",0,"",NA,"","images/map12_magma_scaleDef_orientDef_000.png","sad",1,12,12,"magma","orientDef","scaleDef","000",NA,NA
"","","","","","html-slider-response",51,271004,"0.0-47.0","mgya959wqr",26,NA,"<div style=""width:500px;"">
                            <p style=""font-size:50px; font-weight:bold;""
                            >sad</p>
                            <div style=""width:240px; margin: auto;"">
                                <img src=""images/map12_Greys_scaleRev_orientMir_090.png"" style= ""width:200px""alt=""img"">
                            </div>
                        </div>",1,"",0,"",NA,"","images/map12_Greys_scaleRev_orientMir_090.png","sad",1,12,12,"Greys","orientMir","scaleRev","090",NA,NA
"","","","","","html-slider-response",52,273682,"0.0-48.0","mgya959wqr",26,NA,"<div style=""width:500px;"">
                            <p style=""font-size:50px; font-weight:bold;""
                            >sad</p>
                            <div style=""width:240px; margin: auto;"">
                                <img src=""images/map26_PuBuGn_scaleDef_orientDef_180.png"" style= ""width:200px""alt=""img"">
                            </div>
                        </div>",0.0225,"",0,"",NA,"","images/map26_PuBuGn_scaleDef_orientDef_180.png","sad",1,26,26,"PuBuGn","orientDef","scaleDef","180",NA,NA
"","","","","","html-slider-response",53,275582,"0.0-49.0","mgya959wqr",26,NA,"<div style=""width:500px;"">
                            <p style=""font-size:50px; font-weight:bold;""
                            >sad</p>
                            <div style=""width:240px; margin: auto;"">
                                <img src=""images/map23_BuPu_scaleRev_orientDef_270.png"" style= ""width:200px""alt=""img"">
                            </div>
                        </div>",0.065,"",0,"",NA,"","images/map23_BuPu_scaleRev_orientDef_270.png","sad",1,23,23,"BuPu","orientDef","scaleRev","270",NA,NA
"","","","","","html-slider-response",54,277303,"0.0-50.0","mgya959wqr",26,NA,"<div style=""width:500px;"">
                            <p style=""font-size:50px; font-weight:bold;""
                            >sad</p>
                            <div style=""width:240px; margin: auto;"">
                                <img src=""images/map12_magma_scaleRev_orientDef_090.png"" style= ""width:200px""alt=""img"">
                            </div>
                        </div>",1,"",0,"",NA,"","images/map12_magma_scaleRev_orientDef_090.png","sad",1,12,12,"magma","orientDef","scaleRev","090",NA,NA
"","","","","","html-slider-response",55,279326,"0.0-51.0","mgya959wqr",26,NA,"<div style=""width:500px;"">
                            <p style=""font-size:50px; font-weight:bold;""
                            >sad</p>
                            <div style=""width:240px; margin: auto;"">
                                <img src=""images/map10_inferno_scaleDef_orientMir_180.png"" style= ""width:200px""alt=""img"">
                            </div>
                        </div>",0.78,"",0,"",NA,"","images/map10_inferno_scaleDef_orientMir_180.png","sad",1,10,10,"inferno","orientMir","scaleDef","180",NA,NA
"","","","","","html-slider-response",56,281165,"0.0-52.0","mgya959wqr",26,NA,"<div style=""width:500px;"">
                            <p style=""font-size:50px; font-weight:bold;""
                            >sad</p>
                            <div style=""width:240px; margin: auto;"">
                                <img src=""images/map13_Reds_scaleRev_orientMir_270.png"" style= ""width:200px""alt=""img"">
                            </div>
                        </div>",0.7175,"",0,"",NA,"","images/map13_Reds_scaleRev_orientMir_270.png","sad",1,13,13,"Reds","orientMir","scaleRev","270",NA,NA
"","","","","","html-slider-response",57,283134,"0.0-53.0","mgya959wqr",26,NA,"<div style=""width:500px;"">
                            <p style=""font-size:50px; font-weight:bold;""
                            >sad</p>
                            <div style=""width:240px; margin: auto;"">
                                <img src=""images/map05_seismic_scaleDef_orientMir_180.png"" style= ""width:200px""alt=""img"">
                            </div>
                        </div>",0.7125,"",0,"",NA,"","images/map05_seismic_scaleDef_orientMir_180.png","sad",1,5,5,"seismic","orientMir","scaleDef","180",NA,NA
"","","","","","html-button-response",58,288578,"0.0-54.0","mgya959wqr",26,4942,"<p>You are doing great!<br></br> You are halway done with the current block. When you are ready to continue, click the 'Continue' button.</p>",0.5,"",NA,"",NA,"","","",NA,NA,NA,"","","","",NA,NA
"","","","","","html-slider-response",59,292014,"0.0-55.0","mgya959wqr",26,NA,"<div style=""width:500px;"">
                            <p style=""font-size:50px; font-weight:bold;""
                            >sad</p>
                            <div style=""width:240px; margin: auto;"">
                                <img src=""images/map02_RdYlBu_scaleRev_orientMir_090.png"" style= ""width:200px""alt=""img"">
                            </div>
                        </div>",0.62,"",0,"",NA,"","images/map02_RdYlBu_scaleRev_orientMir_090.png","sad",1,2,2,"RdYlBu","orientMir","scaleRev","090",NA,NA
"","","","","","html-slider-response",60,293991,"0.0-56.0","mgya959wqr",26,NA,"<div style=""width:500px;"">
                            <p style=""font-size:50px; font-weight:bold;""
                            >sad</p>
                            <div style=""width:240px; margin: auto;"">
                                <img src=""images/map12_Greys_scaleDef_orientMir_000.png"" style= ""width:200px""alt=""img"">
                            </div>
                        </div>",1,"",0,"",NA,"","images/map12_Greys_scaleDef_orientMir_000.png","sad",1,12,12,"Greys","orientMir","scaleDef","000",NA,NA
"","","","","","html-slider-response",61,295888,"0.0-57.0","mgya959wqr",26,NA,"<div style=""width:500px;"">
                            <p style=""font-size:50px; font-weight:bold;""
                            >sad</p>
                            <div style=""width:240px; margin: auto;"">
                                <img src=""images/map15_YlOrRd_scaleDef_orientDef_180.png"" style= ""width:200px""alt=""img"">
                            </div>
                        </div>",0.8725,"",0,"",NA,"","images/map15_YlOrRd_scaleDef_orientDef_180.png","sad",1,15,15,"YlOrRd","orientDef","scaleDef","180",NA,NA
"","","","","","html-slider-response",62,298334,"0.0-58.0","mgya959wqr",26,NA,"<div style=""width:500px;"">
                            <p style=""font-size:50px; font-weight:bold;""
                            >sad</p>
                            <div style=""width:240px; margin: auto;"">
                                <img src=""images/map27_PRGn_scaleRev_orientDef_270.png"" style= ""width:200px""alt=""img"">
                            </div>
                        </div>",0.66,"",0,"",NA,"","images/map27_PRGn_scaleRev_orientDef_270.png","sad",1,27,27,"PRGn","orientDef","scaleRev","270",NA,NA
"","","","","","html-slider-response",63,300326,"0.0-59.0","mgya959wqr",26,NA,"<div style=""width:500px;"">
                            <p style=""font-size:50px; font-weight:bold;""
                            >sad</p>
                            <div style=""width:240px; margin: auto;"">
                                <img src=""images/map02_RdBu_scaleRev_orientDef_270.png"" style= ""width:200px""alt=""img"">
                            </div>
                        </div>",0.675,"",0,"",NA,"","images/map02_RdBu_scaleRev_orientDef_270.png","sad",1,2,2,"RdBu","orientDef","scaleRev","270",NA,NA
"","","","","","html-slider-response",64,302338,"0.0-60.0","mgya959wqr",26,NA,"<div style=""width:500px;"">
                            <p style=""font-size:50px; font-weight:bold;""
                            >sad</p>
                            <div style=""width:240px; margin: auto;"">
                                <img src=""images/map27_PiYG_scaleRev_orientDef_090.png"" style= ""width:200px""alt=""img"">
                            </div>
                        </div>",0.17,"",0,"",NA,"","images/map27_PiYG_scaleRev_orientDef_090.png","sad",1,27,27,"PiYG","orientDef","scaleRev","090",NA,NA
"","","","","","html-slider-response",65,304280,"0.0-61.0","mgya959wqr",26,NA,"<div style=""width:500px;"">
                            <p style=""font-size:50px; font-weight:bold;""
                            >sad</p>
                            <div style=""width:240px; margin: auto;"">
                                <img src=""images/map05_bwr_scaleRev_orientMir_090.png"" style= ""width:200px""alt=""img"">
                            </div>
                        </div>",0.62,"",0,"",NA,"","images/map05_bwr_scaleRev_orientMir_090.png","sad",1,5,5,"bwr","orientMir","scaleRev","090",NA,NA
"","","","","","html-slider-response",66,306356,"0.0-62.0","mgya959wqr",26,NA,"<div style=""width:500px;"">
                            <p style=""font-size:50px; font-weight:bold;""
                            >sad</p>
                            <div style=""width:240px; margin: auto;"">
                                <img src=""images/map07_berlin_scaleRev_orientDef_090.png"" style= ""width:200px""alt=""img"">
                            </div>
                        </div>",0.6975,"",0,"",NA,"","images/map07_berlin_scaleRev_orientDef_090.png","sad",1,7,7,"berlin","orientDef","scaleRev","090",NA,NA
"","","","","","html-slider-response",67,308018,"0.0-63.0","mgya959wqr",26,NA,"<div style=""width:500px;"">
                            <p style=""font-size:50px; font-weight:bold;""
                            >sad</p>
                            <div style=""width:240px; margin: auto;"">
                                <img src=""images/map15_OrRd_scaleDef_orientMir_000.png"" style= ""width:200px""alt=""img"">
                            </div>
                        </div>",0.9875,"",0,"",NA,"","images/map15_OrRd_scaleDef_orientMir_000.png","sad",1,15,15,"OrRd","orientMir","scaleDef","000",NA,NA
"","","","","","html-slider-response",68,310005,"0.0-64.0","mgya959wqr",26,NA,"<div style=""width:500px;"">
                            <p style=""font-size:50px; font-weight:bold;""
                            >sad</p>
                            <div style=""width:240px; margin: auto;"">
                                <img src=""images/map10_viridis_scaleRev_orientDef_270.png"" style= ""width:200px""alt=""img"">
                            </div>
                        </div>",0.245,"",0,"",NA,"","images/map10_viridis_scaleRev_orientDef_270.png","sad",1,10,10,"viridis","orientDef","scaleRev","270",NA,NA
"","","","","","html-slider-response",69,312439,"0.0-65.0","mgya959wqr",26,NA,"<div style=""width:500px;"">
                            <p style=""font-size:50px; font-weight:bold;""
                            >sad</p>
                            <div style=""width:240px; margin: auto;"">
                                <img src=""images/map02_RdYlGn_scaleDef_orientMir_180.png"" style= ""width:200px""alt=""img"">
                            </div>
                        </div>",0.6525,"",0,"",NA,"","images/map02_RdYlGn_scaleDef_orientMir_180.png","sad",1,2,2,"RdYlGn","orientMir","scaleDef","180",NA,NA
"","","","","","html-slider-response",70,315170,"0.0-66.0","mgya959wqr",26,NA,"<div style=""width:500px;"">
                            <p style=""font-size:50px; font-weight:bold;""
                            >sad</p>
                            <div style=""width:240px; margin: auto;"">
                                <img src=""images/map07_managua_scaleRev_orientDef_270.png"" style= ""width:200px""alt=""img"">
                            </div>
                        </div>",0.125,"",0,"",NA,"","images/map07_managua_scaleRev_orientDef_270.png","sad",1,7,7,"managua","orientDef","scaleRev","270",NA,NA
"","","","","","html-slider-response",71,317070,"0.0-67.0","mgya959wqr",26,NA,"<div style=""width:500px;"">
                            <p style=""font-size:50px; font-weight:bold;""
                            >sad</p>
                            <div style=""width:240px; margin: auto;"">
                                <img src=""images/map10_inferno_scaleRev_orientMir_270.png"" style= ""width:200px""alt=""img"">
                            </div>
                        </div>",0.855,"",0,"",NA,"","images/map10_inferno_scaleRev_orientMir_270.png","sad",1,10,10,"inferno","orientMir","scaleRev","270",NA,NA
"","","","","","html-slider-response",72,318962,"0.0-68.0","mgya959wqr",26,NA,"<div style=""width:500px;"">
                            <p style=""font-size:50px; font-weight:bold;""
                            >sad</p>
                            <div style=""width:240px; margin: auto;"">
                                <img src=""images/map12_Purples_scaleRev_orientMir_270.png"" style= ""width:200px""alt=""img"">
                            </div>
                        </div>",1,"",0,"",NA,"","images/map12_Purples_scaleRev_orientMir_270.png","sad",1,12,12,"Purples","orientMir","scaleRev","270",NA,NA
"","","","","","html-slider-response",73,320672,"0.0-69.0","mgya959wqr",26,NA,"<div style=""width:500px;"">
                            <p style=""font-size:50px; font-weight:bold;""
                            >sad</p>
                            <div style=""width:240px; margin: auto;"">
                                <img src=""images/map26_BuGn_scaleRev_orientMir_090.png"" style= ""width:200px""alt=""img"">
                            </div>
                        </div>",0,"",0,"",NA,"","images/map26_BuGn_scaleRev_orientMir_090.png","sad",1,26,26,"BuGn","orientMir","scaleRev","090",NA,NA
"","","","","","html-slider-response",74,323037,"0.0-70.0","mgya959wqr",26,NA,"<div style=""width:500px;"">
                            <p style=""font-size:50px; font-weight:bold;""
                            >sad</p>
                            <div style=""width:240px; margin: auto;"">
                                <img src=""images/map27_PuOr_scaleRev_orientMir_270.png"" style= ""width:200px""alt=""img"">
                            </div>
                        </div>",0.9025,"",0,"",NA,"","images/map27_PuOr_scaleRev_orientMir_270.png","sad",1,27,27,"PuOr","orientMir","scaleRev","270",NA,NA
"","","","","","html-slider-response",75,325133,"0.0-71.0","mgya959wqr",26,NA,"<div style=""width:500px;"">
                            <p style=""font-size:50px; font-weight:bold;""
                            >sad</p>
                            <div style=""width:240px; margin: auto;"">
                                <img src=""images/map27_PuOr_scaleDef_orientMir_180.png"" style= ""width:200px""alt=""img"">
                            </div>
                        </div>",0.84,"",0,"",NA,"","images/map27_PuOr_scaleDef_orientMir_180.png","sad",1,27,27,"PuOr","orientMir","scaleDef","180",NA,NA
"","","","","","html-slider-response",76,326942,"0.0-72.0","mgya959wqr",26,NA,"<div style=""width:500px;"">
                            <p style=""font-size:50px; font-weight:bold;""
                            >sad</p>
                            <div style=""width:240px; margin: auto;"">
                                <img src=""images/map05_seismic_scaleRev_orientMir_270.png"" style= ""width:200px""alt=""img"">
                            </div>
                        </div>",0.2075,"",0,"",NA,"","images/map05_seismic_scaleRev_orientMir_270.png","sad",1,5,5,"seismic","orientMir","scaleRev","270",NA,NA
"","","","","","html-slider-response",77,328679,"0.0-73.0","mgya959wqr",26,NA,"<div style=""width:500px;"">
                            <p style=""font-size:50px; font-weight:bold;""
                            >sad</p>
                            <div style=""width:240px; margin: auto;"">
                                <img src=""images/map13_Greens_scaleRev_orientDef_270.png"" style= ""width:200px""alt=""img"">
                            </div>
                        </div>",0.1775,"",0,"",NA,"","images/map13_Greens_scaleRev_orientDef_270.png","sad",1,13,13,"Greens","orientDef","scaleRev","270",NA,NA
"","","","","","html-slider-response",78,330678,"0.0-74.0","mgya959wqr",26,NA,"<div style=""width:500px;"">
                            <p style=""font-size:50px; font-weight:bold;""
                            >sad</p>
                            <div style=""width:240px; margin: auto;"">
                                <img src=""images/map07_berlin_scaleDef_orientDef_000.png"" style= ""width:200px""alt=""img"">
                            </div>
                        </div>",0.8675,"",0,"",NA,"","images/map07_berlin_scaleDef_orientDef_000.png","sad",1,7,7,"berlin","orientDef","scaleDef","000",NA,NA
"","","","","","html-slider-response",79,332398,"0.0-75.0","mgya959wqr",26,NA,"<div style=""width:500px;"">
                            <p style=""font-size:50px; font-weight:bold;""
                            >sad</p>
                            <div style=""width:240px; margin: auto;"">
                                <img src=""images/map07_gist_earth_scaleDef_orientMir_180.png"" style= ""width:200px""alt=""img"">
                            </div>
                        </div>",0.2,"",0,"",NA,"","images/map07_gist_earth_scaleDef_orientMir_180.png","sad",1,7,7,"gist","scaleDef","earth","orientMir",NA,NA
"","","","","","html-slider-response",80,334212,"0.0-76.0","mgya959wqr",26,NA,"<div style=""width:500px;"">
                            <p style=""font-size:50px; font-weight:bold;""
                            >sad</p>
                            <div style=""width:240px; margin: auto;"">
                                <img src=""images/map10_plasma_scaleDef_orientMir_000.png"" style= ""width:200px""alt=""img"">
                            </div>
                        </div>",0.845,"",0,"",NA,"","images/map10_plasma_scaleDef_orientMir_000.png","sad",1,10,10,"plasma","orientMir","scaleDef","000",NA,NA
"","","","","","html-slider-response",81,336269,"0.0-77.0","mgya959wqr",26,NA,"<div style=""width:500px;"">
                            <p style=""font-size:50px; font-weight:bold;""
                            >sad</p>
                            <div style=""width:240px; margin: auto;"">
                                <img src=""images/map23_BuPu_scaleDef_orientDef_180.png"" style= ""width:200px""alt=""img"">
                            </div>
                        </div>",0.1325,"",0,"",NA,"","images/map23_BuPu_scaleDef_orientDef_180.png","sad",1,23,23,"BuPu","orientDef","scaleDef","180",NA,NA
"","","","","","html-slider-response",82,338108,"0.0-78.0","mgya959wqr",26,NA,"<div style=""width:500px;"">
                            <p style=""font-size:50px; font-weight:bold;""
                            >sad</p>
                            <div style=""width:240px; margin: auto;"">
                                <img src=""images/map15_OrRd_scaleRev_orientMir_090.png"" style= ""width:200px""alt=""img"">
                            </div>
                        </div>",0.9875,"",0,"",NA,"","images/map15_OrRd_scaleRev_orientMir_090.png","sad",1,15,15,"OrRd","orientMir","scaleRev","090",NA,NA
"","","","","","html-slider-response",83,340395,"0.0-79.0","mgya959wqr",26,NA,"<div style=""width:500px;"">
                            <p style=""font-size:50px; font-weight:bold;""
                            >sad</p>
                            <div style=""width:240px; margin: auto;"">
                                <img src=""images/map23_RdPu_scaleDef_orientDef_000.png"" style= ""width:200px""alt=""img"">
                            </div>
                        </div>",0.9125,"",0,"",NA,"","images/map23_RdPu_scaleDef_orientDef_000.png","sad",1,23,23,"RdPu","orientDef","scaleDef","000",NA,NA
"","","","","","html-slider-response",84,342468,"0.0-80.0","mgya959wqr",26,NA,"<div style=""width:500px;"">
                            <p style=""font-size:50px; font-weight:bold;""
                            >sad</p>
                            <div style=""width:240px; margin: auto;"">
                                <img src=""images/map26_YlGnBu_scaleRev_orientDef_090.png"" style= ""width:200px""alt=""img"">
                            </div>
                        </div>",0.085,"",0,"",NA,"","images/map26_YlGnBu_scaleRev_orientDef_090.png","sad",1,26,26,"YlGnBu","orientDef","scaleRev","090",NA,NA
"","","","","","html-slider-response",85,343662,"0.0-81.0","mgya959wqr",26,NA,"<div style=""width:500px;"">
                            <p style=""font-size:50px; font-weight:bold;""
                            >sad</p>
                            <div style=""width:240px; margin: auto;"">
                                <img src=""images/map13_Blues_scaleDef_orientDef_000.png"" style= ""width:200px""alt=""img"">
                            </div>
                        </div>",0.085,"",0,"",NA,"","images/map13_Blues_scaleDef_orientDef_000.png","sad",1,13,13,"Blues","orientDef","scaleDef","000",NA,NA
"","","","","","html-slider-response",86,346646,"0.0-82.0","mgya959wqr",26,NA,"<div style=""width:500px;"">
                            <p style=""font-size:50px; font-weight:bold;""
                            >sad</p>
                            <div style=""width:240px; margin: auto;"">
                                <img src=""images/map26_YlGnBu_scaleDef_orientDef_000.png"" style= ""width:200px""alt=""img"">
                            </div>
                        </div>",0.14,"",0,"",NA,"","images/map26_YlGnBu_scaleDef_orientDef_000.png","sad",1,26,26,"YlGnBu","orientDef","scaleDef","000",NA,NA
"","","","","","html-slider-response",87,349124,"0.0-83.0","mgya959wqr",26,NA,"<div style=""width:500px;"">
                            <p style=""font-size:50px; font-weight:bold;""
                            >sad</p>
                            <div style=""width:240px; margin: auto;"">
                                <img src=""images/map07_vanimo_scaleRev_orientMir_090.png"" style= ""width:200px""alt=""img"">
                            </div>
                        </div>",0.555,"",0,"",NA,"","images/map07_vanimo_scaleRev_orientMir_090.png","sad",1,7,7,"vanimo","orientMir","scaleRev","090",NA,NA
"","","","","","html-slider-response",88,351737,"0.0-84.0","mgya959wqr",26,NA,"<div style=""width:500px;"">
                            <p style=""font-size:50px; font-weight:bold;""
                            >sad</p>
                            <div style=""width:240px; margin: auto;"">
                                <img src=""images/map15_YlOrBr_scaleDef_orientDef_000.png"" style= ""width:200px""alt=""img"">
                            </div>
                        </div>",0.6175,"",0,"",NA,"","images/map15_YlOrBr_scaleDef_orientDef_000.png","sad",1,15,15,"YlOrBr","orientDef","scaleDef","000",NA,NA
"","","","","","html-slider-response",89,358432,"0.0-85.0","mgya959wqr",26,NA,"<div style=""width:500px;"">
                            <p style=""font-size:50px; font-weight:bold;""
                            >sad</p>
                            <div style=""width:240px; margin: auto;"">
                                <img src=""images/map12_Purples_scaleDef_orientMir_180.png"" style= ""width:200px""alt=""img"">
                            </div>
                        </div>",0.98,"",0,"",NA,"","images/map12_Purples_scaleDef_orientMir_180.png","sad",1,12,12,"Purples","orientMir","scaleDef","180",NA,NA
"","","","","","html-slider-response",90,361959,"0.0-86.0","mgya959wqr",26,NA,"<div style=""width:500px;"">
                            <p style=""font-size:50px; font-weight:bold;""
                            >sad</p>
                            <div style=""width:240px; margin: auto;"">
                                <img src=""images/map10_plasma_scaleRev_orientMir_090.png"" style= ""width:200px""alt=""img"">
                            </div>
                        </div>",0.0575,"",0,"",NA,"","images/map10_plasma_scaleRev_orientMir_090.png","sad",1,10,10,"plasma","orientMir","scaleRev","090",NA,NA
"","","","","","html-slider-response",91,363543,"0.0-87.0","mgya959wqr",26,NA,"<div style=""width:500px;"">
                            <p style=""font-size:50px; font-weight:bold;""
                            >sad</p>
                            <div style=""width:240px; margin: auto;"">
                                <img src=""images/map05_coolwarm_scaleDef_orientDef_180.png"" style= ""width:200px""alt=""img"">
                            </div>
                        </div>",0.33,"",0,"",NA,"","images/map05_coolwarm_scaleDef_orientDef_180.png","sad",1,5,5,"coolwarm","orientDef","scaleDef","180",NA,NA
"","","","","","html-slider-response",92,365293,"0.0-88.0","mgya959wqr",26,NA,"<div style=""width:500px;"">
                            <p style=""font-size:50px; font-weight:bold;""
                            >sad</p>
                            <div style=""width:240px; margin: auto;"">
                                <img src=""images/map23_PuBu_scaleRev_orientMir_270.png"" style= ""width:200px""alt=""img"">
                            </div>
                        </div>",0.7,"",0,"",NA,"","images/map23_PuBu_scaleRev_orientMir_270.png","sad",1,23,23,"PuBu","orientMir","scaleRev","270",NA,NA
"","","","","","html-slider-response",93,371872,"0.0-89.0","mgya959wqr",26,NA,"<div style=""width:500px;"">
                            <p style=""font-size:50px; font-weight:bold;""
                            >sad</p>
                            <div style=""width:240px; margin: auto;"">
                                <img src=""images/map02_RdBu_scaleDef_orientDef_180.png"" style= ""width:200px""alt=""img"">
                            </div>
                        </div>",0.7,"",0,"",NA,"","images/map02_RdBu_scaleDef_orientDef_180.png","sad",1,2,2,"RdBu","orientDef","scaleDef","180",NA,NA
"","","","","","html-slider-response",94,375434,"0.0-90.0","mgya959wqr",26,NA,"<div style=""width:500px;"">
                            <p style=""font-size:50px; font-weight:bold;""
                            >sad</p>
                            <div style=""width:240px; margin: auto;"">
                                <img src=""images/map15_PuRd_scaleRev_orientMir_270.png"" style= ""width:200px""alt=""img"">
                            </div>
                        </div>",0.0175,"",0,"",NA,"","images/map15_PuRd_scaleRev_orientMir_270.png","sad",1,15,15,"PuRd","orientMir","scaleRev","270",NA,NA
"","","","","","html-slider-response",95,378907,"0.0-91.0","mgya959wqr",26,NA,"<div style=""width:500px;"">
                            <p style=""font-size:50px; font-weight:bold;""
                            >sad</p>
                            <div style=""width:240px; margin: auto;"">
                                <img src=""images/map10_turbo_scaleRev_orientDef_090.png"" style= ""width:200px""alt=""img"">
                            </div>
                        </div>",0.505,"",0,"",NA,"","images/map10_turbo_scaleRev_orientDef_090.png","sad",1,10,10,"turbo","orientDef","scaleRev","090",NA,NA
"","","","","","html-slider-response",96,381434,"0.0-92.0","mgya959wqr",26,NA,"<div style=""width:500px;"">
                            <p style=""font-size:50px; font-weight:bold;""
                            >sad</p>
                            <div style=""width:240px; margin: auto;"">
                                <img src=""images/map26_YlGn_scaleRev_orientMir_270.png"" style= ""width:200px""alt=""img"">
                            </div>
                        </div>",0.175,"",0,"",NA,"","images/map26_YlGn_scaleRev_orientMir_270.png","sad",1,26,26,"YlGn","orientMir","scaleRev","270",NA,NA
"","","","","","html-slider-response",97,383120,"0.0-93.0","mgya959wqr",26,NA,"<div style=""width:500px;"">
                            <p style=""font-size:50px; font-weight:bold;""
                            >sad</p>
                            <div style=""width:240px; margin: auto;"">
                                <img src=""images/map23_RdPu_scaleRev_orientDef_090.png"" style= ""width:200px""alt=""img"">
                            </div>
                        </div>",0.7725,"",0,"",NA,"","images/map23_RdPu_scaleRev_orientDef_090.png","sad",1,23,23,"RdPu","orientDef","scaleRev","090",NA,NA
"","","","","","html-slider-response",98,385352,"0.0-94.0","mgya959wqr",26,NA,"<div style=""width:500px;"">
                            <p style=""font-size:50px; font-weight:bold;""
                            >sad</p>
                            <div style=""width:240px; margin: auto;"">
                                <img src=""images/map12_cividis_scaleDef_orientDef_180.png"" style= ""width:200px""alt=""img"">
                            </div>
                        </div>",1,"",0,"",NA,"","images/map12_cividis_scaleDef_orientDef_180.png","sad",1,12,12,"cividis","orientDef","scaleDef","180",NA,NA
"","","","","","html-button-response",99,393062,"0.0-95.0","mgya959wqr",26,7204,"<p>Great Job! You've finished block 1.<br></br> You have 4 block(s) left to go.<br></br></p>",0.5,"",NA,"",NA,"","","",NA,NA,NA,"","","","",NA,NA
"","","","","","html-button-response",100,394879,"0.0-96.0","mgya959wqr",26,1815,"<p>In this block of trials, you will be asked to rate how much you associate each map with:</p > <p style = 'font-size:150%; font-weight: bold'>disgust</p><br></br>",0.5,"",NA,"",NA,"","","",NA,NA,NA,"","","","",NA,NA
"","","","","","html-slider-response",101,399034,"0.0-97.0","mgya959wqr",26,NA,"<div style=""width:500px;"">
                            <p style=""font-size:50px; font-weight:bold;""
                            >disgust</p>
                            <div style=""width:240px; margin: auto;"">
                                <img src=""images/map10_inferno_scaleDef_orientMir_180.png"" style= ""width:200px""alt=""img"">
                            </div>
                        </div>",0.02,"",0,"",NA,"","images/map10_inferno_scaleDef_orientMir_180.png","disgust",1,10,10,"inferno","orientMir","scaleDef","180",NA,NA
"","","","","","html-slider-response",102,400984,"0.0-98.0","mgya959wqr",26,NA,"<div style=""width:500px;"">
                            <p style=""font-size:50px; font-weight:bold;""
                            >disgust</p>
                            <div style=""width:240px; margin: auto;"">
                                <img src=""images/map12_cividis_scaleRev_orientDef_270.png"" style= ""width:200px""alt=""img"">
                            </div>
                        </div>",0.02,"",0,"",NA,"","images/map12_cividis_scaleRev_orientDef_270.png","disgust",1,12,12,"cividis","orientDef","scaleRev","270",NA,NA
"","","","","","html-slider-response",103,404638,"0.0-99.0","mgya959wqr",26,NA,"<div style=""width:500px;"">
                            <p style=""font-size:50px; font-weight:bold;""
                            >disgust</p>
                            <div style=""width:240px; margin: auto;"">
                                <img src=""images/map07_vanimo_scaleDef_orientMir_000.png"" style= ""width:200px""alt=""img"">
                            </div>
                        </div>",0.985,"",0,"",NA,"","images/map07_vanimo_scaleDef_orientMir_000.png","disgust",1,7,7,"vanimo","orientMir","scaleDef","000",NA,NA
"","","","","","html-slider-response",104,407422,"0.0-100.0","mgya959wqr",26,NA,"<div style=""width:500px;"">
                            <p style=""font-size:50px; font-weight:bold;""
                            >disgust</p>
                            <div style=""width:240px; margin: auto;"">
                                <img src=""images/map23_PuBu_scaleDef_orientMir_180.png"" style= ""width:200px""alt=""img"">
                            </div>
                        </div>",0.045,"",0,"",NA,"","images/map23_PuBu_scaleDef_orientMir_180.png","disgust",1,23,23,"PuBu","orientMir","scaleDef","180",NA,NA
"","","","","","html-slider-response",105,409838,"0.0-101.0","mgya959wqr",26,NA,"<div style=""width:500px;"">
                            <p style=""font-size:50px; font-weight:bold;""
                            >disgust</p>
                            <div style=""width:240px; margin: auto;"">
                                <img src=""images/map13_Greens_scaleRev_orientDef_270.png"" style= ""width:200px""alt=""img"">
                            </div>
                        </div>",0.0125,"",0,"",NA,"","images/map13_Greens_scaleRev_orientDef_270.png","disgust",1,13,13,"Greens","orientDef","scaleRev","270",NA,NA
"","","","","","html-slider-response",106,411010,"0.0-102.0","mgya959wqr",26,NA,"<div style=""width:500px;"">
                            <p style=""font-size:50px; font-weight:bold;""
                            >disgust</p>
                            <div style=""width:240px; margin: auto;"">
                                <img src=""images/map13_Blues_scaleRev_orientDef_090.png"" style= ""width:200px""alt=""img"">
                            </div>
                        </div>",0.0125,"",0,"",NA,"","images/map13_Blues_scaleRev_orientDef_090.png","disgust",1,13,13,"Blues","orientDef","scaleRev","090",NA,NA
"","","","","","html-slider-response",107,413530,"0.0-103.0","mgya959wqr",26,NA,"<div style=""width:500px;"">
                            <p style=""font-size:50px; font-weight:bold;""
                            >disgust</p>
                            <div style=""width:240px; margin: auto;"">
                                <img src=""images/map27_PRGn_scaleRev_orientDef_270.png"" style= ""width:200px""alt=""img"">
                            </div>
                        </div>",0.9875,"",0,"",NA,"","images/map27_PRGn_scaleRev_orientDef_270.png","disgust",1,27,27,"PRGn","orientDef","scaleRev","270",NA,NA
"","","","","","html-slider-response",108,415572,"0.0-104.0","mgya959wqr",26,NA,"<div style=""width:500px;"">
                            <p style=""font-size:50px; font-weight:bold;""
                            >disgust</p>
                            <div style=""width:240px; margin: auto;"">
                                <img src=""images/map23_BuPu_scaleDef_orientDef_180.png"" style= ""width:200px""alt=""img"">
                            </div>
                        </div>",0.02,"",0,"",NA,"","images/map23_BuPu_scaleDef_orientDef_180.png","disgust",1,23,23,"BuPu","orientDef","scaleDef","180",NA,NA
"","","","","","html-slider-response",109,416670,"0.0-105.0","mgya959wqr",26,NA,"<div style=""width:500px;"">
                            <p style=""font-size:50px; font-weight:bold;""
                            >disgust</p>
                            <div style=""width:240px; margin: auto;"">
                                <img src=""images/map13_Blues_scaleDef_orientDef_000.png"" style= ""width:200px""alt=""img"">
                            </div>
                        </div>",0.02,"",0,"",NA,"","images/map13_Blues_scaleDef_orientDef_000.png","disgust",1,13,13,"Blues","orientDef","scaleDef","000",NA,NA
"","","","","","html-slider-response",110,421285,"0.0-106.0","mgya959wqr",26,NA,"<div style=""width:500px;"">
                            <p style=""font-size:50px; font-weight:bold;""
                            >disgust</p>
                            <div style=""width:240px; margin: auto;"">
                                <img src=""images/map02_RdGy_scaleDef_orientDef_000.png"" style= ""width:200px""alt=""img"">
                            </div>
                        </div>",0.7425,"",0,"",NA,"","images/map02_RdGy_scaleDef_orientDef_000.png","disgust",1,2,2,"RdGy","orientDef","scaleDef","000",NA,NA
"","","","","","html-slider-response",111,423658,"0.0-107.0","mgya959wqr",26,NA,"<div style=""width:500px;"">
                            <p style=""font-size:50px; font-weight:bold;""
                            >disgust</p>
                            <div style=""width:240px; margin: auto;"">
                                <img src=""images/map07_vanimo_scaleRev_orientMir_090.png"" style= ""width:200px""alt=""img"">
                            </div>
                        </div>",0.99,"",0,"",NA,"","images/map07_vanimo_scaleRev_orientMir_090.png","disgust",1,7,7,"vanimo","orientMir","scaleRev","090",NA,NA
"","","","","","html-slider-response",112,425815,"0.0-108.0","mgya959wqr",26,NA,"<div style=""width:500px;"">
                            <p style=""font-size:50px; font-weight:bold;""
                            >disgust</p>
                            <div style=""width:240px; margin: auto;"">
                                <img src=""images/map12_Purples_scaleRev_orientMir_270.png"" style= ""width:200px""alt=""img"">
                            </div>
                        </div>",0.0175,"",0,"",NA,"","images/map12_Purples_scaleRev_orientMir_270.png","disgust",1,12,12,"Purples","orientMir","scaleRev","270",NA,NA
"","","","","","html-slider-response",113,427115,"0.0-109.0","mgya959wqr",26,NA,"<div style=""width:500px;"">
                            <p style=""font-size:50px; font-weight:bold;""
                            >disgust</p>
                            <div style=""width:240px; margin: auto;"">
                                <img src=""images/map23_PuBu_scaleRev_orientMir_270.png"" style= ""width:200px""alt=""img"">
                            </div>
                        </div>",0.0175,"",0,"",NA,"","images/map23_PuBu_scaleRev_orientMir_270.png","disgust",1,23,23,"PuBu","orientMir","scaleRev","270",NA,NA
"","","","","","html-slider-response",114,428171,"0.0-110.0","mgya959wqr",26,NA,"<div style=""width:500px;"">
                            <p style=""font-size:50px; font-weight:bold;""
                            >disgust</p>
                            <div style=""width:240px; margin: auto;"">
                                <img src=""images/map13_Oranges_scaleDef_orientMir_000.png"" style= ""width:200px""alt=""img"">
                            </div>
                        </div>",0.0175,"",0,"",NA,"","images/map13_Oranges_scaleDef_orientMir_000.png","disgust",1,13,13,"Oranges","orientMir","scaleDef","000",NA,NA
"","","","","","html-slider-response",115,431598,"0.0-111.0","mgya959wqr",26,NA,"<div style=""width:500px;"">
                            <p style=""font-size:50px; font-weight:bold;""
                            >disgust</p>
                            <div style=""width:240px; margin: auto;"">
                                <img src=""images/map05_coolwarm_scaleRev_orientDef_270.png"" style= ""width:200px""alt=""img"">
                            </div>
                        </div>",0.84,"",0,"",NA,"","images/map05_coolwarm_scaleRev_orientDef_270.png","disgust",1,5,5,"coolwarm","orientDef","scaleRev","270",NA,NA
"","","","","","html-slider-response",116,433662,"0.0-112.0","mgya959wqr",26,NA,"<div style=""width:500px;"">
                            <p style=""font-size:50px; font-weight:bold;""
                            >disgust</p>
                            <div style=""width:240px; margin: auto;"">
                                <img src=""images/map15_OrRd_scaleRev_orientMir_090.png"" style= ""width:200px""alt=""img"">
                            </div>
                        </div>",0.03,"",0,"",NA,"","images/map15_OrRd_scaleRev_orientMir_090.png","disgust",1,15,15,"OrRd","orientMir","scaleRev","090",NA,NA
"","","","","","html-slider-response",117,436743,"0.0-113.0","mgya959wqr",26,NA,"<div style=""width:500px;"">
                            <p style=""font-size:50px; font-weight:bold;""
                            >disgust</p>
                            <div style=""width:240px; margin: auto;"">
                                <img src=""images/map05_seismic_scaleRev_orientMir_270.png"" style= ""width:200px""alt=""img"">
                            </div>
                        </div>",0.865,"",0,"",NA,"","images/map05_seismic_scaleRev_orientMir_270.png","disgust",1,5,5,"seismic","orientMir","scaleRev","270",NA,NA
"","","","","","html-slider-response",118,439488,"0.0-114.0","mgya959wqr",26,NA,"<div style=""width:500px;"">
                            <p style=""font-size:50px; font-weight:bold;""
                            >disgust</p>
                            <div style=""width:240px; margin: auto;"">
                                <img src=""images/map13_Greens_scaleDef_orientDef_180.png"" style= ""width:200px""alt=""img"">
                            </div>
                        </div>",0.02,"",0,"",NA,"","images/map13_Greens_scaleDef_orientDef_180.png","disgust",1,13,13,"Greens","orientDef","scaleDef","180",NA,NA
"","","","","","html-slider-response",119,442341,"0.0-115.0","mgya959wqr",26,NA,"<div style=""width:500px;"">
                            <p style=""font-size:50px; font-weight:bold;""
                            >disgust</p>
                            <div style=""width:240px; margin: auto;"">
                                <img src=""images/map13_Reds_scaleRev_orientMir_270.png"" style= ""width:200px""alt=""img"">
                            </div>
                        </div>",0.02,"",0,"",NA,"","images/map13_Reds_scaleRev_orientMir_270.png","disgust",1,13,13,"Reds","orientMir","scaleRev","270",NA,NA
"","","","","","html-slider-response",120,444723,"0.0-116.0","mgya959wqr",26,NA,"<div style=""width:500px;"">
                            <p style=""font-size:50px; font-weight:bold;""
                            >disgust</p>
                            <div style=""width:240px; margin: auto;"">
                                <img src=""images/map05_bwr_scaleRev_orientMir_090.png"" style= ""width:200px""alt=""img"">
                            </div>
                        </div>",0.78,"",0,"",NA,"","images/map05_bwr_scaleRev_orientMir_090.png","disgust",1,5,5,"bwr","orientMir","scaleRev","090",NA,NA
"","","","","","html-slider-response",121,446967,"0.0-117.0","mgya959wqr",26,NA,"<div style=""width:500px;"">
                            <p style=""font-size:50px; font-weight:bold;""
                            >disgust</p>
                            <div style=""width:240px; margin: auto;"">
                                <img src=""images/map12_Greys_scaleRev_orientMir_090.png"" style= ""width:200px""alt=""img"">
                            </div>
                        </div>",0.015,"",0,"",NA,"","images/map12_Greys_scaleRev_orientMir_090.png","disgust",1,12,12,"Greys","orientMir","scaleRev","090",NA,NA
"","","","","","html-slider-response",122,449793,"0.0-118.0","mgya959wqr",26,NA,"<div style=""width:500px;"">
                            <p style=""font-size:50px; font-weight:bold;""
                            >disgust</p>
                            <div style=""width:240px; margin: auto;"">
                                <img src=""images/map07_berlin_scaleRev_orientDef_090.png"" style= ""width:200px""alt=""img"">
                            </div>
                        </div>",0.9925,"",0,"",NA,"","images/map07_berlin_scaleRev_orientDef_090.png","disgust",1,7,7,"berlin","orientDef","scaleRev","090",NA,NA
"","","","","","html-slider-response",123,452967,"0.0-119.0","mgya959wqr",26,NA,"<div style=""width:500px;"">
                            <p style=""font-size:50px; font-weight:bold;""
                            >disgust</p>
                            <div style=""width:240px; margin: auto;"">
                                <img src=""images/map13_Oranges_scaleRev_orientMir_090.png"" style= ""width:200px""alt=""img"">
                            </div>
                        </div>",0.015,"",0,"",NA,"","images/map13_Oranges_scaleRev_orientMir_090.png","disgust",1,13,13,"Oranges","orientMir","scaleRev","090",NA,NA
"","","","","","html-slider-response",124,454251,"0.0-120.0","mgya959wqr",26,NA,"<div style=""width:500px;"">
                            <p style=""font-size:50px; font-weight:bold;""
                            >disgust</p>
                            <div style=""width:240px; margin: auto;"">
                                <img src=""images/map23_RdPu_scaleRev_orientDef_090.png"" style= ""width:200px""alt=""img"">
                            </div>
                        </div>",0.015,"",0,"",NA,"","images/map23_RdPu_scaleRev_orientDef_090.png","disgust",1,23,23,"RdPu","orientDef","scaleRev","090",NA,NA
"","","","","","html-slider-response",125,455799,"0.0-121.0","mgya959wqr",26,NA,"<div style=""width:500px;"">
                            <p style=""font-size:50px; font-weight:bold;""
                            >disgust</p>
                            <div style=""width:240px; margin: auto;"">
                                <img src=""images/map07_gist_earth_scaleRev_orientMir_270.png"" style= ""width:200px""alt=""img"">
                            </div>
                        </div>",0.005,"",0,"",NA,"","images/map07_gist_earth_scaleRev_orientMir_270.png","disgust",1,7,7,"gist","scaleRev","earth","orientMir",NA,NA
"","","","","","html-slider-response",126,458902,"0.0-122.0","mgya959wqr",26,NA,"<div style=""width:500px;"">
                            <p style=""font-size:50px; font-weight:bold;""
                            >disgust</p>
                            <div style=""width:240px; margin: auto;"">
                                <img src=""images/map10_plasma_scaleDef_orientMir_000.png"" style= ""width:200px""alt=""img"">
                            </div>
                        </div>",0.005,"",0,"",NA,"","images/map10_plasma_scaleDef_orientMir_000.png","disgust",1,10,10,"plasma","orientMir","scaleDef","000",NA,NA
"","","","","","html-slider-response",127,465728,"0.0-123.0","mgya959wqr",26,NA,"<div style=""width:500px;"">
                            <p style=""font-size:50px; font-weight:bold;""
                            >disgust</p>
                            <div style=""width:240px; margin: auto;"">
                                <img src=""images/map27_PiYG_scaleDef_orientDef_000.png"" style= ""width:200px""alt=""img"">
                            </div>
                        </div>",0.9925,"",0,"",NA,"","images/map27_PiYG_scaleDef_orientDef_000.png","disgust",1,27,27,"PiYG","orientDef","scaleDef","000",NA,NA
"","","","","","html-slider-response",128,467791,"0.0-124.0","mgya959wqr",26,NA,"<div style=""width:500px;"">
                            <p style=""font-size:50px; font-weight:bold;""
                            >disgust</p>
                            <div style=""width:240px; margin: auto;"">
                                <img src=""images/map15_YlOrBr_scaleDef_orientDef_000.png"" style= ""width:200px""alt=""img"">
                            </div>
                        </div>",0.015,"",0,"",NA,"","images/map15_YlOrBr_scaleDef_orientDef_000.png","disgust",1,15,15,"YlOrBr","orientDef","scaleDef","000",NA,NA
"","","","","","html-slider-response",129,469558,"0.0-125.0","mgya959wqr",26,NA,"<div style=""width:500px;"">
                            <p style=""font-size:50px; font-weight:bold;""
                            >disgust</p>
                            <div style=""width:240px; margin: auto;"">
                                <img src=""images/map12_magma_scaleDef_orientDef_000.png"" style= ""width:200px""alt=""img"">
                            </div>
                        </div>",0.015,"",0,"",NA,"","images/map12_magma_scaleDef_orientDef_000.png","disgust",1,12,12,"magma","orientDef","scaleDef","000",NA,NA
"","","","","","html-slider-response",130,470753,"0.0-126.0","mgya959wqr",26,NA,"<div style=""width:500px;"">
                            <p style=""font-size:50px; font-weight:bold;""
                            >disgust</p>
                            <div style=""width:240px; margin: auto;"">
                                <img src=""images/map23_GnBu_scaleRev_orientMir_090.png"" style= ""width:200px""alt=""img"">
                            </div>
                        </div>",0.015,"",0,"",NA,"","images/map23_GnBu_scaleRev_orientMir_090.png","disgust",1,23,23,"GnBu","orientMir","scaleRev","090",NA,NA
"","","","","","html-slider-response",131,473041,"0.0-127.0","mgya959wqr",26,NA,"<div style=""width:500px;"">
                            <p style=""font-size:50px; font-weight:bold;""
                            >disgust</p>
                            <div style=""width:240px; margin: auto;"">
                                <img src=""images/map27_PRGn_scaleDef_orientDef_180.png"" style= ""width:200px""alt=""img"">
                            </div>
                        </div>",0.9925,"",0,"",NA,"","images/map27_PRGn_scaleDef_orientDef_180.png","disgust",1,27,27,"PRGn","orientDef","scaleDef","180",NA,NA
"","","","","","html-slider-response",132,475704,"0.0-128.0","mgya959wqr",26,NA,"<div style=""width:500px;"">
                            <p style=""font-size:50px; font-weight:bold;""
                            >disgust</p>
                            <div style=""width:240px; margin: auto;"">
                                <img src=""images/map15_PuRd_scaleRev_orientMir_270.png"" style= ""width:200px""alt=""img"">
                            </div>
                        </div>",0.025,"",0,"",NA,"","images/map15_PuRd_scaleRev_orientMir_270.png","disgust",1,15,15,"PuRd","orientMir","scaleRev","270",NA,NA
"","","","","","html-slider-response",133,476767,"0.0-129.0","mgya959wqr",26,NA,"<div style=""width:500px;"">
                            <p style=""font-size:50px; font-weight:bold;""
                            >disgust</p>
                            <div style=""width:240px; margin: auto;"">
                                <img src=""images/map26_PuBuGn_scaleRev_orientDef_270.png"" style= ""width:200px""alt=""img"">
                            </div>
                        </div>",0.025,"",0,"",NA,"","images/map26_PuBuGn_scaleRev_orientDef_270.png","disgust",1,26,26,"PuBuGn","orientDef","scaleRev","270",NA,NA
"","","","","","html-slider-response",134,477830,"0.0-130.0","mgya959wqr",26,NA,"<div style=""width:500px;"">
                            <p style=""font-size:50px; font-weight:bold;""
                            >disgust</p>
                            <div style=""width:240px; margin: auto;"">
                                <img src=""images/map13_Reds_scaleDef_orientMir_180.png"" style= ""width:200px""alt=""img"">
                            </div>
                        </div>",0.025,"",0,"",NA,"","images/map13_Reds_scaleDef_orientMir_180.png","disgust",1,13,13,"Reds","orientMir","scaleDef","180",NA,NA
"","","","","","html-slider-response",135,480304,"0.0-131.0","mgya959wqr",26,NA,"<div style=""width:500px;"">
                            <p style=""font-size:50px; font-weight:bold;""
                            >disgust</p>
                            <div style=""width:240px; margin: auto;"">
                                <img src=""images/map05_coolwarm_scaleDef_orientDef_180.png"" style= ""width:200px""alt=""img"">
                            </div>
                        </div>",0.9875,"",0,"",NA,"","images/map05_coolwarm_scaleDef_orientDef_180.png","disgust",1,5,5,"coolwarm","orientDef","scaleDef","180",NA,NA
"","","","","","html-slider-response",136,483960,"0.0-132.0","mgya959wqr",26,NA,"<div style=""width:500px;"">
                            <p style=""font-size:50px; font-weight:bold;""
                            >disgust</p>
                            <div style=""width:240px; margin: auto;"">
                                <img src=""images/map07_managua_scaleDef_orientDef_180.png"" style= ""width:200px""alt=""img"">
                            </div>
                        </div>",0.995,"",0,"",NA,"","images/map07_managua_scaleDef_orientDef_180.png","disgust",1,7,7,"managua","orientDef","scaleDef","180",NA,NA
"","","","","","html-slider-response",137,485169,"0.0-133.0","mgya959wqr",26,NA,"<div style=""width:500px;"">
                            <p style=""font-size:50px; font-weight:bold;""
                            >disgust</p>
                            <div style=""width:240px; margin: auto;"">
                                <img src=""images/map27_PuOr_scaleDef_orientMir_180.png"" style= ""width:200px""alt=""img"">
                            </div>
                        </div>",0.995,"",0,"",NA,"","images/map27_PuOr_scaleDef_orientMir_180.png","disgust",1,27,27,"PuOr","orientMir","scaleDef","180",NA,NA
"","","","","","html-slider-response",138,486189,"0.0-134.0","mgya959wqr",26,NA,"<div style=""width:500px;"">
                            <p style=""font-size:50px; font-weight:bold;""
                            >disgust</p>
                            <div style=""width:240px; margin: auto;"">
                                <img src=""images/map05_Spectral_scaleRev_orientDef_090.png"" style= ""width:200px""alt=""img"">
                            </div>
                        </div>",0.995,"",0,"",NA,"","images/map05_Spectral_scaleRev_orientDef_090.png","disgust",1,5,5,"Spectral","orientDef","scaleRev","090",NA,NA
"","","","","","html-slider-response",139,488814,"0.0-135.0","mgya959wqr",26,NA,"<div style=""width:500px;"">
                            <p style=""font-size:50px; font-weight:bold;""
                            >disgust</p>
                            <div style=""width:240px; margin: auto;"">
                                <img src=""images/map15_YlOrRd_scaleRev_orientDef_270.png"" style= ""width:200px""alt=""img"">
                            </div>
                        </div>",0.005,"",0,"",NA,"","images/map15_YlOrRd_scaleRev_orientDef_270.png","disgust",1,15,15,"YlOrRd","orientDef","scaleRev","270",NA,NA
"","","","","","html-slider-response",140,491646,"0.0-136.0","mgya959wqr",26,NA,"<div style=""width:500px;"">
                            <p style=""font-size:50px; font-weight:bold;""
                            >disgust</p>
                            <div style=""width:240px; margin: auto;"">
                                <img src=""images/map05_Spectral_scaleDef_orientDef_000.png"" style= ""width:200px""alt=""img"">
                            </div>
                        </div>",0.9925,"",0,"",NA,"","images/map05_Spectral_scaleDef_orientDef_000.png","disgust",1,5,5,"Spectral","orientDef","scaleDef","000",NA,NA
"","","","","","html-button-response",141,494982,"0.0-137.0","mgya959wqr",26,2826,"<p>You are doing great!<br></br> You are halway done with the current block. When you are ready to continue, click the 'Continue' button.</p>",0.5,"",NA,"",NA,"","","",NA,NA,NA,"","","","",NA,NA
"","","","","","html-slider-response",142,496812,"0.0-138.0","mgya959wqr",26,NA,"<div style=""width:500px;"">
                            <p style=""font-size:50px; font-weight:bold;""
                            >disgust</p>
                            <div style=""width:240px; margin: auto;"">
                                <img src=""images/map27_BrBG_scaleDef_orientMir_000.png"" style= ""width:200px""alt=""img"">
                            </div>
                        </div>",0.765,"",0,"",NA,"","images/map27_BrBG_scaleDef_orientMir_000.png","disgust",1,27,27,"BrBG","orientMir","scaleDef","000",NA,NA
"","","","","","html-slider-response",143,498845,"0.0-139.0","mgya959wqr",26,NA,"<div style=""width:500px;"">
                            <p style=""font-size:50px; font-weight:bold;""
                            >disgust</p>
                            <div style=""width:240px; margin: auto;"">
                                <img src=""images/map26_BuGn_scaleRev_orientMir_090.png"" style= ""width:200px""alt=""img"">
                            </div>
                        </div>",0.02,"",0,"",NA,"","images/map26_BuGn_scaleRev_orientMir_090.png","disgust",1,26,26,"BuGn","orientMir","scaleRev","090",NA,NA
"","","","","","html-slider-response",144,500019,"0.0-140.0","mgya959wqr",26,NA,"<div style=""width:500px;"">
                            <p style=""font-size:50px; font-weight:bold;""
                            >disgust</p>
                            <div style=""width:240px; margin: auto;"">
                                <img src=""images/map23_GnBu_scaleDef_orientMir_000.png"" style= ""width:200px""alt=""img"">
                            </div>
                        </div>",0.02,"",0,"",NA,"","images/map23_GnBu_scaleDef_orientMir_000.png","disgust",1,23,23,"GnBu","orientMir","scaleDef","000",NA,NA
"","","","","","html-slider-response",145,501499,"0.0-141.0","mgya959wqr",26,NA,"<div style=""width:500px;"">
                            <p style=""font-size:50px; font-weight:bold;""
                            >disgust</p>
                            <div style=""width:240px; margin: auto;"">
                                <img src=""images/map10_turbo_scaleDef_orientDef_000.png"" style= ""width:200px""alt=""img"">
                            </div>
                        </div>",0.02,"",0,"",NA,"","images/map10_turbo_scaleDef_orientDef_000.png","disgust",1,10,10,"turbo","orientDef","scaleDef","000",NA,NA
"","","","","","html-slider-response",146,502549,"0.0-142.0","mgya959wqr",26,NA,"<div style=""width:500px;"">
                            <p style=""font-size:50px; font-weight:bold;""
                            >disgust</p>
                            <div style=""width:240px; margin: auto;"">
                                <img src=""images/map10_plasma_scaleRev_orientMir_090.png"" style= ""width:200px""alt=""img"">
                            </div>
                        </div>",0.02,"",0,"",NA,"","images/map10_plasma_scaleRev_orientMir_090.png","disgust",1,10,10,"plasma","orientMir","scaleRev","090",NA,NA
"","","","","","html-slider-response",147,503793,"0.0-143.0","mgya959wqr",26,NA,"<div style=""width:500px;"">
                            <p style=""font-size:50px; font-weight:bold;""
                            >disgust</p>
                            <div style=""width:240px; margin: auto;"">
                                <img src=""images/map10_viridis_scaleRev_orientDef_270.png"" style= ""width:200px""alt=""img"">
                            </div>
                        </div>",0.02,"",0,"",NA,"","images/map10_viridis_scaleRev_orientDef_270.png","disgust",1,10,10,"viridis","orientDef","scaleRev","270",NA,NA
"","","","","","html-slider-response",148,504833,"0.0-144.0","mgya959wqr",26,NA,"<div style=""width:500px;"">
                            <p style=""font-size:50px; font-weight:bold;""
                            >disgust</p>
                            <div style=""width:240px; margin: auto;"">
                                <img src=""images/map15_PuRd_scaleDef_orientMir_180.png"" style= ""width:200px""alt=""img"">
                            </div>
                        </div>",0.02,"",0,"",NA,"","images/map15_PuRd_scaleDef_orientMir_180.png","disgust",1,15,15,"PuRd","orientMir","scaleDef","180",NA,NA
"","","","","","html-slider-response",149,506864,"0.0-145.0","mgya959wqr",26,NA,"<div style=""width:500px;"">
                            <p style=""font-size:50px; font-weight:bold;""
                            >disgust</p>
                            <div style=""width:240px; margin: auto;"">
                                <img src=""images/map05_bwr_scaleDef_orientMir_000.png"" style= ""width:200px""alt=""img"">
                            </div>
                        </div>",0.77,"",0,"",NA,"","images/map05_bwr_scaleDef_orientMir_000.png","disgust",1,5,5,"bwr","orientMir","scaleDef","000",NA,NA
"","","","","","html-slider-response",150,508559,"0.0-146.0","mgya959wqr",26,NA,"<div style=""width:500px;"">
                            <p style=""font-size:50px; font-weight:bold;""
                            >disgust</p>
                            <div style=""width:240px; margin: auto;"">
                                <img src=""images/map02_RdYlGn_scaleDef_orientMir_180.png"" style= ""width:200px""alt=""img"">
                            </div>
                        </div>",0.835,"",0,"",NA,"","images/map02_RdYlGn_scaleDef_orientMir_180.png","disgust",1,2,2,"RdYlGn","orientMir","scaleDef","180",NA,NA
"","","","","","html-slider-response",151,511052,"0.0-147.0","mgya959wqr",26,NA,"<div style=""width:500px;"">
                            <p style=""font-size:50px; font-weight:bold;""
                            >disgust</p>
                            <div style=""width:240px; margin: auto;"">
                                <img src=""images/map27_PiYG_scaleRev_orientDef_090.png"" style= ""width:200px""alt=""img"">
                            </div>
                        </div>",0.9875,"",0,"",NA,"","images/map27_PiYG_scaleRev_orientDef_090.png","disgust",1,27,27,"PiYG","orientDef","scaleRev","090",NA,NA
"","","","","","html-slider-response",152,517124,"0.0-148.0","mgya959wqr",26,NA,"<div style=""width:500px;"">
                            <p style=""font-size:50px; font-weight:bold;""
                            >disgust</p>
                            <div style=""width:240px; margin: auto;"">
                                <img src=""images/map15_YlOrBr_scaleRev_orientDef_090.png"" style= ""width:200px""alt=""img"">
                            </div>
                        </div>",0.025,"",0,"",NA,"","images/map15_YlOrBr_scaleRev_orientDef_090.png","disgust",1,15,15,"YlOrBr","orientDef","scaleRev","090",NA,NA
"","","","","","html-slider-response",153,520287,"0.0-149.0","mgya959wqr",26,NA,"<div style=""width:500px;"">
                            <p style=""font-size:50px; font-weight:bold;""
                            >disgust</p>
                            <div style=""width:240px; margin: auto;"">
                                <img src=""images/map02_RdYlBu_scaleDef_orientMir_000.png"" style= ""width:200px""alt=""img"">
                            </div>
                        </div>",0.8875,"",0,"",NA,"","images/map02_RdYlBu_scaleDef_orientMir_000.png","disgust",1,2,2,"RdYlBu","orientMir","scaleDef","000",NA,NA
"","","","","","html-slider-response",154,521341,"0.0-150.0","mgya959wqr",26,NA,"<div style=""width:500px;"">
                            <p style=""font-size:50px; font-weight:bold;""
                            >disgust</p>
                            <div style=""width:240px; margin: auto;"">
                                <img src=""images/map02_RdBu_scaleRev_orientDef_270.png"" style= ""width:200px""alt=""img"">
                            </div>
                        </div>",0.8875,"",0,"",NA,"","images/map02_RdBu_scaleRev_orientDef_270.png","disgust",1,2,2,"RdBu","orientDef","scaleRev","270",NA,NA
"","","","","","html-slider-response",155,524625,"0.0-151.0","mgya959wqr",26,NA,"<div style=""width:500px;"">
                            <p style=""font-size:50px; font-weight:bold;""
                            >disgust</p>
                            <div style=""width:240px; margin: auto;"">
                                <img src=""images/map15_YlOrRd_scaleDef_orientDef_180.png"" style= ""width:200px""alt=""img"">
                            </div>
                        </div>",0.0075,"",0,"",NA,"","images/map15_YlOrRd_scaleDef_orientDef_180.png","disgust",1,15,15,"YlOrRd","orientDef","scaleDef","180",NA,NA
"","","","","","html-slider-response",156,525675,"0.0-152.0","mgya959wqr",26,NA,"<div style=""width:500px;"">
                            <p style=""font-size:50px; font-weight:bold;""
                            >disgust</p>
                            <div style=""width:240px; margin: auto;"">
                                <img src=""images/map12_Greys_scaleDef_orientMir_000.png"" style= ""width:200px""alt=""img"">
                            </div>
                        </div>",0.0075,"",0,"",NA,"","images/map12_Greys_scaleDef_orientMir_000.png","disgust",1,12,12,"Greys","orientMir","scaleDef","000",NA,NA
"","","","","","html-slider-response",157,526951,"0.0-153.0","mgya959wqr",26,NA,"<div style=""width:500px;"">
                            <p style=""font-size:50px; font-weight:bold;""
                            >disgust</p>
                            <div style=""width:240px; margin: auto;"">
                                <img src=""images/map26_YlGn_scaleDef_orientMir_180.png"" style= ""width:200px""alt=""img"">
                            </div>
                        </div>",0.0075,"",0,"",NA,"","images/map26_YlGn_scaleDef_orientMir_180.png","disgust",1,26,26,"YlGn","orientMir","scaleDef","180",NA,NA
"","","","","","html-slider-response",158,527858,"0.0-154.0","mgya959wqr",26,NA,"<div style=""width:500px;"">
                            <p style=""font-size:50px; font-weight:bold;""
                            >disgust</p>
                            <div style=""width:240px; margin: auto;"">
                                <img src=""images/map12_cividis_scaleDef_orientDef_180.png"" style= ""width:200px""alt=""img"">
                            </div>
                        </div>",0.0075,"",0,"",NA,"","images/map12_cividis_scaleDef_orientDef_180.png","disgust",1,12,12,"cividis","orientDef","scaleDef","180",NA,NA
"","","","","","html-slider-response",159,529966,"0.0-155.0","mgya959wqr",26,NA,"<div style=""width:500px;"">
                            <p style=""font-size:50px; font-weight:bold;""
                            >disgust</p>
                            <div style=""width:240px; margin: auto;"">
                                <img src=""images/map07_gist_earth_scaleDef_orientMir_180.png"" style= ""width:200px""alt=""img"">
                            </div>
                        </div>",0.0075,"",0,"",NA,"","images/map07_gist_earth_scaleDef_orientMir_180.png","disgust",1,7,7,"gist","scaleDef","earth","orientMir",NA,NA
"","","","","","html-slider-response",160,531083,"0.0-156.0","mgya959wqr",26,NA,"<div style=""width:500px;"">
                            <p style=""font-size:50px; font-weight:bold;""
                            >disgust</p>
                            <div style=""width:240px; margin: auto;"">
                                <img src=""images/map12_Purples_scaleDef_orientMir_180.png"" style= ""width:200px""alt=""img"">
                            </div>
                        </div>",0.0075,"",0,"",NA,"","images/map12_Purples_scaleDef_orientMir_180.png","disgust",1,12,12,"Purples","orientMir","scaleDef","180",NA,NA
"","","","","","html-slider-response",161,533795,"0.0-157.0","mgya959wqr",26,NA,"<div style=""width:500px;"">
                            <p style=""font-size:50px; font-weight:bold;""
                            >disgust</p>
                            <div style=""width:240px; margin: auto;"">
                                <img src=""images/map27_PuOr_scaleRev_orientMir_270.png"" style= ""width:200px""alt=""img"">
                            </div>
                        </div>",0.985,"",0,"",NA,"","images/map27_PuOr_scaleRev_orientMir_270.png","disgust",1,27,27,"PuOr","orientMir","scaleRev","270",NA,NA
"","","","","","html-slider-response",162,535668,"0.0-158.0","mgya959wqr",26,NA,"<div style=""width:500px;"">
                            <p style=""font-size:50px; font-weight:bold;""
                            >disgust</p>
                            <div style=""width:240px; margin: auto;"">
                                <img src=""images/map15_OrRd_scaleDef_orientMir_000.png"" style= ""width:200px""alt=""img"">
                            </div>
                        </div>",0.0225,"",0,"",NA,"","images/map15_OrRd_scaleDef_orientMir_000.png","disgust",1,15,15,"OrRd","orientMir","scaleDef","000",NA,NA
