"success","timeout","failed_images","failed_audio","failed_video","trial_type","trial_index","time_elapsed","internal_node_id","subject_id","condition_num","rt","stimulus","response","question_order","slider_start","practiceTrial","practiceTrialNum","correct","image_path","concept","repetition","map_id","map_num","scale_name","orientation_code","mapping_code","rotation_code","ishihara_plate","correct_response"
"true","false","[]","[]","[]","preload",0,518,"0.0-0.0","eyafc613q4",46,NA,"",NA,"",NA,"",NA,"","","",NA,NA,NA,"","","","",NA,NA
"","","","","","html-button-response",1,7854,"0.0-1.0","eyafc613q4",46,7333,"Welcome to our experiment!<p>At the bottom of this screen, you will see a button that says ""Begin Experiment"".<br>Please only click that button when you are ready to complete the 30 minute experiment in one sitting.</p><p> Once you click that button, it will not be possible to restart the experiment.",0.5,"",NA,"",NA,"","","",NA,NA,NA,"","","","",NA,NA
"true","","","","","fullscreen",2,11321,"0.0-2.0","eyafc613q4",46,2463,"",NA,"",NA,"",NA,"","","",NA,NA,NA,"","","","",NA,NA
"","","","","","survey-multi-select",3,91287,"0.0-3.0","eyafc613q4",46,79960,"",NA,"[0]",NA,"",NA,"","","",NA,NA,NA,"","","","",NA,NA
"","","","","","html-button-response",4,94802,"0.0-4.0","eyafc613q4",46,3514,"Welcome! <p> This experiment involves two parts: demographic information, followed by the experimental task.<p> It will take about 30 minutes to complete both parts.",0.5,"",NA,"",NA,"","","",NA,NA,NA,"","","","",NA,NA
"","","","","","survey-text",5,109422,"0.0-5.0","eyafc613q4",46,14605,"",NA,"",NA,"",NA,"","","",NA,NA,NA,"","","","",NA,NA
"","","","","","html-slider-response",6,176702,"0.0-6.0","eyafc613q4",46,67277,"<div style='text-align:left; font-size:20px; line-height:25px; width: 1000px;'>
                                During this experiment you will be asked to rate how much you associate maps with                    different concepts.<br> Below, you can see some examples of the maps you will be asked to rate. Above the maps
                    is the list of concepts.<br>You will be asked                    to rate how much you associate each map with each concept on a scale from 'not at all' to 'very much' like the
                    one below. <br><br>
                    Now, please look at the list of concepts and maps. For each concept, think about the map you associate 'very
                    much' with the concept.<br>                     When you see that map during the experiment, please rate it near the 'very much' endpoint of the
                    scale.<br>Now, please think about which map you associate 'not at all'                     with each concept. When you see that map during the experiment, please rate it near the 'not at all' endpoint
                    of the scale.<br>
                    Please use the full range of the scale. That is, if a map is somewhat associated with the concept, you would
                    click partway between the middle point and right side of the scale.                    You will be asked to rate each map for a given concept before moving on to the next concept.<br>Press the
                    'Continue' button for instructions on how to use the slider.                    <br>
                </div>

                <div style=""width: 500px; margin: 0 auto;"">
                    <!-- Centered text paragraphs -->
                    <div style=""text-align: center; width: 500px;"">
                        <p style=""font-size:25px; line-height:15px;"">
                            angry&nbsp;&nbsp;&nbsp;&nbsp;
                            sad&nbsp;&nbsp;&nbsp;&nbsp;
                            happy&nbsp;&nbsp;&nbsp;&nbsp;
                            fearful&nbsp;&nbsp;&nbsp;&nbsp;
                            disgust
                        </p>
                        <!-- <p style=""font-size:20px; line-height:15px;"">sad</p>
                        <p style=""font-size:20px;line-height:15px;"">happy</p>
                        <p style=""font-size:20px;line-height:15px;"">fearful</p>
                        <p style=""font-size:20px;line-height:15px;"">disgust</p> -->
                    </div>
            

                    <!-- Grid section -->
                   <div style=""display: flex; justify-content: center; padding-top: 15px;"">
                    <div style=""display: grid; grid-template-columns: repeat(10, 55px); grid-gap: 5px; width: auto;"">
                        <img src=""images/map13_gist_earth_scaleRev_orientDef_270.png"" alt=""map"" style=""width: 100%;""><img src=""images/map26_Reds_scaleRev_orientDef_270.png"" alt=""map"" style=""width: 100%;""><img src=""images/map15_cividis_scaleRev_orientMir_270.png"" alt=""map"" style=""width: 100%;""><img src=""images/map07_RdGy_scaleRev_orientMir_090.png"" alt=""map"" style=""width: 100%;""><img src=""images/map12_bwr_scaleDef_orientDef_000.png"" alt=""map"" style=""width: 100%;""><img src=""images/map05_BuGn_scaleDef_orientDef_000.png"" alt=""map"" style=""width: 100%;""><img src=""images/map02_PuBuGn_scaleRev_orientMir_270.png"" alt=""map"" style=""width: 100%;""><img src=""images/map26_YlOrRd_scaleRev_orientMir_270.png"" alt=""map"" style=""width: 100%;""><img src=""images/map23_Purples_scaleDef_orientDef_180.png"" alt=""map"" style=""width: 100%;""><img src=""images/map02_GnBu_scaleDef_orientDef_000.png"" alt=""map"" style=""width: 100%;""><img src=""images/map13_vanimo_scaleRev_orientDef_090.png"" alt=""map"" style=""width: 100%;""><img src=""images/map15_inferno_scaleRev_orientDef_270.png"" alt=""map"" style=""width: 100%;""><img src=""images/map27_OrRd_scaleRev_orientDef_090.png"" alt=""map"" style=""width: 100%;""><img src=""images/map13_viridis_scaleDef_orientMir_180.png"" alt=""map"" style=""width: 100%;""><img src=""images/map05_YlGn_scaleDef_orientDef_180.png"" alt=""map"" style=""width: 100%;""><img src=""images/map23_Blues_scaleRev_orientMir_090.png"" alt=""map"" style=""width: 100%;""><img src=""images/map26_Oranges_scaleRev_orientDef_090.png"" alt=""map"" style=""width: 100%;""><img src=""images/map12_managua_scaleRev_orientMir_270.png"" alt=""map"" style=""width: 100%;""><img src=""images/map10_Spectral_scaleRev_orientMir_090.png"" alt=""map"" style=""width: 100%;""><img src=""images/map02_YlGnBu_scaleRev_orientMir_090.png"" alt=""map"" style=""width: 100%;""><img src=""images/map10_RdYlBu_scaleDef_orientDef_000.png"" alt=""map"" style=""width: 100%;""><img src=""images/map27_PuRd_scaleDef_orientDef_180.png"" alt=""map"" style=""width: 100%;""><img src=""images/map05_PiYG_scaleRev_orientMir_090.png"" alt=""map"" style=""width: 100%;""><img src=""images/map23_Greens_scaleRev_orientMir_270.png"" alt=""map"" style=""width: 100%;""><img src=""images/map27_RdPu_scaleRev_orientMir_090.png"" alt=""map"" style=""width: 100%;""><img src=""images/map27_BuPu_scaleDef_orientMir_180.png"" alt=""map"" style=""width: 100%;""><img src=""images/map26_YlOrBr_scaleRev_orientMir_090.png"" alt=""map"" style=""width: 100%;""><img src=""images/map13_turbo_scaleRev_orientMir_090.png"" alt=""map"" style=""width: 100%;""><img src=""images/map23_Greys_scaleDef_orientDef_000.png"" alt=""map"" style=""width: 100%;""><img src=""images/map12_berlin_scaleDef_orientMir_000.png"" alt=""map"" style=""width: 100%;""><img src=""images/map15_plasma_scaleDef_orientDef_000.png"" alt=""map"" style=""width: 100%;""><img src=""images/map10_coolwarm_scaleRev_orientMir_270.png"" alt=""map"" style=""width: 100%;""><img src=""images/map15_magma_scaleRev_orientMir_090.png"" alt=""map"" style=""width: 100%;""><img src=""images/map07_RdBu_scaleRev_orientMir_270.png"" alt=""map"" style=""width: 100%;""><img src=""images/map05_PRGn_scaleDef_orientMir_180.png"" alt=""map"" style=""width: 100%;""><img src=""images/map07_PuOr_scaleDef_orientDef_180.png"" alt=""map"" style=""width: 100%;""><img src=""images/map12_seismic_scaleRev_orientDef_270.png"" alt=""map"" style=""width: 100%;""><img src=""images/map10_RdYlGn_scaleDef_orientDef_180.png"" alt=""map"" style=""width: 100%;""><img src=""images/map07_BrBG_scaleRev_orientDef_090.png"" alt=""map"" style=""width: 100%;""><img src=""images/map02_PuBu_scaleDef_orientDef_180.png"" alt=""map"" style=""width: 100%;"">
                    </div>
                </div>

                    <!-- Clear floats -->
                    <div style=""clear: both;""></div>
                </div>
                            ",0.295,"",0,"true",NA,"","","",NA,NA,NA,"","","","",NA,NA
"","","","","","html-button-response",7,185720,"0.0-7.0","eyafc613q4",46,9016,"<div style=""width:800px;""><p style=""text-align:left"">To move the slider, click and drag your cursor to the location of the scale where you would like to make your rating and then let go. When you let go of the slider, your response will be recorded and the next trial will begin. <br>
                    We are interested in your initial impressions of each map for the given concept, so please go with your first intuition. <br>
                    Before you begin the experiment, there will be four training trials for you to practice using the scale. <br>
                     When you are ready to start the training trials, please click ""Continue"".</p><br></div>",0.5,"",NA,"",NA,"","","",NA,NA,NA,"","","","",NA,NA
"","","","","","html-slider-response",8,188764,"0.0-8.0-0.0","eyafc613q4",46,NA,"<div style=""width:500px;"">
                                    <p style=""font-size:25px;"">Please move the slider all the way to the <br> right endpoint of the scale</p>

                                    </div>
                                </div>",1,"",0,"true",0,"true","","",NA,NA,NA,"","","","",NA,NA
"","","","","","html-button-response",9,190337,"0.0-8.0-1.0","eyafc613q4",46,1070,"<p align='center'><b>Good job!</b> Click on 'Continue' to proceed.</p>",0.5,"",NA,"",NA,"","","",NA,NA,NA,"","","","",NA,NA
"","","","","","html-slider-response",10,192298,"0.0-9.0-0.0","eyafc613q4",46,NA,"<div style=""width:500px;"">
                                    <p style=""font-size:25px;"">Please move the slider all the way to the <br> left endpoint of the scale</p>

                                    </div>
                                </div>",0,"",0,"true",1,"true","","",NA,NA,NA,"","","","",NA,NA
"","","","","","html-button-response",11,193386,"0.0-9.0-1.0","eyafc613q4",46,585,"<p align='center'><b>Good job!</b> Click on 'Continue' to proceed.</p>",0.5,"",NA,"",NA,"","","",NA,NA,NA,"","","","",NA,NA
"","","","","","html-slider-response",12,195947,"0.0-10.0-0.0","eyafc613q4",46,NA,"<div style=""width:500px;"">
                                    <p style=""font-size:25px;"">Please move the slider halfway between the center and right endpoint of the scale</p>

                                    </div>
                                </div>",0.765,"",0,"true",2,"true","","",NA,NA,NA,"","","","",NA,NA
"","","","","","html-button-response",13,197119,"0.0-10.0-1.0","eyafc613q4",46,669,"<p align='center'><b>Good job!</b> Click on 'Continue' to proceed.</p>",0.5,"",NA,"",NA,"","","",NA,NA,NA,"","","","",NA,NA
"","","","","","html-slider-response",14,198798,"0.0-11.0-0.0","eyafc613q4",46,NA,"<div style=""width:500px;"">
                                    <p style=""font-size:25px;"">Please move the slider halfway between the center and left endpoint of the scale</p>

                                    </div>
                                </div>",0.245,"",0,"true",3,"true","","",NA,NA,NA,"","","","",NA,NA
"","","","","","html-button-response",15,199852,"0.0-11.0-1.0","eyafc613q4",46,552,"<p align='center'><b>Good job!</b> Click on 'Continue' to proceed.</p>",0.5,"",NA,"",NA,"","","",NA,NA,NA,"","","","",NA,NA
"","","","","","html-button-response",16,200720,"0.0-12.0","eyafc613q4",46,867,"<p>Great job! You've completed the practice trials. Now you will begin the main task.</p>",0.5,"",NA,"",NA,"","","",NA,NA,NA,"","","","",NA,NA
"","","","","","html-button-response",17,202803,"0.0-13.0","eyafc613q4",46,2081,"<p>In this block of trials, you will be asked to rate how much you associate each map with:</p > <p style = 'font-size:150%; font-weight: bold'>angry</p><br></br>",0.5,"",NA,"",NA,"","","",NA,NA,NA,"","","","",NA,NA
"","","","","","html-slider-response",18,204630,"0.0-14.0","eyafc613q4",46,NA,"<div style=""width:500px;"">
                            <p style=""font-size:50px; font-weight:bold;""
                            >angry</p>
                            <div style=""width:240px; margin: auto;"">
                                <img src=""images/map02_PuBu_scaleRev_orientDef_270.png"" style= ""width:200px""alt=""img"">
                            </div>
                        </div>",0.295,"",0,"",NA,"","images/map02_PuBu_scaleRev_orientDef_270.png","angry",1,2,2,"PuBu","orientDef","scaleRev","270",NA,NA
"","","","","","html-slider-response",19,206414,"0.0-15.0","eyafc613q4",46,NA,"<div style=""width:500px;"">
                            <p style=""font-size:50px; font-weight:bold;""
                            >angry</p>
                            <div style=""width:240px; margin: auto;"">
                                <img src=""images/map26_Reds_scaleRev_orientDef_270.png"" style= ""width:200px""alt=""img"">
                            </div>
                        </div>",1,"",0,"",NA,"","images/map26_Reds_scaleRev_orientDef_270.png","angry",1,26,26,"Reds","orientDef","scaleRev","270",NA,NA
"","","","","","html-slider-response",20,208233,"0.0-16.0","eyafc613q4",46,NA,"<div style=""width:500px;"">
                            <p style=""font-size:50px; font-weight:bold;""
                            >angry</p>
                            <div style=""width:240px; margin: auto;"">
                                <img src=""images/map26_YlOrRd_scaleRev_orientMir_270.png"" style= ""width:200px""alt=""img"">
                            </div>
                        </div>",1,"",0,"",NA,"","images/map26_YlOrRd_scaleRev_orientMir_270.png","angry",1,26,26,"YlOrRd","orientMir","scaleRev","270",NA,NA
"","","","","","html-slider-response",21,210163,"0.0-17.0","eyafc613q4",46,NA,"<div style=""width:500px;"">
                            <p style=""font-size:50px; font-weight:bold;""
                            >angry</p>
                            <div style=""width:240px; margin: auto;"">
                                <img src=""images/map12_bwr_scaleDef_orientDef_000.png"" style= ""width:200px""alt=""img"">
                            </div>
                        </div>",0.6125,"",0,"",NA,"","images/map12_bwr_scaleDef_orientDef_000.png","angry",1,12,12,"bwr","orientDef","scaleDef","000",NA,NA
"","","","","","html-slider-response",22,211964,"0.0-18.0","eyafc613q4",46,NA,"<div style=""width:500px;"">
                            <p style=""font-size:50px; font-weight:bold;""
                            >angry</p>
                            <div style=""width:240px; margin: auto;"">
                                <img src=""images/map10_Spectral_scaleRev_orientMir_090.png"" style= ""width:200px""alt=""img"">
                            </div>
                        </div>",0.6675,"",0,"",NA,"","images/map10_Spectral_scaleRev_orientMir_090.png","angry",1,10,10,"Spectral","orientMir","scaleRev","090",NA,NA
"","","","","","html-slider-response",23,213834,"0.0-19.0","eyafc613q4",46,NA,"<div style=""width:500px;"">
                            <p style=""font-size:50px; font-weight:bold;""
                            >angry</p>
                            <div style=""width:240px; margin: auto;"">
                                <img src=""images/map05_PiYG_scaleDef_orientMir_000.png"" style= ""width:200px""alt=""img"">
                            </div>
                        </div>",0.3175,"",0,"",NA,"","images/map05_PiYG_scaleDef_orientMir_000.png","angry",1,5,5,"PiYG","orientMir","scaleDef","000",NA,NA
"","","","","","html-slider-response",24,215615,"0.0-20.0","eyafc613q4",46,NA,"<div style=""width:500px;"">
                            <p style=""font-size:50px; font-weight:bold;""
                            >angry</p>
                            <div style=""width:240px; margin: auto;"">
                                <img src=""images/map07_BrBG_scaleDef_orientDef_000.png"" style= ""width:200px""alt=""img"">
                            </div>
                        </div>",0.405,"",0,"",NA,"","images/map07_BrBG_scaleDef_orientDef_000.png","angry",1,7,7,"BrBG","orientDef","scaleDef","000",NA,NA
"","","","","","html-slider-response",25,217380,"0.0-21.0","eyafc613q4",46,NA,"<div style=""width:500px;"">
                            <p style=""font-size:50px; font-weight:bold;""
                            >angry</p>
                            <div style=""width:240px; margin: auto;"">
                                <img src=""images/map13_gist_earth_scaleRev_orientDef_270.png"" style= ""width:200px""alt=""img"">
                            </div>
                        </div>",0.2125,"",0,"",NA,"","images/map13_gist_earth_scaleRev_orientDef_270.png","angry",1,13,13,"gist","scaleRev","earth","orientDef",NA,NA
"","","","","","html-slider-response",26,219147,"0.0-22.0","eyafc613q4",46,NA,"<div style=""width:500px;"">
                            <p style=""font-size:50px; font-weight:bold;""
                            >angry</p>
                            <div style=""width:240px; margin: auto;"">
                                <img src=""images/map13_viridis_scaleRev_orientMir_270.png"" style= ""width:200px""alt=""img"">
                            </div>
                        </div>",0.11,"",0,"",NA,"","images/map13_viridis_scaleRev_orientMir_270.png","angry",1,13,13,"viridis","orientMir","scaleRev","270",NA,NA
"","","","","","html-slider-response",27,220730,"0.0-23.0","eyafc613q4",46,NA,"<div style=""width:500px;"">
                            <p style=""font-size:50px; font-weight:bold;""
                            >angry</p>
                            <div style=""width:240px; margin: auto;"">
                                <img src=""images/map07_RdGy_scaleRev_orientMir_090.png"" style= ""width:200px""alt=""img"">
                            </div>
                        </div>",0.6225,"",0,"",NA,"","images/map07_RdGy_scaleRev_orientMir_090.png","angry",1,7,7,"RdGy","orientMir","scaleRev","090",NA,NA
"","","","","","html-slider-response",28,222547,"0.0-24.0","eyafc613q4",46,NA,"<div style=""width:500px;"">
                            <p style=""font-size:50px; font-weight:bold;""
                            >angry</p>
                            <div style=""width:240px; margin: auto;"">
                                <img src=""images/map23_Greens_scaleRev_orientMir_270.png"" style= ""width:200px""alt=""img"">
                            </div>
                        </div>",0.1375,"",0,"",NA,"","images/map23_Greens_scaleRev_orientMir_270.png","angry",1,23,23,"Greens","orientMir","scaleRev","270",NA,NA
"","","","","","html-slider-response",29,224280,"0.0-25.0","eyafc613q4",46,NA,"<div style=""width:500px;"">
                            <p style=""font-size:50px; font-weight:bold;""
                            >angry</p>
                            <div style=""width:240px; margin: auto;"">
                                <img src=""images/map23_Greys_scaleRev_orientDef_090.png"" style= ""width:200px""alt=""img"">
                            </div>
                        </div>",0.5775,"",0,"",NA,"","images/map23_Greys_scaleRev_orientDef_090.png","angry",1,23,23,"Greys","orientDef","scaleRev","090",NA,NA
"","","","","","html-slider-response",30,225881,"0.0-26.0","eyafc613q4",46,NA,"<div style=""width:500px;"">
                            <p style=""font-size:50px; font-weight:bold;""
                            >angry</p>
                            <div style=""width:240px; margin: auto;"">
                                <img src=""images/map05_PRGn_scaleRev_orientMir_270.png"" style= ""width:200px""alt=""img"">
                            </div>
                        </div>",0.17,"",0,"",NA,"","images/map05_PRGn_scaleRev_orientMir_270.png","angry",1,5,5,"PRGn","orientMir","scaleRev","270",NA,NA
"","","","","","html-slider-response",31,227381,"0.0-27.0","eyafc613q4",46,NA,"<div style=""width:500px;"">
                            <p style=""font-size:50px; font-weight:bold;""
                            >angry</p>
                            <div style=""width:240px; margin: auto;"">
                                <img src=""images/map26_YlOrRd_scaleDef_orientMir_180.png"" style= ""width:200px""alt=""img"">
                            </div>
                        </div>",1,"",0,"",NA,"","images/map26_YlOrRd_scaleDef_orientMir_180.png","angry",1,26,26,"YlOrRd","orientMir","scaleDef","180",NA,NA
"","","","","","html-slider-response",32,228882,"0.0-28.0","eyafc613q4",46,NA,"<div style=""width:500px;"">
                            <p style=""font-size:50px; font-weight:bold;""
                            >angry</p>
                            <div style=""width:240px; margin: auto;"">
                                <img src=""images/map05_YlGn_scaleDef_orientDef_180.png"" style= ""width:200px""alt=""img"">
                            </div>
                        </div>",0.265,"",0,"",NA,"","images/map05_YlGn_scaleDef_orientDef_180.png","angry",1,5,5,"YlGn","orientDef","scaleDef","180",NA,NA
"","","","","","html-slider-response",33,230530,"0.0-29.0","eyafc613q4",46,NA,"<div style=""width:500px;"">
                            <p style=""font-size:50px; font-weight:bold;""
                            >angry</p>
                            <div style=""width:240px; margin: auto;"">
                                <img src=""images/map15_inferno_scaleDef_orientDef_180.png"" style= ""width:200px""alt=""img"">
                            </div>
                        </div>",1,"",0,"",NA,"","images/map15_inferno_scaleDef_orientDef_180.png","angry",1,15,15,"inferno","orientDef","scaleDef","180",NA,NA
"","","","","","html-slider-response",34,232147,"0.0-30.0","eyafc613q4",46,NA,"<div style=""width:500px;"">
                            <p style=""font-size:50px; font-weight:bold;""
                            >angry</p>
                            <div style=""width:240px; margin: auto;"">
                                <img src=""images/map15_plasma_scaleRev_orientDef_090.png"" style= ""width:200px""alt=""img"">
                            </div>
                        </div>",0.6925,"",0,"",NA,"","images/map15_plasma_scaleRev_orientDef_090.png","angry",1,15,15,"plasma","orientDef","scaleRev","090",NA,NA
"","","","","","html-slider-response",35,233665,"0.0-31.0","eyafc613q4",46,NA,"<div style=""width:500px;"">
                            <p style=""font-size:50px; font-weight:bold;""
                            >angry</p>
                            <div style=""width:240px; margin: auto;"">
                                <img src=""images/map23_Purples_scaleRev_orientDef_270.png"" style= ""width:200px""alt=""img"">
                            </div>
                        </div>",0.2325,"",0,"",NA,"","images/map23_Purples_scaleRev_orientDef_270.png","angry",1,23,23,"Purples","orientDef","scaleRev","270",NA,NA
"","","","","","html-slider-response",36,235247,"0.0-32.0","eyafc613q4",46,NA,"<div style=""width:500px;"">
                            <p style=""font-size:50px; font-weight:bold;""
                            >angry</p>
                            <div style=""width:240px; margin: auto;"">
                                <img src=""images/map10_RdYlBu_scaleDef_orientDef_000.png"" style= ""width:200px""alt=""img"">
                            </div>
                        </div>",0.5975,"",0,"",NA,"","images/map10_RdYlBu_scaleDef_orientDef_000.png","angry",1,10,10,"RdYlBu","orientDef","scaleDef","000",NA,NA
"","","","","","html-slider-response",37,236831,"0.0-33.0","eyafc613q4",46,NA,"<div style=""width:500px;"">
                            <p style=""font-size:50px; font-weight:bold;""
                            >angry</p>
                            <div style=""width:240px; margin: auto;"">
                                <img src=""images/map13_turbo_scaleRev_orientMir_090.png"" style= ""width:200px""alt=""img"">
                            </div>
                        </div>",0.225,"",0,"",NA,"","images/map13_turbo_scaleRev_orientMir_090.png","angry",1,13,13,"turbo","orientMir","scaleRev","090",NA,NA
"","","","","","html-slider-response",38,238398,"0.0-34.0","eyafc613q4",46,NA,"<div style=""width:500px;"">
                            <p style=""font-size:50px; font-weight:bold;""
                            >angry</p>
                            <div style=""width:240px; margin: auto;"">
                                <img src=""images/map10_RdYlGn_scaleDef_orientDef_180.png"" style= ""width:200px""alt=""img"">
                            </div>
                        </div>",0.765,"",0,"",NA,"","images/map10_RdYlGn_scaleDef_orientDef_180.png","angry",1,10,10,"RdYlGn","orientDef","scaleDef","180",NA,NA
"","","","","","html-slider-response",39,239962,"0.0-35.0","eyafc613q4",46,NA,"<div style=""width:500px;"">
                            <p style=""font-size:50px; font-weight:bold;""
                            >angry</p>
                            <div style=""width:240px; margin: auto;"">
                                <img src=""images/map27_OrRd_scaleDef_orientDef_000.png"" style= ""width:200px""alt=""img"">
                            </div>
                        </div>",1,"",0,"",NA,"","images/map27_OrRd_scaleDef_orientDef_000.png","angry",1,27,27,"OrRd","orientDef","scaleDef","000",NA,NA
"","","","","","html-slider-response",40,241547,"0.0-36.0","eyafc613q4",46,NA,"<div style=""width:500px;"">
                            <p style=""font-size:50px; font-weight:bold;""
                            >angry</p>
                            <div style=""width:240px; margin: auto;"">
                                <img src=""images/map15_inferno_scaleRev_orientDef_270.png"" style= ""width:200px""alt=""img"">
                            </div>
                        </div>",0.54,"",0,"",NA,"","images/map15_inferno_scaleRev_orientDef_270.png","angry",1,15,15,"inferno","orientDef","scaleRev","270",NA,NA
"","","","","","html-slider-response",41,243147,"0.0-37.0","eyafc613q4",46,NA,"<div style=""width:500px;"">
                            <p style=""font-size:50px; font-weight:bold;""
                            >angry</p>
                            <div style=""width:240px; margin: auto;"">
                                <img src=""images/map13_gist_earth_scaleDef_orientDef_180.png"" style= ""width:200px""alt=""img"">
                            </div>
                        </div>",0.3525,"",0,"",NA,"","images/map13_gist_earth_scaleDef_orientDef_180.png","angry",1,13,13,"gist","scaleDef","earth","orientDef",NA,NA
"","","","","","html-slider-response",42,245030,"0.0-38.0","eyafc613q4",46,NA,"<div style=""width:500px;"">
                            <p style=""font-size:50px; font-weight:bold;""
                            >angry</p>
                            <div style=""width:240px; margin: auto;"">
                                <img src=""images/map27_PuRd_scaleRev_orientDef_270.png"" style= ""width:200px""alt=""img"">
                            </div>
                        </div>",0.8275,"",0,"",NA,"","images/map27_PuRd_scaleRev_orientDef_270.png","angry",1,27,27,"PuRd","orientDef","scaleRev","270",NA,NA
"","","","","","html-slider-response",43,246514,"0.0-39.0","eyafc613q4",46,NA,"<div style=""width:500px;"">
                            <p style=""font-size:50px; font-weight:bold;""
                            >angry</p>
                            <div style=""width:240px; margin: auto;"">
                                <img src=""images/map26_Reds_scaleDef_orientDef_180.png"" style= ""width:200px""alt=""img"">
                            </div>
                        </div>",0.9675,"",0,"",NA,"","images/map26_Reds_scaleDef_orientDef_180.png","angry",1,26,26,"Reds","orientDef","scaleDef","180",NA,NA
"","","","","","html-slider-response",44,248115,"0.0-40.0","eyafc613q4",46,NA,"<div style=""width:500px;"">
                            <p style=""font-size:50px; font-weight:bold;""
                            >angry</p>
                            <div style=""width:240px; margin: auto;"">
                                <img src=""images/map27_BuPu_scaleDef_orientMir_180.png"" style= ""width:200px""alt=""img"">
                            </div>
                        </div>",0.195,"",0,"",NA,"","images/map27_BuPu_scaleDef_orientMir_180.png","angry",1,27,27,"BuPu","orientMir","scaleDef","180",NA,NA
"","","","","","html-slider-response",45,249596,"0.0-41.0","eyafc613q4",46,NA,"<div style=""width:500px;"">
                            <p style=""font-size:50px; font-weight:bold;""
                            >angry</p>
                            <div style=""width:240px; margin: auto;"">
                                <img src=""images/map27_OrRd_scaleRev_orientDef_090.png"" style= ""width:200px""alt=""img"">
                            </div>
                        </div>",0.655,"",0,"",NA,"","images/map27_OrRd_scaleRev_orientDef_090.png","angry",1,27,27,"OrRd","orientDef","scaleRev","090",NA,NA
"","","","","","html-slider-response",46,251147,"0.0-42.0","eyafc613q4",46,NA,"<div style=""width:500px;"">
                            <p style=""font-size:50px; font-weight:bold;""
                            >angry</p>
                            <div style=""width:240px; margin: auto;"">
                                <img src=""images/map15_plasma_scaleDef_orientDef_000.png"" style= ""width:200px""alt=""img"">
                            </div>
                        </div>",0.295,"",0,"",NA,"","images/map15_plasma_scaleDef_orientDef_000.png","angry",1,15,15,"plasma","orientDef","scaleDef","000",NA,NA
"","","","","","html-slider-response",47,252682,"0.0-43.0","eyafc613q4",46,NA,"<div style=""width:500px;"">
                            <p style=""font-size:50px; font-weight:bold;""
                            >angry</p>
                            <div style=""width:240px; margin: auto;"">
                                <img src=""images/map13_turbo_scaleDef_orientMir_000.png"" style= ""width:200px""alt=""img"">
                            </div>
                        </div>",0.6,"",0,"",NA,"","images/map13_turbo_scaleDef_orientMir_000.png","angry",1,13,13,"turbo","orientMir","scaleDef","000",NA,NA
"","","","","","html-slider-response",48,254213,"0.0-44.0","eyafc613q4",46,NA,"<div style=""width:500px;"">
                            <p style=""font-size:50px; font-weight:bold;""
                            >angry</p>
                            <div style=""width:240px; margin: auto;"">
                                <img src=""images/map23_Greys_scaleDef_orientDef_000.png"" style= ""width:200px""alt=""img"">
                            </div>
                        </div>",0.3375,"",0,"",NA,"","images/map23_Greys_scaleDef_orientDef_000.png","angry",1,23,23,"Greys","orientDef","scaleDef","000",NA,NA
"","","","","","html-slider-response",49,255831,"0.0-45.0","eyafc613q4",46,NA,"<div style=""width:500px;"">
                            <p style=""font-size:50px; font-weight:bold;""
                            >angry</p>
                            <div style=""width:240px; margin: auto;"">
                                <img src=""images/map07_BrBG_scaleRev_orientDef_090.png"" style= ""width:200px""alt=""img"">
                            </div>
                        </div>",0.19,"",0,"",NA,"","images/map07_BrBG_scaleRev_orientDef_090.png","angry",1,7,7,"BrBG","orientDef","scaleRev","090",NA,NA
"","","","","","html-slider-response",50,257846,"0.0-46.0","eyafc613q4",46,NA,"<div style=""width:500px;"">
                            <p style=""font-size:50px; font-weight:bold;""
                            >angry</p>
                            <div style=""width:240px; margin: auto;"">
                                <img src=""images/map23_Blues_scaleDef_orientMir_000.png"" style= ""width:200px""alt=""img"">
                            </div>
                        </div>",0.0775,"",0,"",NA,"","images/map23_Blues_scaleDef_orientMir_000.png","angry",1,23,23,"Blues","orientMir","scaleDef","000",NA,NA
"","","","","","html-slider-response",51,259497,"0.0-47.0","eyafc613q4",46,NA,"<div style=""width:500px;"">
                            <p style=""font-size:50px; font-weight:bold;""
                            >angry</p>
                            <div style=""width:240px; margin: auto;"">
                                <img src=""images/map05_YlGn_scaleRev_orientDef_270.png"" style= ""width:200px""alt=""img"">
                            </div>
                        </div>",0.17,"",0,"",NA,"","images/map05_YlGn_scaleRev_orientDef_270.png","angry",1,5,5,"YlGn","orientDef","scaleRev","270",NA,NA
"","","","","","html-slider-response",52,261164,"0.0-48.0","eyafc613q4",46,NA,"<div style=""width:500px;"">
                            <p style=""font-size:50px; font-weight:bold;""
                            >angry</p>
                            <div style=""width:240px; margin: auto;"">
                                <img src=""images/map02_PuBu_scaleDef_orientDef_180.png"" style= ""width:200px""alt=""img"">
                            </div>
                        </div>",0.1425,"",0,"",NA,"","images/map02_PuBu_scaleDef_orientDef_180.png","angry",1,2,2,"PuBu","orientDef","scaleDef","180",NA,NA
"","","","","","html-slider-response",53,262764,"0.0-49.0","eyafc613q4",46,NA,"<div style=""width:500px;"">
                            <p style=""font-size:50px; font-weight:bold;""
                            >angry</p>
                            <div style=""width:240px; margin: auto;"">
                                <img src=""images/map07_RdBu_scaleRev_orientMir_270.png"" style= ""width:200px""alt=""img"">
                            </div>
                        </div>",0.545,"",0,"",NA,"","images/map07_RdBu_scaleRev_orientMir_270.png","angry",1,7,7,"RdBu","orientMir","scaleRev","270",NA,NA
"","","","","","html-slider-response",54,264229,"0.0-50.0","eyafc613q4",46,NA,"<div style=""width:500px;"">
                            <p style=""font-size:50px; font-weight:bold;""
                            >angry</p>
                            <div style=""width:240px; margin: auto;"">
                                <img src=""images/map12_managua_scaleDef_orientMir_180.png"" style= ""width:200px""alt=""img"">
                            </div>
                        </div>",0.255,"",0,"",NA,"","images/map12_managua_scaleDef_orientMir_180.png","angry",1,12,12,"managua","orientMir","scaleDef","180",NA,NA
"","","","","","html-slider-response",55,266080,"0.0-51.0","eyafc613q4",46,NA,"<div style=""width:500px;"">
                            <p style=""font-size:50px; font-weight:bold;""
                            >angry</p>
                            <div style=""width:240px; margin: auto;"">
                                <img src=""images/map12_bwr_scaleRev_orientDef_090.png"" style= ""width:200px""alt=""img"">
                            </div>
                        </div>",0.555,"",0,"",NA,"","images/map12_bwr_scaleRev_orientDef_090.png","angry",1,12,12,"bwr","orientDef","scaleRev","090",NA,NA
"","","","","","html-slider-response",56,267497,"0.0-52.0","eyafc613q4",46,NA,"<div style=""width:500px;"">
                            <p style=""font-size:50px; font-weight:bold;""
                            >angry</p>
                            <div style=""width:240px; margin: auto;"">
                                <img src=""images/map15_magma_scaleDef_orientMir_000.png"" style= ""width:200px""alt=""img"">
                            </div>
                        </div>",0.2175,"",0,"",NA,"","images/map15_magma_scaleDef_orientMir_000.png","angry",1,15,15,"magma","orientMir","scaleDef","000",NA,NA
"","","","","","html-slider-response",57,269249,"0.0-53.0","eyafc613q4",46,NA,"<div style=""width:500px;"">
                            <p style=""font-size:50px; font-weight:bold;""
                            >angry</p>
                            <div style=""width:240px; margin: auto;"">
                                <img src=""images/map05_BuGn_scaleDef_orientDef_000.png"" style= ""width:200px""alt=""img"">
                            </div>
                        </div>",0.175,"",0,"",NA,"","images/map05_BuGn_scaleDef_orientDef_000.png","angry",1,5,5,"BuGn","orientDef","scaleDef","000",NA,NA
"","","","","","html-button-response",58,273553,"0.0-54.0","eyafc613q4",46,3801,"<p>You are doing great!<br></br> You are halway done with the current block. When you are ready to continue, click the 'Continue' button.</p>",0.5,"",NA,"",NA,"","","",NA,NA,NA,"","","","",NA,NA
"","","","","","html-slider-response",59,275163,"0.0-55.0","eyafc613q4",46,NA,"<div style=""width:500px;"">
                            <p style=""font-size:50px; font-weight:bold;""
                            >angry</p>
                            <div style=""width:240px; margin: auto;"">
                                <img src=""images/map26_YlOrBr_scaleRev_orientMir_090.png"" style= ""width:200px""alt=""img"">
                            </div>
                        </div>",0.8975,"",0,"",NA,"","images/map26_YlOrBr_scaleRev_orientMir_090.png","angry",1,26,26,"YlOrBr","orientMir","scaleRev","090",NA,NA
"","","","","","html-slider-response",60,276831,"0.0-56.0","eyafc613q4",46,NA,"<div style=""width:500px;"">
                            <p style=""font-size:50px; font-weight:bold;""
                            >angry</p>
                            <div style=""width:240px; margin: auto;"">
                                <img src=""images/map02_YlGnBu_scaleRev_orientMir_090.png"" style= ""width:200px""alt=""img"">
                            </div>
                        </div>",0.3825,"",0,"",NA,"","images/map02_YlGnBu_scaleRev_orientMir_090.png","angry",1,2,2,"YlGnBu","orientMir","scaleRev","090",NA,NA
"","","","","","html-slider-response",61,278231,"0.0-57.0","eyafc613q4",46,NA,"<div style=""width:500px;"">
                            <p style=""font-size:50px; font-weight:bold;""
                            >angry</p>
                            <div style=""width:240px; margin: auto;"">
                                <img src=""images/map05_PiYG_scaleRev_orientMir_090.png"" style= ""width:200px""alt=""img"">
                            </div>
                        </div>",0.1675,"",0,"",NA,"","images/map05_PiYG_scaleRev_orientMir_090.png","angry",1,5,5,"PiYG","orientMir","scaleRev","090",NA,NA
"","","","","","html-slider-response",62,279731,"0.0-58.0","eyafc613q4",46,NA,"<div style=""width:500px;"">
                            <p style=""font-size:50px; font-weight:bold;""
                            >angry</p>
                            <div style=""width:240px; margin: auto;"">
                                <img src=""images/map05_BuGn_scaleRev_orientDef_090.png"" style= ""width:200px""alt=""img"">
                            </div>
                        </div>",0.14,"",0,"",NA,"","images/map05_BuGn_scaleRev_orientDef_090.png","angry",1,5,5,"BuGn","orientDef","scaleRev","090",NA,NA
"","","","","","html-slider-response",63,281314,"0.0-59.0","eyafc613q4",46,NA,"<div style=""width:500px;"">
                            <p style=""font-size:50px; font-weight:bold;""
                            >angry</p>
                            <div style=""width:240px; margin: auto;"">
                                <img src=""images/map07_PuOr_scaleRev_orientDef_270.png"" style= ""width:200px""alt=""img"">
                            </div>
                        </div>",0.1775,"",0,"",NA,"","images/map07_PuOr_scaleRev_orientDef_270.png","angry",1,7,7,"PuOr","orientDef","scaleRev","270",NA,NA
"","","","","","html-slider-response",64,282863,"0.0-60.0","eyafc613q4",46,NA,"<div style=""width:500px;"">
                            <p style=""font-size:50px; font-weight:bold;""
                            >angry</p>
                            <div style=""width:240px; margin: auto;"">
                                <img src=""images/map26_YlOrBr_scaleDef_orientMir_000.png"" style= ""width:200px""alt=""img"">
                            </div>
                        </div>",0.9625,"",0,"",NA,"","images/map26_YlOrBr_scaleDef_orientMir_000.png","angry",1,26,26,"YlOrBr","orientMir","scaleDef","000",NA,NA
"","","","","","html-slider-response",65,284464,"0.0-61.0","eyafc613q4",46,NA,"<div style=""width:500px;"">
                            <p style=""font-size:50px; font-weight:bold;""
                            >angry</p>
                            <div style=""width:240px; margin: auto;"">
                                <img src=""images/map26_Oranges_scaleRev_orientDef_090.png"" style= ""width:200px""alt=""img"">
                            </div>
                        </div>",0.79,"",0,"",NA,"","images/map26_Oranges_scaleRev_orientDef_090.png","angry",1,26,26,"Oranges","orientDef","scaleRev","090",NA,NA
"","","","","","html-slider-response",66,286182,"0.0-62.0","eyafc613q4",46,NA,"<div style=""width:500px;"">
                            <p style=""font-size:50px; font-weight:bold;""
                            >angry</p>
                            <div style=""width:240px; margin: auto;"">
                                <img src=""images/map07_RdGy_scaleDef_orientMir_000.png"" style= ""width:200px""alt=""img"">
                            </div>
                        </div>",0.1725,"",0,"",NA,"","images/map07_RdGy_scaleDef_orientMir_000.png","angry",1,7,7,"RdGy","orientMir","scaleDef","000",NA,NA
"","","","","","html-slider-response",67,287763,"0.0-63.0","eyafc613q4",46,NA,"<div style=""width:500px;"">
                            <p style=""font-size:50px; font-weight:bold;""
                            >angry</p>
                            <div style=""width:240px; margin: auto;"">
                                <img src=""images/map10_coolwarm_scaleRev_orientMir_270.png"" style= ""width:200px""alt=""img"">
                            </div>
                        </div>",0.335,"",0,"",NA,"","images/map10_coolwarm_scaleRev_orientMir_270.png","angry",1,10,10,"coolwarm","orientMir","scaleRev","270",NA,NA
"","","","","","html-slider-response",68,289364,"0.0-64.0","eyafc613q4",46,NA,"<div style=""width:500px;"">
                            <p style=""font-size:50px; font-weight:bold;""
                            >angry</p>
                            <div style=""width:240px; margin: auto;"">
                                <img src=""images/map27_RdPu_scaleRev_orientMir_090.png"" style= ""width:200px""alt=""img"">
                            </div>
                        </div>",0.9875,"",0,"",NA,"","images/map27_RdPu_scaleRev_orientMir_090.png","angry",1,27,27,"RdPu","orientMir","scaleRev","090",NA,NA
"","","","","","html-slider-response",69,291282,"0.0-65.0","eyafc613q4",46,NA,"<div style=""width:500px;"">
                            <p style=""font-size:50px; font-weight:bold;""
                            >angry</p>
                            <div style=""width:240px; margin: auto;"">
                                <img src=""images/map15_cividis_scaleDef_orientMir_180.png"" style= ""width:200px""alt=""img"">
                            </div>
                        </div>",0.335,"",0,"",NA,"","images/map15_cividis_scaleDef_orientMir_180.png","angry",1,15,15,"cividis","orientMir","scaleDef","180",NA,NA
"","","","","","html-slider-response",70,292797,"0.0-66.0","eyafc613q4",46,NA,"<div style=""width:500px;"">
                            <p style=""font-size:50px; font-weight:bold;""
                            >angry</p>
                            <div style=""width:240px; margin: auto;"">
                                <img src=""images/map10_coolwarm_scaleDef_orientMir_180.png"" style= ""width:200px""alt=""img"">
                            </div>
                        </div>",0.37,"",0,"",NA,"","images/map10_coolwarm_scaleDef_orientMir_180.png","angry",1,10,10,"coolwarm","orientMir","scaleDef","180",NA,NA
"","","","","","html-slider-response",71,294364,"0.0-67.0","eyafc613q4",46,NA,"<div style=""width:500px;"">
                            <p style=""font-size:50px; font-weight:bold;""
                            >angry</p>
                            <div style=""width:240px; margin: auto;"">
                                <img src=""images/map15_cividis_scaleRev_orientMir_270.png"" style= ""width:200px""alt=""img"">
                            </div>
                        </div>",0.3,"",0,"",NA,"","images/map15_cividis_scaleRev_orientMir_270.png","angry",1,15,15,"cividis","orientMir","scaleRev","270",NA,NA
"","","","","","html-slider-response",72,296047,"0.0-68.0","eyafc613q4",46,NA,"<div style=""width:500px;"">
                            <p style=""font-size:50px; font-weight:bold;""
                            >angry</p>
                            <div style=""width:240px; margin: auto;"">
                                <img src=""images/map02_YlGnBu_scaleDef_orientMir_000.png"" style= ""width:200px""alt=""img"">
                            </div>
                        </div>",0.2175,"",0,"",NA,"","images/map02_YlGnBu_scaleDef_orientMir_000.png","angry",1,2,2,"YlGnBu","orientMir","scaleDef","000",NA,NA
"","","","","","html-slider-response",73,298564,"0.0-69.0","eyafc613q4",46,NA,"<div style=""width:500px;"">
                            <p style=""font-size:50px; font-weight:bold;""
                            >angry</p>
                            <div style=""width:240px; margin: auto;"">
                                <img src=""images/map23_Purples_scaleDef_orientDef_180.png"" style= ""width:200px""alt=""img"">
                            </div>
                        </div>",0.0875,"",0,"",NA,"","images/map23_Purples_scaleDef_orientDef_180.png","angry",1,23,23,"Purples","orientDef","scaleDef","180",NA,NA
"","","","","","html-slider-response",74,300399,"0.0-70.0","eyafc613q4",46,NA,"<div style=""width:500px;"">
                            <p style=""font-size:50px; font-weight:bold;""
                            >angry</p>
                            <div style=""width:240px; margin: auto;"">
                                <img src=""images/map13_viridis_scaleDef_orientMir_180.png"" style= ""width:200px""alt=""img"">
                            </div>
                        </div>",0.24,"",0,"",NA,"","images/map13_viridis_scaleDef_orientMir_180.png","angry",1,13,13,"viridis","orientMir","scaleDef","180",NA,NA
"","","","","","html-slider-response",75,302230,"0.0-71.0","eyafc613q4",46,NA,"<div style=""width:500px;"">
                            <p style=""font-size:50px; font-weight:bold;""
                            >angry</p>
                            <div style=""width:240px; margin: auto;"">
                                <img src=""images/map13_vanimo_scaleDef_orientDef_000.png"" style= ""width:200px""alt=""img"">
                            </div>
                        </div>",0.1925,"",0,"",NA,"","images/map13_vanimo_scaleDef_orientDef_000.png","angry",1,13,13,"vanimo","orientDef","scaleDef","000",NA,NA
"","","","","","html-slider-response",76,303847,"0.0-72.0","eyafc613q4",46,NA,"<div style=""width:500px;"">
                            <p style=""font-size:50px; font-weight:bold;""
                            >angry</p>
                            <div style=""width:240px; margin: auto;"">
                                <img src=""images/map02_PuBuGn_scaleDef_orientMir_180.png"" style= ""width:200px""alt=""img"">
                            </div>
                        </div>",0.1675,"",0,"",NA,"","images/map02_PuBuGn_scaleDef_orientMir_180.png","angry",1,2,2,"PuBuGn","orientMir","scaleDef","180",NA,NA
"","","","","","html-slider-response",77,305580,"0.0-73.0","eyafc613q4",46,NA,"<div style=""width:500px;"">
                            <p style=""font-size:50px; font-weight:bold;""
                            >angry</p>
                            <div style=""width:240px; margin: auto;"">
                                <img src=""images/map12_seismic_scaleDef_orientDef_180.png"" style= ""width:200px""alt=""img"">
                            </div>
                        </div>",0.59,"",0,"",NA,"","images/map12_seismic_scaleDef_orientDef_180.png","angry",1,12,12,"seismic","orientDef","scaleDef","180",NA,NA
"","","","","","html-slider-response",78,307130,"0.0-74.0","eyafc613q4",46,NA,"<div style=""width:500px;"">
                            <p style=""font-size:50px; font-weight:bold;""
                            >angry</p>
                            <div style=""width:240px; margin: auto;"">
                                <img src=""images/map02_GnBu_scaleRev_orientDef_090.png"" style= ""width:200px""alt=""img"">
                            </div>
                        </div>",0.2425,"",0,"",NA,"","images/map02_GnBu_scaleRev_orientDef_090.png","angry",1,2,2,"GnBu","orientDef","scaleRev","090",NA,NA
"","","","","","html-slider-response",79,308897,"0.0-75.0","eyafc613q4",46,NA,"<div style=""width:500px;"">
                            <p style=""font-size:50px; font-weight:bold;""
                            >angry</p>
                            <div style=""width:240px; margin: auto;"">
                                <img src=""images/map12_berlin_scaleDef_orientMir_000.png"" style= ""width:200px""alt=""img"">
                            </div>
                        </div>",0.1975,"",0,"",NA,"","images/map12_berlin_scaleDef_orientMir_000.png","angry",1,12,12,"berlin","orientMir","scaleDef","000",NA,NA
"","","","","","html-slider-response",80,310498,"0.0-76.0","eyafc613q4",46,NA,"<div style=""width:500px;"">
                            <p style=""font-size:50px; font-weight:bold;""
                            >angry</p>
                            <div style=""width:240px; margin: auto;"">
                                <img src=""images/map10_Spectral_scaleDef_orientMir_000.png"" style= ""width:200px""alt=""img"">
                            </div>
                        </div>",0.235,"",0,"",NA,"","images/map10_Spectral_scaleDef_orientMir_000.png","angry",1,10,10,"Spectral","orientMir","scaleDef","000",NA,NA
"","","","","","html-slider-response",81,312083,"0.0-77.0","eyafc613q4",46,NA,"<div style=""width:500px;"">
                            <p style=""font-size:50px; font-weight:bold;""
                            >angry</p>
                            <div style=""width:240px; margin: auto;"">
                                <img src=""images/map05_PRGn_scaleDef_orientMir_180.png"" style= ""width:200px""alt=""img"">
                            </div>
                        </div>",0.215,"",0,"",NA,"","images/map05_PRGn_scaleDef_orientMir_180.png","angry",1,5,5,"PRGn","orientMir","scaleDef","180",NA,NA
"","","","","","html-slider-response",82,313748,"0.0-78.0","eyafc613q4",46,NA,"<div style=""width:500px;"">
                            <p style=""font-size:50px; font-weight:bold;""
                            >angry</p>
                            <div style=""width:240px; margin: auto;"">
                                <img src=""images/map10_RdYlGn_scaleRev_orientDef_270.png"" style= ""width:200px""alt=""img"">
                            </div>
                        </div>",0,"",0,"",NA,"","images/map10_RdYlGn_scaleRev_orientDef_270.png","angry",1,10,10,"RdYlGn","orientDef","scaleRev","270",NA,NA
"","","","","","html-slider-response",83,315316,"0.0-79.0","eyafc613q4",46,NA,"<div style=""width:500px;"">
                            <p style=""font-size:50px; font-weight:bold;""
                            >angry</p>
                            <div style=""width:240px; margin: auto;"">
                                <img src=""images/map26_Oranges_scaleDef_orientDef_000.png"" style= ""width:200px""alt=""img"">
                            </div>
                        </div>",1,"",0,"",NA,"","images/map26_Oranges_scaleDef_orientDef_000.png","angry",1,26,26,"Oranges","orientDef","scaleDef","000",NA,NA
"","","","","","html-slider-response",84,316733,"0.0-80.0","eyafc613q4",46,NA,"<div style=""width:500px;"">
                            <p style=""font-size:50px; font-weight:bold;""
                            >angry</p>
                            <div style=""width:240px; margin: auto;"">
                                <img src=""images/map02_PuBuGn_scaleRev_orientMir_270.png"" style= ""width:200px""alt=""img"">
                            </div>
                        </div>",0.22,"",0,"",NA,"","images/map02_PuBuGn_scaleRev_orientMir_270.png","angry",1,2,2,"PuBuGn","orientMir","scaleRev","270",NA,NA
"","","","","","html-slider-response",85,318483,"0.0-81.0","eyafc613q4",46,NA,"<div style=""width:500px;"">
                            <p style=""font-size:50px; font-weight:bold;""
                            >angry</p>
                            <div style=""width:240px; margin: auto;"">
                                <img src=""images/map27_BuPu_scaleRev_orientMir_270.png"" style= ""width:200px""alt=""img"">
                            </div>
                        </div>",0.055,"",0,"",NA,"","images/map27_BuPu_scaleRev_orientMir_270.png","angry",1,27,27,"BuPu","orientMir","scaleRev","270",NA,NA
"","","","","","html-slider-response",86,320463,"0.0-82.0","eyafc613q4",46,NA,"<div style=""width:500px;"">
                            <p style=""font-size:50px; font-weight:bold;""
                            >angry</p>
                            <div style=""width:240px; margin: auto;"">
                                <img src=""images/map07_RdBu_scaleDef_orientMir_180.png"" style= ""width:200px""alt=""img"">
                            </div>
                        </div>",0.67,"",0,"",NA,"","images/map07_RdBu_scaleDef_orientMir_180.png","angry",1,7,7,"RdBu","orientMir","scaleDef","180",NA,NA
"","","","","","html-slider-response",87,322151,"0.0-83.0","eyafc613q4",46,NA,"<div style=""width:500px;"">
                            <p style=""font-size:50px; font-weight:bold;""
                            >angry</p>
                            <div style=""width:240px; margin: auto;"">
                                <img src=""images/map15_magma_scaleRev_orientMir_090.png"" style= ""width:200px""alt=""img"">
                            </div>
                        </div>",0.9575,"",0,"",NA,"","images/map15_magma_scaleRev_orientMir_090.png","angry",1,15,15,"magma","orientMir","scaleRev","090",NA,NA
"","","","","","html-slider-response",88,323765,"0.0-84.0","eyafc613q4",46,NA,"<div style=""width:500px;"">
                            <p style=""font-size:50px; font-weight:bold;""
                            >angry</p>
                            <div style=""width:240px; margin: auto;"">
                                <img src=""images/map10_RdYlBu_scaleRev_orientDef_090.png"" style= ""width:200px""alt=""img"">
                            </div>
                        </div>",0.7625,"",0,"",NA,"","images/map10_RdYlBu_scaleRev_orientDef_090.png","angry",1,10,10,"RdYlBu","orientDef","scaleRev","090",NA,NA
"","","","","","html-slider-response",89,325247,"0.0-85.0","eyafc613q4",46,NA,"<div style=""width:500px;"">
                            <p style=""font-size:50px; font-weight:bold;""
                            >angry</p>
                            <div style=""width:240px; margin: auto;"">
                                <img src=""images/map13_vanimo_scaleRev_orientDef_090.png"" style= ""width:200px""alt=""img"">
                            </div>
                        </div>",0.1925,"",0,"",NA,"","images/map13_vanimo_scaleRev_orientDef_090.png","angry",1,13,13,"vanimo","orientDef","scaleRev","090",NA,NA
"","","","","","html-slider-response",90,326830,"0.0-86.0","eyafc613q4",46,NA,"<div style=""width:500px;"">
                            <p style=""font-size:50px; font-weight:bold;""
                            >angry</p>
                            <div style=""width:240px; margin: auto;"">
                                <img src=""images/map12_seismic_scaleRev_orientDef_270.png"" style= ""width:200px""alt=""img"">
                            </div>
                        </div>",0.59,"",0,"",NA,"","images/map12_seismic_scaleRev_orientDef_270.png","angry",1,12,12,"seismic","orientDef","scaleRev","270",NA,NA
"","","","","","html-slider-response",91,328830,"0.0-87.0","eyafc613q4",46,NA,"<div style=""width:500px;"">
                            <p style=""font-size:50px; font-weight:bold;""
                            >angry</p>
                            <div style=""width:240px; margin: auto;"">
                                <img src=""images/map12_berlin_scaleRev_orientMir_090.png"" style= ""width:200px""alt=""img"">
                            </div>
                        </div>",0.175,"",0,"",NA,"","images/map12_berlin_scaleRev_orientMir_090.png","angry",1,12,12,"berlin","orientMir","scaleRev","090",NA,NA
"","","","","","html-slider-response",92,330448,"0.0-88.0","eyafc613q4",46,NA,"<div style=""width:500px;"">
                            <p style=""font-size:50px; font-weight:bold;""
                            >angry</p>
                            <div style=""width:240px; margin: auto;"">
                                <img src=""images/map07_PuOr_scaleDef_orientDef_180.png"" style= ""width:200px""alt=""img"">
                            </div>
                        </div>",0.79,"",0,"",NA,"","images/map07_PuOr_scaleDef_orientDef_180.png","angry",1,7,7,"PuOr","orientDef","scaleDef","180",NA,NA
"","","","","","html-slider-response",93,332015,"0.0-89.0","eyafc613q4",46,NA,"<div style=""width:500px;"">
                            <p style=""font-size:50px; font-weight:bold;""
                            >angry</p>
                            <div style=""width:240px; margin: auto;"">
                                <img src=""images/map12_managua_scaleRev_orientMir_270.png"" style= ""width:200px""alt=""img"">
                            </div>
                        </div>",0.6625,"",0,"",NA,"","images/map12_managua_scaleRev_orientMir_270.png","angry",1,12,12,"managua","orientMir","scaleRev","270",NA,NA
"","","","","","html-slider-response",94,333530,"0.0-90.0","eyafc613q4",46,NA,"<div style=""width:500px;"">
                            <p style=""font-size:50px; font-weight:bold;""
                            >angry</p>
                            <div style=""width:240px; margin: auto;"">
                                <img src=""images/map23_Blues_scaleRev_orientMir_090.png"" style= ""width:200px""alt=""img"">
                            </div>
                        </div>",0.0925,"",0,"",NA,"","images/map23_Blues_scaleRev_orientMir_090.png","angry",1,23,23,"Blues","orientMir","scaleRev","090",NA,NA
"","","","","","html-slider-response",95,335113,"0.0-91.0","eyafc613q4",46,NA,"<div style=""width:500px;"">
                            <p style=""font-size:50px; font-weight:bold;""
                            >angry</p>
                            <div style=""width:240px; margin: auto;"">
                                <img src=""images/map27_PuRd_scaleDef_orientDef_180.png"" style= ""width:200px""alt=""img"">
                            </div>
                        </div>",0.7325,"",0,"",NA,"","images/map27_PuRd_scaleDef_orientDef_180.png","angry",1,27,27,"PuRd","orientDef","scaleDef","180",NA,NA
"","","","","","html-slider-response",96,336664,"0.0-92.0","eyafc613q4",46,NA,"<div style=""width:500px;"">
                            <p style=""font-size:50px; font-weight:bold;""
                            >angry</p>
                            <div style=""width:240px; margin: auto;"">
                                <img src=""images/map02_GnBu_scaleDef_orientDef_000.png"" style= ""width:200px""alt=""img"">
                            </div>
                        </div>",0.225,"",0,"",NA,"","images/map02_GnBu_scaleDef_orientDef_000.png","angry",1,2,2,"GnBu","orientDef","scaleDef","000",NA,NA
"","","","","","html-slider-response",97,338532,"0.0-93.0","eyafc613q4",46,NA,"<div style=""width:500px;"">
                            <p style=""font-size:50px; font-weight:bold;""
                            >angry</p>
                            <div style=""width:240px; margin: auto;"">
                                <img src=""images/map27_RdPu_scaleDef_orientMir_000.png"" style= ""width:200px""alt=""img"">
                            </div>
                        </div>",0.665,"",0,"",NA,"","images/map27_RdPu_scaleDef_orientMir_000.png","angry",1,27,27,"RdPu","orientMir","scaleDef","000",NA,NA
"","","","","","html-slider-response",98,339996,"0.0-94.0","eyafc613q4",46,NA,"<div style=""width:500px;"">
                            <p style=""font-size:50px; font-weight:bold;""
                            >angry</p>
                            <div style=""width:240px; margin: auto;"">
                                <img src=""images/map23_Greens_scaleDef_orientMir_180.png"" style= ""width:200px""alt=""img"">
                            </div>
                        </div>",0.075,"",0,"",NA,"","images/map23_Greens_scaleDef_orientMir_180.png","angry",1,23,23,"Greens","orientMir","scaleDef","180",NA,NA
"","","","","","html-button-response",99,342069,"0.0-95.0","eyafc613q4",46,1570,"<p>Great Job! You've finished block 1.<br></br> You have 4 block(s) left to go.<br></br></p>",0.5,"",NA,"",NA,"","","",NA,NA,NA,"","","","",NA,NA
"","","","","","html-button-response",100,343270,"0.0-96.0","eyafc613q4",46,1199,"<p>In this block of trials, you will be asked to rate how much you associate each map with:</p > <p style = 'font-size:150%; font-weight: bold'>sad</p><br></br>",0.5,"",NA,"",NA,"","","",NA,NA,NA,"","","","",NA,NA
"","","","","","html-slider-response",101,344732,"0.0-97.0","eyafc613q4",46,NA,"<div style=""width:500px;"">
                            <p style=""font-size:50px; font-weight:bold;""
                            >sad</p>
                            <div style=""width:240px; margin: auto;"">
                                <img src=""images/map13_turbo_scaleRev_orientMir_090.png"" style= ""width:200px""alt=""img"">
                            </div>
                        </div>",0.6475,"",0,"",NA,"","images/map13_turbo_scaleRev_orientMir_090.png","sad",1,13,13,"turbo","orientMir","scaleRev","090",NA,NA
"","","","","","html-slider-response",102,346247,"0.0-98.0","eyafc613q4",46,NA,"<div style=""width:500px;"">
                            <p style=""font-size:50px; font-weight:bold;""
                            >sad</p>
                            <div style=""width:240px; margin: auto;"">
                                <img src=""images/map07_RdBu_scaleDef_orientMir_180.png"" style= ""width:200px""alt=""img"">
                            </div>
                        </div>",0.75,"",0,"",NA,"","images/map07_RdBu_scaleDef_orientMir_180.png","sad",1,7,7,"RdBu","orientMir","scaleDef","180",NA,NA
"","","","","","html-slider-response",103,348717,"0.0-99.0","eyafc613q4",46,NA,"<div style=""width:500px;"">
                            <p style=""font-size:50px; font-weight:bold;""
                            >sad</p>
                            <div style=""width:240px; margin: auto;"">
                                <img src=""images/map07_RdGy_scaleRev_orientMir_090.png"" style= ""width:200px""alt=""img"">
                            </div>
                        </div>",0.22,"",0,"",NA,"","images/map07_RdGy_scaleRev_orientMir_090.png","sad",1,7,7,"RdGy","orientMir","scaleRev","090",NA,NA
"","","","","","html-slider-response",104,350314,"0.0-100.0","eyafc613q4",46,NA,"<div style=""width:500px;"">
                            <p style=""font-size:50px; font-weight:bold;""
                            >sad</p>
                            <div style=""width:240px; margin: auto;"">
                                <img src=""images/map02_PuBuGn_scaleDef_orientMir_180.png"" style= ""width:200px""alt=""img"">
                            </div>
                        </div>",1,"",0,"",NA,"","images/map02_PuBuGn_scaleDef_orientMir_180.png","sad",1,2,2,"PuBuGn","orientMir","scaleDef","180",NA,NA
"","","","","","html-slider-response",105,352016,"0.0-101.0","eyafc613q4",46,NA,"<div style=""width:500px;"">
                            <p style=""font-size:50px; font-weight:bold;""
                            >sad</p>
                            <div style=""width:240px; margin: auto;"">
                                <img src=""images/map12_managua_scaleDef_orientMir_180.png"" style= ""width:200px""alt=""img"">
                            </div>
                        </div>",0.75,"",0,"",NA,"","images/map12_managua_scaleDef_orientMir_180.png","sad",1,12,12,"managua","orientMir","scaleDef","180",NA,NA
"","","","","","html-slider-response",106,353613,"0.0-102.0","eyafc613q4",46,NA,"<div style=""width:500px;"">
                            <p style=""font-size:50px; font-weight:bold;""
                            >sad</p>
                            <div style=""width:240px; margin: auto;"">
                                <img src=""images/map13_vanimo_scaleRev_orientDef_090.png"" style= ""width:200px""alt=""img"">
                            </div>
                        </div>",0.255,"",0,"",NA,"","images/map13_vanimo_scaleRev_orientDef_090.png","sad",1,13,13,"vanimo","orientDef","scaleRev","090",NA,NA
"","","","","","html-slider-response",107,355097,"0.0-103.0","eyafc613q4",46,NA,"<div style=""width:500px;"">
                            <p style=""font-size:50px; font-weight:bold;""
                            >sad</p>
                            <div style=""width:240px; margin: auto;"">
                                <img src=""images/map05_PRGn_scaleDef_orientMir_180.png"" style= ""width:200px""alt=""img"">
                            </div>
                        </div>",0.2125,"",0,"",NA,"","images/map05_PRGn_scaleDef_orientMir_180.png","sad",1,5,5,"PRGn","orientMir","scaleDef","180",NA,NA
"","","","","","html-slider-response",108,357046,"0.0-104.0","eyafc613q4",46,NA,"<div style=""width:500px;"">
                            <p style=""font-size:50px; font-weight:bold;""
                            >sad</p>
                            <div style=""width:240px; margin: auto;"">
                                <img src=""images/map23_Greys_scaleDef_orientDef_000.png"" style= ""width:200px""alt=""img"">
                            </div>
                        </div>",0.985,"",0,"",NA,"","images/map23_Greys_scaleDef_orientDef_000.png","sad",1,23,23,"Greys","orientDef","scaleDef","000",NA,NA
"","","","","","html-slider-response",109,358715,"0.0-105.0","eyafc613q4",46,NA,"<div style=""width:500px;"">
                            <p style=""font-size:50px; font-weight:bold;""
                            >sad</p>
                            <div style=""width:240px; margin: auto;"">
                                <img src=""images/map10_RdYlBu_scaleDef_orientDef_000.png"" style= ""width:200px""alt=""img"">
                            </div>
                        </div>",0.685,"",0,"",NA,"","images/map10_RdYlBu_scaleDef_orientDef_000.png","sad",1,10,10,"RdYlBu","orientDef","scaleDef","000",NA,NA
"","","","","","html-slider-response",110,360313,"0.0-106.0","eyafc613q4",46,NA,"<div style=""width:500px;"">
                            <p style=""font-size:50px; font-weight:bold;""
                            >sad</p>
                            <div style=""width:240px; margin: auto;"">
                                <img src=""images/map05_YlGn_scaleRev_orientDef_270.png"" style= ""width:200px""alt=""img"">
                            </div>
                        </div>",0.3625,"",0,"",NA,"","images/map05_YlGn_scaleRev_orientDef_270.png","sad",1,5,5,"YlGn","orientDef","scaleRev","270",NA,NA
"","","","","","html-slider-response",111,361864,"0.0-107.0","eyafc613q4",46,NA,"<div style=""width:500px;"">
                            <p style=""font-size:50px; font-weight:bold;""
                            >sad</p>
                            <div style=""width:240px; margin: auto;"">
                                <img src=""images/map27_BuPu_scaleRev_orientMir_270.png"" style= ""width:200px""alt=""img"">
                            </div>
                        </div>",0.8775,"",0,"",NA,"","images/map27_BuPu_scaleRev_orientMir_270.png","sad",1,27,27,"BuPu","orientMir","scaleRev","270",NA,NA
"","","","","","html-slider-response",112,363546,"0.0-108.0","eyafc613q4",46,NA,"<div style=""width:500px;"">
                            <p style=""font-size:50px; font-weight:bold;""
                            >sad</p>
                            <div style=""width:240px; margin: auto;"">
                                <img src=""images/map10_Spectral_scaleDef_orientMir_000.png"" style= ""width:200px""alt=""img"">
                            </div>
                        </div>",0.32,"",0,"",NA,"","images/map10_Spectral_scaleDef_orientMir_000.png","sad",1,10,10,"Spectral","orientMir","scaleDef","000",NA,NA
"","","","","","html-slider-response",113,365096,"0.0-109.0","eyafc613q4",46,NA,"<div style=""width:500px;"">
                            <p style=""font-size:50px; font-weight:bold;""
                            >sad</p>
                            <div style=""width:240px; margin: auto;"">
                                <img src=""images/map27_PuRd_scaleRev_orientDef_270.png"" style= ""width:200px""alt=""img"">
                            </div>
                        </div>",0.215,"",0,"",NA,"","images/map27_PuRd_scaleRev_orientDef_270.png","sad",1,27,27,"PuRd","orientDef","scaleRev","270",NA,NA
"","","","","","html-slider-response",114,366597,"0.0-110.0","eyafc613q4",46,NA,"<div style=""width:500px;"">
                            <p style=""font-size:50px; font-weight:bold;""
                            >sad</p>
                            <div style=""width:240px; margin: auto;"">
                                <img src=""images/map23_Blues_scaleRev_orientMir_090.png"" style= ""width:200px""alt=""img"">
                            </div>
                        </div>",1,"",0,"",NA,"","images/map23_Blues_scaleRev_orientMir_090.png","sad",1,23,23,"Blues","orientMir","scaleRev","090",NA,NA
"","","","","","html-slider-response",115,368329,"0.0-111.0","eyafc613q4",46,NA,"<div style=""width:500px;"">
                            <p style=""font-size:50px; font-weight:bold;""
                            >sad</p>
                            <div style=""width:240px; margin: auto;"">
                                <img src=""images/map23_Greys_scaleRev_orientDef_090.png"" style= ""width:200px""alt=""img"">
                            </div>
                        </div>",1,"",0,"",NA,"","images/map23_Greys_scaleRev_orientDef_090.png","sad",1,23,23,"Greys","orientDef","scaleRev","090",NA,NA
"","","","","","html-slider-response",116,370183,"0.0-112.0","eyafc613q4",46,NA,"<div style=""width:500px;"">
                            <p style=""font-size:50px; font-weight:bold;""
                            >sad</p>
                            <div style=""width:240px; margin: auto;"">
                                <img src=""images/map07_PuOr_scaleDef_orientDef_180.png"" style= ""width:200px""alt=""img"">
                            </div>
                        </div>",0.185,"",0,"",NA,"","images/map07_PuOr_scaleDef_orientDef_180.png","sad",1,7,7,"PuOr","orientDef","scaleDef","180",NA,NA
"","","","","","html-slider-response",117,371847,"0.0-113.0","eyafc613q4",46,NA,"<div style=""width:500px;"">
                            <p style=""font-size:50px; font-weight:bold;""
                            >sad</p>
                            <div style=""width:240px; margin: auto;"">
                                <img src=""images/map02_GnBu_scaleRev_orientDef_090.png"" style= ""width:200px""alt=""img"">
                            </div>
                        </div>",1,"",0,"",NA,"","images/map02_GnBu_scaleRev_orientDef_090.png","sad",1,2,2,"GnBu","orientDef","scaleRev","090",NA,NA
"","","","","","html-slider-response",118,373547,"0.0-114.0","eyafc613q4",46,NA,"<div style=""width:500px;"">
                            <p style=""font-size:50px; font-weight:bold;""
                            >sad</p>
                            <div style=""width:240px; margin: auto;"">
                                <img src=""images/map26_YlOrRd_scaleRev_orientMir_270.png"" style= ""width:200px""alt=""img"">
                            </div>
                        </div>",0.3125,"",0,"",NA,"","images/map26_YlOrRd_scaleRev_orientMir_270.png","sad",1,26,26,"YlOrRd","orientMir","scaleRev","270",NA,NA
"","","","","","html-slider-response",119,375313,"0.0-115.0","eyafc613q4",46,NA,"<div style=""width:500px;"">
                            <p style=""font-size:50px; font-weight:bold;""
                            >sad</p>
                            <div style=""width:240px; margin: auto;"">
                                <img src=""images/map27_RdPu_scaleDef_orientMir_000.png"" style= ""width:200px""alt=""img"">
                            </div>
                        </div>",0.235,"",0,"",NA,"","images/map27_RdPu_scaleDef_orientMir_000.png","sad",1,27,27,"RdPu","orientMir","scaleDef","000",NA,NA
"","","","","","html-slider-response",120,376980,"0.0-116.0","eyafc613q4",46,NA,"<div style=""width:500px;"">
                            <p style=""font-size:50px; font-weight:bold;""
                            >sad</p>
                            <div style=""width:240px; margin: auto;"">
                                <img src=""images/map10_RdYlBu_scaleRev_orientDef_090.png"" style= ""width:200px""alt=""img"">
                            </div>
                        </div>",0.6375,"",0,"",NA,"","images/map10_RdYlBu_scaleRev_orientDef_090.png","sad",1,10,10,"RdYlBu","orientDef","scaleRev","090",NA,NA
"","","","","","html-slider-response",121,378864,"0.0-117.0","eyafc613q4",46,NA,"<div style=""width:500px;"">
                            <p style=""font-size:50px; font-weight:bold;""
                            >sad</p>
                            <div style=""width:240px; margin: auto;"">
                                <img src=""images/map26_YlOrRd_scaleDef_orientMir_180.png"" style= ""width:200px""alt=""img"">
                            </div>
                        </div>",0,"",0,"",NA,"","images/map26_YlOrRd_scaleDef_orientMir_180.png","sad",1,26,26,"YlOrRd","orientMir","scaleDef","180",NA,NA
"","","","","","html-slider-response",122,380833,"0.0-118.0","eyafc613q4",46,NA,"<div style=""width:500px;"">
                            <p style=""font-size:50px; font-weight:bold;""
                            >sad</p>
                            <div style=""width:240px; margin: auto;"">
                                <img src=""images/map05_PiYG_scaleDef_orientMir_000.png"" style= ""width:200px""alt=""img"">
                            </div>
                        </div>",0.1825,"",0,"",NA,"","images/map05_PiYG_scaleDef_orientMir_000.png","sad",1,5,5,"PiYG","orientMir","scaleDef","000",NA,NA
"","","","","","html-slider-response",123,382581,"0.0-119.0","eyafc613q4",46,NA,"<div style=""width:500px;"">
                            <p style=""font-size:50px; font-weight:bold;""
                            >sad</p>
                            <div style=""width:240px; margin: auto;"">
                                <img src=""images/map02_PuBu_scaleRev_orientDef_270.png"" style= ""width:200px""alt=""img"">
                            </div>
                        </div>",1,"",0,"",NA,"","images/map02_PuBu_scaleRev_orientDef_270.png","sad",1,2,2,"PuBu","orientDef","scaleRev","270",NA,NA
"","","","","","html-slider-response",124,384233,"0.0-120.0","eyafc613q4",46,NA,"<div style=""width:500px;"">
                            <p style=""font-size:50px; font-weight:bold;""
                            >sad</p>
                            <div style=""width:240px; margin: auto;"">
                                <img src=""images/map23_Purples_scaleRev_orientDef_270.png"" style= ""width:200px""alt=""img"">
                            </div>
                        </div>",0.035,"",0,"",NA,"","images/map23_Purples_scaleRev_orientDef_270.png","sad",1,23,23,"Purples","orientDef","scaleRev","270",NA,NA
"","","","","","html-slider-response",125,385882,"0.0-121.0","eyafc613q4",46,NA,"<div style=""width:500px;"">
                            <p style=""font-size:50px; font-weight:bold;""
                            >sad</p>
                            <div style=""width:240px; margin: auto;"">
                                <img src=""images/map12_berlin_scaleDef_orientMir_000.png"" style= ""width:200px""alt=""img"">
                            </div>
                        </div>",0.2175,"",0,"",NA,"","images/map12_berlin_scaleDef_orientMir_000.png","sad",1,12,12,"berlin","orientMir","scaleDef","000",NA,NA
"","","","","","html-slider-response",126,387564,"0.0-122.0","eyafc613q4",46,NA,"<div style=""width:500px;"">
                            <p style=""font-size:50px; font-weight:bold;""
                            >sad</p>
                            <div style=""width:240px; margin: auto;"">
                                <img src=""images/map15_plasma_scaleDef_orientDef_000.png"" style= ""width:200px""alt=""img"">
                            </div>
                        </div>",0,"",0,"",NA,"","images/map15_plasma_scaleDef_orientDef_000.png","sad",1,15,15,"plasma","orientDef","scaleDef","000",NA,NA
"","","","","","html-slider-response",127,389199,"0.0-123.0","eyafc613q4",46,NA,"<div style=""width:500px;"">
                            <p style=""font-size:50px; font-weight:bold;""
                            >sad</p>
                            <div style=""width:240px; margin: auto;"">
                                <img src=""images/map10_coolwarm_scaleRev_orientMir_270.png"" style= ""width:200px""alt=""img"">
                            </div>
                        </div>",0.685,"",0,"",NA,"","images/map10_coolwarm_scaleRev_orientMir_270.png","sad",1,10,10,"coolwarm","orientMir","scaleRev","270",NA,NA
"","","","","","html-slider-response",128,390683,"0.0-124.0","eyafc613q4",46,NA,"<div style=""width:500px;"">
                            <p style=""font-size:50px; font-weight:bold;""
                            >sad</p>
                            <div style=""width:240px; margin: auto;"">
                                <img src=""images/map15_magma_scaleDef_orientMir_000.png"" style= ""width:200px""alt=""img"">
                            </div>
                        </div>",0.1,"",0,"",NA,"","images/map15_magma_scaleDef_orientMir_000.png","sad",1,15,15,"magma","orientMir","scaleDef","000",NA,NA
"","","","","","html-slider-response",129,393349,"0.0-125.0","eyafc613q4",46,NA,"<div style=""width:500px;"">
                            <p style=""font-size:50px; font-weight:bold;""
                            >sad</p>
                            <div style=""width:240px; margin: auto;"">
                                <img src=""images/map05_PiYG_scaleRev_orientMir_090.png"" style= ""width:200px""alt=""img"">
                            </div>
                        </div>",0.03,"",0,"",NA,"","images/map05_PiYG_scaleRev_orientMir_090.png","sad",1,5,5,"PiYG","orientMir","scaleRev","090",NA,NA
"","","","","","html-slider-response",130,395017,"0.0-126.0","eyafc613q4",46,NA,"<div style=""width:500px;"">
                            <p style=""font-size:50px; font-weight:bold;""
                            >sad</p>
                            <div style=""width:240px; margin: auto;"">
                                <img src=""images/map05_PRGn_scaleRev_orientMir_270.png"" style= ""width:200px""alt=""img"">
                            </div>
                        </div>",0,"",0,"",NA,"","images/map05_PRGn_scaleRev_orientMir_270.png","sad",1,5,5,"PRGn","orientMir","scaleRev","270",NA,NA
"","","","","","html-slider-response",131,396998,"0.0-127.0","eyafc613q4",46,NA,"<div style=""width:500px;"">
                            <p style=""font-size:50px; font-weight:bold;""
                            >sad</p>
                            <div style=""width:240px; margin: auto;"">
                                <img src=""images/map02_GnBu_scaleDef_orientDef_000.png"" style= ""width:200px""alt=""img"">
                            </div>
                        </div>",1,"",0,"",NA,"","images/map02_GnBu_scaleDef_orientDef_000.png","sad",1,2,2,"GnBu","orientDef","scaleDef","000",NA,NA
"","","","","","html-slider-response",132,398482,"0.0-128.0","eyafc613q4",46,NA,"<div style=""width:500px;"">
                            <p style=""font-size:50px; font-weight:bold;""
                            >sad</p>
                            <div style=""width:240px; margin: auto;"">
                                <img src=""images/map15_plasma_scaleRev_orientDef_090.png"" style= ""width:200px""alt=""img"">
                            </div>
                        </div>",0.0925,"",0,"",NA,"","images/map15_plasma_scaleRev_orientDef_090.png","sad",1,15,15,"plasma","orientDef","scaleRev","090",NA,NA
"","","","","","html-slider-response",133,400264,"0.0-129.0","eyafc613q4",46,NA,"<div style=""width:500px;"">
                            <p style=""font-size:50px; font-weight:bold;""
                            >sad</p>
                            <div style=""width:240px; margin: auto;"">
                                <img src=""images/map27_OrRd_scaleRev_orientDef_090.png"" style= ""width:200px""alt=""img"">
                            </div>
                        </div>",1,"",0,"",NA,"","images/map27_OrRd_scaleRev_orientDef_090.png","sad",1,27,27,"OrRd","orientDef","scaleRev","090",NA,NA
"","","","","","html-slider-response",134,402415,"0.0-130.0","eyafc613q4",46,NA,"<div style=""width:500px;"">
                            <p style=""font-size:50px; font-weight:bold;""
                            >sad</p>
                            <div style=""width:240px; margin: auto;"">
                                <img src=""images/map02_PuBu_scaleDef_orientDef_180.png"" style= ""width:200px""alt=""img"">
                            </div>
                        </div>",1,"",0,"",NA,"","images/map02_PuBu_scaleDef_orientDef_180.png","sad",1,2,2,"PuBu","orientDef","scaleDef","180",NA,NA
"","","","","","html-slider-response",135,404148,"0.0-131.0","eyafc613q4",46,NA,"<div style=""width:500px;"">
                            <p style=""font-size:50px; font-weight:bold;""
                            >sad</p>
                            <div style=""width:240px; margin: auto;"">
                                <img src=""images/map12_seismic_scaleDef_orientDef_180.png"" style= ""width:200px""alt=""img"">
                            </div>
                        </div>",0.2,"",0,"",NA,"","images/map12_seismic_scaleDef_orientDef_180.png","sad",1,12,12,"seismic","orientDef","scaleDef","180",NA,NA
"","","","","","html-slider-response",136,405797,"0.0-132.0","eyafc613q4",46,NA,"<div style=""width:500px;"">
                            <p style=""font-size:50px; font-weight:bold;""
                            >sad</p>
                            <div style=""width:240px; margin: auto;"">
                                <img src=""images/map05_BuGn_scaleRev_orientDef_090.png"" style= ""width:200px""alt=""img"">
                            </div>
                        </div>",0.16,"",0,"",NA,"","images/map05_BuGn_scaleRev_orientDef_090.png","sad",1,5,5,"BuGn","orientDef","scaleRev","090",NA,NA
"","","","","","html-slider-response",137,407616,"0.0-133.0","eyafc613q4",46,NA,"<div style=""width:500px;"">
                            <p style=""font-size:50px; font-weight:bold;""
                            >sad</p>
                            <div style=""width:240px; margin: auto;"">
                                <img src=""images/map12_bwr_scaleDef_orientDef_000.png"" style= ""width:200px""alt=""img"">
                            </div>
                        </div>",0,"",0,"",NA,"","images/map12_bwr_scaleDef_orientDef_000.png","sad",1,12,12,"bwr","orientDef","scaleDef","000",NA,NA
"","","","","","html-slider-response",138,409399,"0.0-134.0","eyafc613q4",46,NA,"<div style=""width:500px;"">
                            <p style=""font-size:50px; font-weight:bold;""
                            >sad</p>
                            <div style=""width:240px; margin: auto;"">
                                <img src=""images/map26_Reds_scaleRev_orientDef_270.png"" style= ""width:200px""alt=""img"">
                            </div>
                        </div>",0,"",0,"",NA,"","images/map26_Reds_scaleRev_orientDef_270.png","sad",1,26,26,"Reds","orientDef","scaleRev","270",NA,NA
"","","","","","html-slider-response",139,411197,"0.0-135.0","eyafc613q4",46,NA,"<div style=""width:500px;"">
                            <p style=""font-size:50px; font-weight:bold;""
                            >sad</p>
                            <div style=""width:240px; margin: auto;"">
                                <img src=""images/map12_bwr_scaleRev_orientDef_090.png"" style= ""width:200px""alt=""img"">
                            </div>
                        </div>",0.7675,"",0,"",NA,"","images/map12_bwr_scaleRev_orientDef_090.png","sad",1,12,12,"bwr","orientDef","scaleRev","090",NA,NA
"","","","","","html-slider-response",140,413582,"0.0-136.0","eyafc613q4",46,NA,"<div style=""width:500px;"">
                            <p style=""font-size:50px; font-weight:bold;""
                            >sad</p>
                            <div style=""width:240px; margin: auto;"">
                                <img src=""images/map05_BuGn_scaleDef_orientDef_000.png"" style= ""width:200px""alt=""img"">
                            </div>
                        </div>",0.695,"",0,"",NA,"","images/map05_BuGn_scaleDef_orientDef_000.png","sad",1,5,5,"BuGn","orientDef","scaleDef","000",NA,NA
"","","","","","html-button-response",141,481186,"0.0-137.0","eyafc613q4",46,67102,"<p>You are doing great!<br></br> You are halway done with the current block. When you are ready to continue, click the 'Continue' button.</p>",0.5,"",NA,"",NA,"","","",NA,NA,NA,"","","","",NA,NA
"","","","","","html-slider-response",142,482864,"0.0-138.0","eyafc613q4",46,NA,"<div style=""width:500px;"">
                            <p style=""font-size:50px; font-weight:bold;""
                            >sad</p>
                            <div style=""width:240px; margin: auto;"">
                                <img src=""images/map02_YlGnBu_scaleRev_orientMir_090.png"" style= ""width:200px""alt=""img"">
                            </div>
                        </div>",1,"",0,"",NA,"","images/map02_YlGnBu_scaleRev_orientMir_090.png","sad",1,2,2,"YlGnBu","orientMir","scaleRev","090",NA,NA
"","","","","","html-slider-response",143,484716,"0.0-139.0","eyafc613q4",46,NA,"<div style=""width:500px;"">
                            <p style=""font-size:50px; font-weight:bold;""
                            >sad</p>
                            <div style=""width:240px; margin: auto;"">
                                <img src=""images/map13_vanimo_scaleDef_orientDef_000.png"" style= ""width:200px""alt=""img"">
                            </div>
                        </div>",0.2,"",0,"",NA,"","images/map13_vanimo_scaleDef_orientDef_000.png","sad",1,13,13,"vanimo","orientDef","scaleDef","000",NA,NA
"","","","","","html-slider-response",144,486180,"0.0-140.0","eyafc613q4",46,NA,"<div style=""width:500px;"">
                            <p style=""font-size:50px; font-weight:bold;""
                            >sad</p>
                            <div style=""width:240px; margin: auto;"">
                                <img src=""images/map10_RdYlGn_scaleRev_orientDef_270.png"" style= ""width:200px""alt=""img"">
                            </div>
                        </div>",0.5625,"",0,"",NA,"","images/map10_RdYlGn_scaleRev_orientDef_270.png","sad",1,10,10,"RdYlGn","orientDef","scaleRev","270",NA,NA
"","","","","","html-slider-response",145,490447,"0.0-141.0","eyafc613q4",46,NA,"<div style=""width:500px;"">
                            <p style=""font-size:50px; font-weight:bold;""
                            >sad</p>
                            <div style=""width:240px; margin: auto;"">
                                <img src=""images/map26_Oranges_scaleDef_orientDef_000.png"" style= ""width:200px""alt=""img"">
                            </div>
                        </div>",0,"",0,"",NA,"","images/map26_Oranges_scaleDef_orientDef_000.png","sad",1,26,26,"Oranges","orientDef","scaleDef","000",NA,NA
"","","","","","html-slider-response",146,492401,"0.0-142.0","eyafc613q4",46,NA,"<div style=""width:500px;"">
                            <p style=""font-size:50px; font-weight:bold;""
                            >sad</p>
                            <div style=""width:240px; margin: auto;"">
                                <img src=""images/map27_RdPu_scaleRev_orientMir_090.png"" style= ""width:200px""alt=""img"">
                            </div>
                        </div>",0.1375,"",0,"",NA,"","images/map27_RdPu_scaleRev_orientMir_090.png","sad",1,27,27,"RdPu","orientMir","scaleRev","090",NA,NA
"","","","","","html-slider-response",147,494199,"0.0-143.0","eyafc613q4",46,NA,"<div style=""width:500px;"">
                            <p style=""font-size:50px; font-weight:bold;""
                            >sad</p>
                            <div style=""width:240px; margin: auto;"">
                                <img src=""images/map27_OrRd_scaleDef_orientDef_000.png"" style= ""width:200px""alt=""img"">
                            </div>
                        </div>",0.0725,"",0,"",NA,"","images/map27_OrRd_scaleDef_orientDef_000.png","sad",1,27,27,"OrRd","orientDef","scaleDef","000",NA,NA
"","","","","","html-slider-response",148,496332,"0.0-144.0","eyafc613q4",46,NA,"<div style=""width:500px;"">
                            <p style=""font-size:50px; font-weight:bold;""
                            >sad</p>
                            <div style=""width:240px; margin: auto;"">
                                <img src=""images/map12_seismic_scaleRev_orientDef_270.png"" style= ""width:200px""alt=""img"">
                            </div>
                        </div>",0.5975,"",0,"",NA,"","images/map12_seismic_scaleRev_orientDef_270.png","sad",1,12,12,"seismic","orientDef","scaleRev","270",NA,NA
"","","","","","html-slider-response",149,497881,"0.0-145.0","eyafc613q4",46,NA,"<div style=""width:500px;"">
                            <p style=""font-size:50px; font-weight:bold;""
                            >sad</p>
                            <div style=""width:240px; margin: auto;"">
                                <img src=""images/map15_cividis_scaleRev_orientMir_270.png"" style= ""width:200px""alt=""img"">
                            </div>
                        </div>",0.8925,"",0,"",NA,"","images/map15_cividis_scaleRev_orientMir_270.png","sad",1,15,15,"cividis","orientMir","scaleRev","270",NA,NA
"","","","","","html-slider-response",150,500014,"0.0-146.0","eyafc613q4",46,NA,"<div style=""width:500px;"">
                            <p style=""font-size:50px; font-weight:bold;""
                            >sad</p>
                            <div style=""width:240px; margin: auto;"">
                                <img src=""images/map10_RdYlGn_scaleDef_orientDef_180.png"" style= ""width:200px""alt=""img"">
                            </div>
                        </div>",0.2575,"",0,"",NA,"","images/map10_RdYlGn_scaleDef_orientDef_180.png","sad",1,10,10,"RdYlGn","orientDef","scaleDef","180",NA,NA
"","","","","","html-slider-response",151,501665,"0.0-147.0","eyafc613q4",46,NA,"<div style=""width:500px;"">
                            <p style=""font-size:50px; font-weight:bold;""
                            >sad</p>
                            <div style=""width:240px; margin: auto;"">
                                <img src=""images/map26_Oranges_scaleRev_orientDef_090.png"" style= ""width:200px""alt=""img"">
                            </div>
                        </div>",0.2775,"",0,"",NA,"","images/map26_Oranges_scaleRev_orientDef_090.png","sad",1,26,26,"Oranges","orientDef","scaleRev","090",NA,NA
"","","","","","html-slider-response",152,503281,"0.0-148.0","eyafc613q4",46,NA,"<div style=""width:500px;"">
                            <p style=""font-size:50px; font-weight:bold;""
                            >sad</p>
                            <div style=""width:240px; margin: auto;"">
                                <img src=""images/map23_Greens_scaleDef_orientMir_180.png"" style= ""width:200px""alt=""img"">
                            </div>
                        </div>",0.765,"",0,"",NA,"","images/map23_Greens_scaleDef_orientMir_180.png","sad",1,23,23,"Greens","orientMir","scaleDef","180",NA,NA
"","","","","","html-slider-response",153,504765,"0.0-149.0","eyafc613q4",46,NA,"<div style=""width:500px;"">
                            <p style=""font-size:50px; font-weight:bold;""
                            >sad</p>
                            <div style=""width:240px; margin: auto;"">
                                <img src=""images/map13_turbo_scaleDef_orientMir_000.png"" style= ""width:200px""alt=""img"">
                            </div>
                        </div>",0.7675,"",0,"",NA,"","images/map13_turbo_scaleDef_orientMir_000.png","sad",1,13,13,"turbo","orientMir","scaleDef","000",NA,NA
"","","","","","html-slider-response",154,506382,"0.0-150.0","eyafc613q4",46,NA,"<div style=""width:500px;"">
                            <p style=""font-size:50px; font-weight:bold;""
                            >sad</p>
                            <div style=""width:240px; margin: auto;"">
                                <img src=""images/map27_BuPu_scaleDef_orientMir_180.png"" style= ""width:200px""alt=""img"">
                            </div>
                        </div>",0.895,"",0,"",NA,"","images/map27_BuPu_scaleDef_orientMir_180.png","sad",1,27,27,"BuPu","orientMir","scaleDef","180",NA,NA
"","","","","","html-slider-response",155,507799,"0.0-151.0","eyafc613q4",46,NA,"<div style=""width:500px;"">
                            <p style=""font-size:50px; font-weight:bold;""
                            >sad</p>
                            <div style=""width:240px; margin: auto;"">
                                <img src=""images/map23_Blues_scaleDef_orientMir_000.png"" style= ""width:200px""alt=""img"">
                            </div>
                        </div>",0.985,"",0,"",NA,"","images/map23_Blues_scaleDef_orientMir_000.png","sad",1,23,23,"Blues","orientMir","scaleDef","000",NA,NA
"","","","","","html-slider-response",156,509532,"0.0-152.0","eyafc613q4",46,NA,"<div style=""width:500px;"">
                            <p style=""font-size:50px; font-weight:bold;""
                            >sad</p>
                            <div style=""width:240px; margin: auto;"">
                                <img src=""images/map23_Greens_scaleRev_orientMir_270.png"" style= ""width:200px""alt=""img"">
                            </div>
                        </div>",0.75,"",0,"",NA,"","images/map23_Greens_scaleRev_orientMir_270.png","sad",1,23,23,"Greens","orientMir","scaleRev","270",NA,NA
"","","","","","html-slider-response",157,511047,"0.0-153.0","eyafc613q4",46,NA,"<div style=""width:500px;"">
                            <p style=""font-size:50px; font-weight:bold;""
                            >sad</p>
                            <div style=""width:240px; margin: auto;"">
                                <img src=""images/map07_PuOr_scaleRev_orientDef_270.png"" style= ""width:200px""alt=""img"">
                            </div>
                        </div>",0.585,"",0,"",NA,"","images/map07_PuOr_scaleRev_orientDef_270.png","sad",1,7,7,"PuOr","orientDef","scaleRev","270",NA,NA
"","","","","","html-slider-response",158,512665,"0.0-154.0","eyafc613q4",46,NA,"<div style=""width:500px;"">
                            <p style=""font-size:50px; font-weight:bold;""
                            >sad</p>
                            <div style=""width:240px; margin: auto;"">
                                <img src=""images/map07_BrBG_scaleDef_orientDef_000.png"" style= ""width:200px""alt=""img"">
                            </div>
                        </div>",0.62,"",0,"",NA,"","images/map07_BrBG_scaleDef_orientDef_000.png","sad",1,7,7,"BrBG","orientDef","scaleDef","000",NA,NA
"","","","","","html-slider-response",159,514114,"0.0-155.0","eyafc613q4",46,NA,"<div style=""width:500px;"">
                            <p style=""font-size:50px; font-weight:bold;""
                            >sad</p>
                            <div style=""width:240px; margin: auto;"">
                                <img src=""images/map05_YlGn_scaleDef_orientDef_180.png"" style= ""width:200px""alt=""img"">
                            </div>
                        </div>",0.7275,"",0,"",NA,"","images/map05_YlGn_scaleDef_orientDef_180.png","sad",1,5,5,"YlGn","orientDef","scaleDef","180",NA,NA
"","","","","","html-slider-response",160,515615,"0.0-156.0","eyafc613q4",46,NA,"<div style=""width:500px;"">
                            <p style=""font-size:50px; font-weight:bold;""
                            >sad</p>
                            <div style=""width:240px; margin: auto;"">
                                <img src=""images/map26_Reds_scaleDef_orientDef_180.png"" style= ""width:200px""alt=""img"">
                            </div>
                        </div>",0.165,"",0,"",NA,"","images/map26_Reds_scaleDef_orientDef_180.png","sad",1,26,26,"Reds","orientDef","scaleDef","180",NA,NA
"","","","","","html-slider-response",161,517197,"0.0-157.0","eyafc613q4",46,NA,"<div style=""width:500px;"">
                            <p style=""font-size:50px; font-weight:bold;""
                            >sad</p>
                            <div style=""width:240px; margin: auto;"">
                                <img src=""images/map26_YlOrBr_scaleRev_orientMir_090.png"" style= ""width:200px""alt=""img"">
                            </div>
                        </div>",0.4425,"",0,"",NA,"","images/map26_YlOrBr_scaleRev_orientMir_090.png","sad",1,26,26,"YlOrBr","orientMir","scaleRev","090",NA,NA
"","","","","","html-slider-response",162,518747,"0.0-158.0","eyafc613q4",46,NA,"<div style=""width:500px;"">
                            <p style=""font-size:50px; font-weight:bold;""
                            >sad</p>
                            <div style=""width:240px; margin: auto;"">
                                <img src=""images/map15_inferno_scaleRev_orientDef_270.png"" style= ""width:200px""alt=""img"">
                            </div>
                        </div>",0.5575,"",0,"",NA,"","images/map15_inferno_scaleRev_orientDef_270.png","sad",1,15,15,"inferno","orientDef","scaleRev","270",NA,NA
"","","","","","html-slider-response",163,520248,"0.0-159.0","eyafc613q4",46,NA,"<div style=""width:500px;"">
                            <p style=""font-size:50px; font-weight:bold;""
                            >sad</p>
                            <div style=""width:240px; margin: auto;"">
