"success","timeout","failed_images","failed_audio","failed_video","trial_type","trial_index","time_elapsed","internal_node_id","subject_id","condition_num","rt","stimulus","response","question_order","slider_start","practiceTrial","practiceTrialNum","correct","image_path","concept","repetition","map_id","map_num","scale_name","orientation_code","mapping_code","rotation_code","ishihara_plate","correct_response"
"true","false","[]","[]","[]","preload",0,539,"0.0-0.0","hwors81j0l",0,NA,"",NA,"",NA,"",NA,"","","",NA,NA,NA,"","","","",NA,NA
"","","","","","html-button-response",1,3276,"0.0-1.0","hwors81j0l",0,2736,"Welcome to our experiment!<p>At the bottom of this screen, you will see a button that says ""Begin Experiment"".<br>Please only click that button when you are ready to complete the 30 minute experiment in one sitting.</p><p> Once you click that button, it will not be possible to restart the experiment.",0.5,"",NA,"",NA,"","","",NA,NA,NA,"","","","",NA,NA
"true","","","","","fullscreen",2,5360,"0.0-2.0","hwors81j0l",0,1081,"",NA,"",NA,"",NA,"","","",NA,NA,NA,"","","","",NA,NA
"","","","","","survey-multi-select",3,16976,"0.0-3.0","hwors81j0l",0,11611,"",NA,"[0]",NA,"",NA,"","","",NA,NA,NA,"","","","",NA,NA
"","","","","","html-button-response",4,18291,"0.0-4.0","hwors81j0l",0,1314,"Welcome! <p> This experiment involves two parts: demographic information, followed by the experimental task.<p> It will take about 30 minutes to complete both parts.",0.5,"",NA,"",NA,"","","",NA,NA,NA,"","","","",NA,NA
"","","","","","survey-text",5,28643,"0.0-5.0","hwors81j0l",0,10346,"",NA,"",NA,"",NA,"","","",NA,NA,NA,"","","","",NA,NA
"","","","","","html-slider-response",6,42875,"0.0-6.0","hwors81j0l",0,14229,"<div style='text-align:left; font-size:20px; line-height:25px; width: 1000px;'>
                                During this experiment you will be asked to rate how much you associate maps with                    different concepts.<br> Below, you can see some examples of the maps you will be asked to rate. Above the maps
                    is the list of concepts.<br>You will be asked                    to rate how much you associate each map with each concept on a scale from 'not at all' to 'very much' like the
                    one below. <br><br>
                    Now, please look at the list of concepts and maps. For each concept, think about the map you associate 'very
                    much' with the concept.<br>                     When you see that map during the experiment, please rate it near the 'very much' endpoint of the
                    scale.<br>Now, please think about which map you associate 'not at all'                     with each concept. When you see that map during the experiment, please rate it near the 'not at all' endpoint
                    of the scale.<br>
                    Please use the full range of the scale. That is, if a map is somewhat associated with the concept, you would
                    click partway between the middle point and right side of the scale.                    You will be asked to rate each map for a given concept before moving on to the next concept.<br>Press the
                    'Continue' button for instructions on how to use the slider.                    <br>
                </div>

                <div style=""width: 500px; margin: 0 auto;"">
                    <!-- Centered text paragraphs -->
                    <div style=""text-align: center; width: 500px;"">
                        <p style=""font-size:25px; line-height:15px;"">
                            happy&nbsp;&nbsp;&nbsp;&nbsp;
                            angry&nbsp;&nbsp;&nbsp;&nbsp;
                            sad&nbsp;&nbsp;&nbsp;&nbsp;
                            fearful&nbsp;&nbsp;&nbsp;&nbsp;
                            disgust
                        </p>
                        <!-- <p style=""font-size:20px; line-height:15px;"">angry</p>
                        <p style=""font-size:20px;line-height:15px;"">sad</p>
                        <p style=""font-size:20px;line-height:15px;"">fearful</p>
                        <p style=""font-size:20px;line-height:15px;"">disgust</p> -->
                    </div>
            

                    <!-- Grid section -->
                   <div style=""display: flex; justify-content: center; padding-top: 15px;"">
                    <div style=""display: grid; grid-template-columns: repeat(10, 55px); grid-gap: 5px; width: auto;"">
                        <img src=""images/map12_BuPu_scaleRev_orientDef_090.png"" alt=""map"" style=""width: 100%;""><img src=""images/map26_coolwarm_scaleDef_orientDef_000.png"" alt=""map"" style=""width: 100%;""><img src=""images/map27_vanimo_scaleDef_orientDef_180.png"" alt=""map"" style=""width: 100%;""><img src=""images/map13_PiYG_scaleDef_orientMir_180.png"" alt=""map"" style=""width: 100%;""><img src=""images/map12_GnBu_scaleDef_orientDef_180.png"" alt=""map"" style=""width: 100%;""><img src=""images/map10_OrRd_scaleRev_orientDef_270.png"" alt=""map"" style=""width: 100%;""><img src=""images/map10_RdPu_scaleDef_orientMir_180.png"" alt=""map"" style=""width: 100%;""><img src=""images/map02_magma_scaleRev_orientMir_270.png"" alt=""map"" style=""width: 100%;""><img src=""images/map12_PuBu_scaleDef_orientMir_000.png"" alt=""map"" style=""width: 100%;""><img src=""images/map26_bwr_scaleDef_orientDef_180.png"" alt=""map"" style=""width: 100%;""><img src=""images/map15_PRGn_scaleDef_orientDef_000.png"" alt=""map"" style=""width: 100%;""><img src=""images/map07_Reds_scaleRev_orientMir_090.png"" alt=""map"" style=""width: 100%;""><img src=""images/map12_YlGnBu_scaleRev_orientMir_270.png"" alt=""map"" style=""width: 100%;""><img src=""images/map02_inferno_scaleRev_orientMir_090.png"" alt=""map"" style=""width: 100%;""><img src=""images/map27_gist_earth_scaleRev_orientMir_090.png"" alt=""map"" style=""width: 100%;""><img src=""images/map07_YlOrBr_scaleRev_orientMir_270.png"" alt=""map"" style=""width: 100%;""><img src=""images/map27_managua_scaleDef_orientDef_000.png"" alt=""map"" style=""width: 100%;""><img src=""images/map05_Blues_scaleDef_orientMir_180.png"" alt=""map"" style=""width: 100%;""><img src=""images/map15_BrBG_scaleRev_orientDef_270.png"" alt=""map"" style=""width: 100%;""><img src=""images/map07_Greens_scaleRev_orientDef_090.png"" alt=""map"" style=""width: 100%;""><img src=""images/map13_YlGn_scaleRev_orientMir_090.png"" alt=""map"" style=""width: 100%;""><img src=""images/map05_Purples_scaleDef_orientMir_000.png"" alt=""map"" style=""width: 100%;""><img src=""images/map10_YlOrRd_scaleDef_orientDef_000.png"" alt=""map"" style=""width: 100%;""><img src=""images/map13_PuBuGn_scaleDef_orientDef_000.png"" alt=""map"" style=""width: 100%;""><img src=""images/map02_viridis_scaleRev_orientDef_090.png"" alt=""map"" style=""width: 100%;""><img src=""images/map23_RdYlGn_scaleRev_orientMir_090.png"" alt=""map"" style=""width: 100%;""><img src=""images/map23_Spectral_scaleDef_orientMir_180.png"" alt=""map"" style=""width: 100%;""><img src=""images/map23_RdYlBu_scaleDef_orientDef_180.png"" alt=""map"" style=""width: 100%;""><img src=""images/map13_BuGn_scaleRev_orientDef_270.png"" alt=""map"" style=""width: 100%;""><img src=""images/map27_turbo_scaleDef_orientMir_180.png"" alt=""map"" style=""width: 100%;""><img src=""images/map15_RdGy_scaleDef_orientMir_180.png"" alt=""map"" style=""width: 100%;""><img src=""images/map05_Greys_scaleRev_orientDef_270.png"" alt=""map"" style=""width: 100%;""><img src=""images/map05_cividis_scaleDef_orientDef_000.png"" alt=""map"" style=""width: 100%;""><img src=""images/map15_PuOr_scaleRev_orientMir_090.png"" alt=""map"" style=""width: 100%;""><img src=""images/map26_berlin_scaleDef_orientMir_180.png"" alt=""map"" style=""width: 100%;""><img src=""images/map10_PuRd_scaleRev_orientMir_090.png"" alt=""map"" style=""width: 100%;""><img src=""images/map26_seismic_scaleRev_orientMir_090.png"" alt=""map"" style=""width: 100%;""><img src=""images/map23_RdBu_scaleDef_orientDef_000.png"" alt=""map"" style=""width: 100%;""><img src=""images/map02_plasma_scaleRev_orientDef_270.png"" alt=""map"" style=""width: 100%;""><img src=""images/map07_Oranges_scaleRev_orientDef_270.png"" alt=""map"" style=""width: 100%;"">
                    </div>
                </div>

                    <!-- Clear floats -->
                    <div style=""clear: both;""></div>
                </div>
                            ",NA,"",0,"true",NA,"","","",NA,NA,NA,"","","","",NA,NA
"","","","","","html-button-response",7,43974,"0.0-7.0","hwors81j0l",0,1098,"<div style=""width:800px;""><p style=""text-align:left"">To move the slider, click and drag your cursor to the location of the scale where you would like to make your rating and then let go. When you let go of the slider, your response will be recorded and the next trial will begin. <br>
                    We are interested in your initial impressions of each map for the given concept, so please go with your first intuition. <br>
                    Before you begin the experiment, there will be four training trials for you to practice using the scale. <br>
                     When you are ready to start the training trials, please click ""Continue"".</p><br></div>",0.5,"",NA,"",NA,"","","",NA,NA,NA,"","","","",NA,NA
"","","","","","html-slider-response",8,46869,"0.0-8.0-0.0","hwors81j0l",0,NA,"<div style=""width:500px;"">
                                    <p style=""font-size:25px;"">Please move the slider all the way to the <br> right endpoint of the scale</p>

                                    </div>
                                </div>",1,"",0,"true",0,"true","","",NA,NA,NA,"","","","",NA,NA
"","","","","","html-button-response",9,48525,"0.0-8.0-1.0","hwors81j0l",0,1152,"<p align='center'><b>Good job!</b> Click on 'Continue' to proceed.</p>",0.5,"",NA,"",NA,"","","",NA,NA,NA,"","","","",NA,NA
"","","","","","html-slider-response",10,50253,"0.0-9.0-0.0","hwors81j0l",0,NA,"<div style=""width:500px;"">
                                    <p style=""font-size:25px;"">Please move the slider all the way to the <br> left endpoint of the scale</p>

                                    </div>
                                </div>",0,"",0,"true",1,"true","","",NA,NA,NA,"","","","",NA,NA
"","","","","","html-button-response",11,51725,"0.0-9.0-1.0","hwors81j0l",0,970,"<p align='center'><b>Good job!</b> Click on 'Continue' to proceed.</p>",0.5,"",NA,"",NA,"","","",NA,NA,NA,"","","","",NA,NA
"","","","","","html-slider-response",12,56669,"0.0-10.0-0.0","hwors81j0l",0,NA,"<div style=""width:500px;"">
                                    <p style=""font-size:25px;"">Please move the slider halfway between the center and right endpoint of the scale</p>

                                    </div>
                                </div>",0.7575,"",0,"true",2,"true","","",NA,NA,NA,"","","","",NA,NA
"","","","","","html-button-response",13,57941,"0.0-10.0-1.0","hwors81j0l",0,769,"<p align='center'><b>Good job!</b> Click on 'Continue' to proceed.</p>",0.5,"",NA,"",NA,"","","",NA,NA,NA,"","","","",NA,NA
"","","","","","html-slider-response",14,60452,"0.0-11.0-0.0","hwors81j0l",0,NA,"<div style=""width:500px;"">
                                    <p style=""font-size:25px;"">Please move the slider halfway between the center and left endpoint of the scale</p>

                                    </div>
                                </div>",0.235,"",0,"true",3,"true","","",NA,NA,NA,"","","","",NA,NA
"","","","","","html-button-response",15,61574,"0.0-11.0-1.0","hwors81j0l",0,620,"<p align='center'><b>Good job!</b> Click on 'Continue' to proceed.</p>",0.5,"",NA,"",NA,"","","",NA,NA,NA,"","","","",NA,NA
"","","","","","html-button-response",16,62874,"0.0-12.0","hwors81j0l",0,1299,"<p>Great job! You've completed the practice trials. Now you will begin the main task.</p>",0.5,"",NA,"",NA,"","","",NA,NA,NA,"","","","",NA,NA
"","","","","","html-button-response",17,65491,"0.0-13.0","hwors81j0l",0,2616,"<p>In this block of trials, you will be asked to rate how much you associate each map with:</p > <p style = 'font-size:150%; font-weight: bold'>happy</p><br></br>",0.5,"",NA,"",NA,"","","",NA,NA,NA,"","","","",NA,NA
"","","","","","html-slider-response",18,69102,"0.0-14.0","hwors81j0l",0,NA,"<div style=""width:500px;"">
                            <p style=""font-size:50px; font-weight:bold;""
                            >happy</p>
                            <div style=""width:240px; margin: auto;"">
                                <img src=""images/map27_managua_scaleDef_orientDef_000.png"" style= ""width:200px""alt=""img"">
                            </div>
                        </div>",0.715,"",0,"",NA,"","images/map27_managua_scaleDef_orientDef_000.png","happy",1,27,27,"managua","orientDef","scaleDef","000",NA,NA
"","","","","","html-slider-response",19,70954,"0.0-15.0","hwors81j0l",0,NA,"<div style=""width:500px;"">
                            <p style=""font-size:50px; font-weight:bold;""
                            >happy</p>
                            <div style=""width:240px; margin: auto;"">
                                <img src=""images/map10_PuRd_scaleDef_orientMir_000.png"" style= ""width:200px""alt=""img"">
                            </div>
                        </div>",1,"",0,"",NA,"","images/map10_PuRd_scaleDef_orientMir_000.png","happy",1,10,10,"PuRd","orientMir","scaleDef","000",NA,NA
"","","","","","html-slider-response",20,73019,"0.0-16.0","hwors81j0l",0,NA,"<div style=""width:500px;"">
                            <p style=""font-size:50px; font-weight:bold;""
                            >happy</p>
                            <div style=""width:240px; margin: auto;"">
                                <img src=""images/map23_RdBu_scaleDef_orientDef_000.png"" style= ""width:200px""alt=""img"">
                            </div>
                        </div>",0.39,"",0,"",NA,"","images/map23_RdBu_scaleDef_orientDef_000.png","happy",1,23,23,"RdBu","orientDef","scaleDef","000",NA,NA
"","","","","","html-slider-response",21,74903,"0.0-17.0","hwors81j0l",0,NA,"<div style=""width:500px;"">
                            <p style=""font-size:50px; font-weight:bold;""
                            >happy</p>
                            <div style=""width:240px; margin: auto;"">
                                <img src=""images/map05_Greys_scaleRev_orientDef_270.png"" style= ""width:200px""alt=""img"">
                            </div>
                        </div>",0,"",0,"",NA,"","images/map05_Greys_scaleRev_orientDef_270.png","happy",1,5,5,"Greys","orientDef","scaleRev","270",NA,NA
"","","","","","html-slider-response",22,77287,"0.0-18.0","hwors81j0l",0,NA,"<div style=""width:500px;"">
                            <p style=""font-size:50px; font-weight:bold;""
                            >happy</p>
                            <div style=""width:240px; margin: auto;"">
                                <img src=""images/map15_RdGy_scaleDef_orientMir_180.png"" style= ""width:200px""alt=""img"">
                            </div>
                        </div>",0.275,"",0,"",NA,"","images/map15_RdGy_scaleDef_orientMir_180.png","happy",1,15,15,"RdGy","orientMir","scaleDef","180",NA,NA
"","","","","","html-slider-response",23,79885,"0.0-19.0","hwors81j0l",0,NA,"<div style=""width:500px;"">
                            <p style=""font-size:50px; font-weight:bold;""
                            >happy</p>
                            <div style=""width:240px; margin: auto;"">
                                <img src=""images/map02_inferno_scaleRev_orientMir_090.png"" style= ""width:200px""alt=""img"">
                            </div>
                        </div>",0.6725,"",0,"",NA,"","images/map02_inferno_scaleRev_orientMir_090.png","happy",1,2,2,"inferno","orientMir","scaleRev","090",NA,NA
"","","","","","html-slider-response",24,81787,"0.0-20.0","hwors81j0l",0,NA,"<div style=""width:500px;"">
                            <p style=""font-size:50px; font-weight:bold;""
                            >happy</p>
                            <div style=""width:240px; margin: auto;"">
                                <img src=""images/map13_BuGn_scaleRev_orientDef_270.png"" style= ""width:200px""alt=""img"">
                            </div>
                        </div>",0.385,"",0,"",NA,"","images/map13_BuGn_scaleRev_orientDef_270.png","happy",1,13,13,"BuGn","orientDef","scaleRev","270",NA,NA
"","","","","","html-slider-response",25,83804,"0.0-21.0","hwors81j0l",0,NA,"<div style=""width:500px;"">
                            <p style=""font-size:50px; font-weight:bold;""
                            >happy</p>
                            <div style=""width:240px; margin: auto;"">
                                <img src=""images/map12_YlGnBu_scaleRev_orientMir_270.png"" style= ""width:200px""alt=""img"">
                            </div>
                        </div>",0.545,"",0,"",NA,"","images/map12_YlGnBu_scaleRev_orientMir_270.png","happy",1,12,12,"YlGnBu","orientMir","scaleRev","270",NA,NA
"","","","","","html-slider-response",26,86219,"0.0-22.0","hwors81j0l",0,NA,"<div style=""width:500px;"">
                            <p style=""font-size:50px; font-weight:bold;""
                            >happy</p>
                            <div style=""width:240px; margin: auto;"">
                                <img src=""images/map15_RdGy_scaleRev_orientMir_270.png"" style= ""width:200px""alt=""img"">
                            </div>
                        </div>",0.315,"",0,"",NA,"","images/map15_RdGy_scaleRev_orientMir_270.png","happy",1,15,15,"RdGy","orientMir","scaleRev","270",NA,NA
"","","","","","html-slider-response",27,88252,"0.0-23.0","hwors81j0l",0,NA,"<div style=""width:500px;"">
                            <p style=""font-size:50px; font-weight:bold;""
                            >happy</p>
                            <div style=""width:240px; margin: auto;"">
                                <img src=""images/map02_viridis_scaleRev_orientDef_090.png"" style= ""width:200px""alt=""img"">
                            </div>
                        </div>",0.525,"",0,"",NA,"","images/map02_viridis_scaleRev_orientDef_090.png","happy",1,2,2,"viridis","orientDef","scaleRev","090",NA,NA
"","","","","","html-slider-response",28,90568,"0.0-24.0","hwors81j0l",0,NA,"<div style=""width:500px;"">
                            <p style=""font-size:50px; font-weight:bold;""
                            >happy</p>
                            <div style=""width:240px; margin: auto;"">
                                <img src=""images/map02_viridis_scaleDef_orientDef_000.png"" style= ""width:200px""alt=""img"">
                            </div>
                        </div>",0.44,"",0,"",NA,"","images/map02_viridis_scaleDef_orientDef_000.png","happy",1,2,2,"viridis","orientDef","scaleDef","000",NA,NA
"","","","","","html-slider-response",29,92438,"0.0-25.0","hwors81j0l",0,NA,"<div style=""width:500px;"">
                            <p style=""font-size:50px; font-weight:bold;""
                            >happy</p>
                            <div style=""width:240px; margin: auto;"">
                                <img src=""images/map23_RdYlBu_scaleRev_orientDef_270.png"" style= ""width:200px""alt=""img"">
                            </div>
                        </div>",0.32,"",0,"",NA,"","images/map23_RdYlBu_scaleRev_orientDef_270.png","happy",1,23,23,"RdYlBu","orientDef","scaleRev","270",NA,NA
"","","","","","html-slider-response",30,94218,"0.0-26.0","hwors81j0l",0,NA,"<div style=""width:500px;"">
                            <p style=""font-size:50px; font-weight:bold;""
                            >happy</p>
                            <div style=""width:240px; margin: auto;"">
                                <img src=""images/map05_Purples_scaleDef_orientMir_000.png"" style= ""width:200px""alt=""img"">
                            </div>
                        </div>",0.4175,"",0,"",NA,"","images/map05_Purples_scaleDef_orientMir_000.png","happy",1,5,5,"Purples","orientMir","scaleDef","000",NA,NA
"","","","","","html-slider-response",31,96002,"0.0-27.0","hwors81j0l",0,NA,"<div style=""width:500px;"">
                            <p style=""font-size:50px; font-weight:bold;""
                            >happy</p>
                            <div style=""width:240px; margin: auto;"">
                                <img src=""images/map15_PRGn_scaleRev_orientDef_090.png"" style= ""width:200px""alt=""img"">
                            </div>
                        </div>",0.4075,"",0,"",NA,"","images/map15_PRGn_scaleRev_orientDef_090.png","happy",1,15,15,"PRGn","orientDef","scaleRev","090",NA,NA
"","","","","","html-slider-response",32,97687,"0.0-28.0","hwors81j0l",0,NA,"<div style=""width:500px;"">
                            <p style=""font-size:50px; font-weight:bold;""
                            >happy</p>
                            <div style=""width:240px; margin: auto;"">
                                <img src=""images/map05_Blues_scaleRev_orientMir_270.png"" style= ""width:200px""alt=""img"">
                            </div>
                        </div>",0.5075,"",0,"",NA,"","images/map05_Blues_scaleRev_orientMir_270.png","happy",1,5,5,"Blues","orientMir","scaleRev","270",NA,NA
"","","","","","html-slider-response",33,99803,"0.0-29.0","hwors81j0l",0,NA,"<div style=""width:500px;"">
                            <p style=""font-size:50px; font-weight:bold;""
                            >happy</p>
                            <div style=""width:240px; margin: auto;"">
                                <img src=""images/map02_magma_scaleRev_orientMir_270.png"" style= ""width:200px""alt=""img"">
                            </div>
                        </div>",0.5425,"",0,"",NA,"","images/map02_magma_scaleRev_orientMir_270.png","happy",1,2,2,"magma","orientMir","scaleRev","270",NA,NA
"","","","","","html-slider-response",34,101502,"0.0-30.0","hwors81j0l",0,NA,"<div style=""width:500px;"">
                            <p style=""font-size:50px; font-weight:bold;""
                            >happy</p>
                            <div style=""width:240px; margin: auto;"">
                                <img src=""images/map13_PiYG_scaleRev_orientMir_270.png"" style= ""width:200px""alt=""img"">
                            </div>
                        </div>",0.54,"",0,"",NA,"","images/map13_PiYG_scaleRev_orientMir_270.png","happy",1,13,13,"PiYG","orientMir","scaleRev","270",NA,NA
"","","","","","html-slider-response",35,103819,"0.0-31.0","hwors81j0l",0,NA,"<div style=""width:500px;"">
                            <p style=""font-size:50px; font-weight:bold;""
                            >happy</p>
                            <div style=""width:240px; margin: auto;"">
                                <img src=""images/map02_magma_scaleDef_orientMir_180.png"" style= ""width:200px""alt=""img"">
                            </div>
                        </div>",0.4525,"",0,"",NA,"","images/map02_magma_scaleDef_orientMir_180.png","happy",1,2,2,"magma","orientMir","scaleDef","180",NA,NA
"","","","","","html-slider-response",36,105687,"0.0-32.0","hwors81j0l",0,NA,"<div style=""width:500px;"">
                            <p style=""font-size:50px; font-weight:bold;""
                            >happy</p>
                            <div style=""width:240px; margin: auto;"">
                                <img src=""images/map12_YlGnBu_scaleDef_orientMir_180.png"" style= ""width:200px""alt=""img"">
                            </div>
                        </div>",0.4475,"",0,"",NA,"","images/map12_YlGnBu_scaleDef_orientMir_180.png","happy",1,12,12,"YlGnBu","orientMir","scaleDef","180",NA,NA
"","","","","","html-slider-response",37,108869,"0.0-33.0","hwors81j0l",0,NA,"<div style=""width:500px;"">
                            <p style=""font-size:50px; font-weight:bold;""
                            >happy</p>
                            <div style=""width:240px; margin: auto;"">
                                <img src=""images/map26_berlin_scaleDef_orientMir_180.png"" style= ""width:200px""alt=""img"">
                            </div>
                        </div>",0.365,"",0,"",NA,"","images/map26_berlin_scaleDef_orientMir_180.png","happy",1,26,26,"berlin","orientMir","scaleDef","180",NA,NA
"","","","","","html-slider-response",38,110636,"0.0-34.0","hwors81j0l",0,NA,"<div style=""width:500px;"">
                            <p style=""font-size:50px; font-weight:bold;""
                            >happy</p>
                            <div style=""width:240px; margin: auto;"">
                                <img src=""images/map27_gist_earth_scaleRev_orientMir_090.png"" style= ""width:200px""alt=""img"">
                            </div>
                        </div>",0.4125,"",0,"",NA,"","images/map27_gist_earth_scaleRev_orientMir_090.png","happy",1,27,27,"gist","scaleRev","earth","orientMir",NA,NA
"","","","","","html-slider-response",39,112619,"0.0-35.0","hwors81j0l",0,NA,"<div style=""width:500px;"">
                            <p style=""font-size:50px; font-weight:bold;""
                            >happy</p>
                            <div style=""width:240px; margin: auto;"">
                                <img src=""images/map23_RdYlGn_scaleDef_orientMir_000.png"" style= ""width:200px""alt=""img"">
                            </div>
                        </div>",0.6375,"",0,"",NA,"","images/map23_RdYlGn_scaleDef_orientMir_000.png","happy",1,23,23,"RdYlGn","orientMir","scaleDef","000",NA,NA
"","","","","","html-slider-response",40,116219,"0.0-36.0","hwors81j0l",0,NA,"<div style=""width:500px;"">
                            <p style=""font-size:50px; font-weight:bold;""
                            >happy</p>
                            <div style=""width:240px; margin: auto;"">
                                <img src=""images/map27_turbo_scaleDef_orientMir_180.png"" style= ""width:200px""alt=""img"">
                            </div>
                        </div>",0.58,"",0,"",NA,"","images/map27_turbo_scaleDef_orientMir_180.png","happy",1,27,27,"turbo","orientMir","scaleDef","180",NA,NA
"","","","","","html-slider-response",41,118086,"0.0-37.0","hwors81j0l",0,NA,"<div style=""width:500px;"">
                            <p style=""font-size:50px; font-weight:bold;""
                            >happy</p>
                            <div style=""width:240px; margin: auto;"">
                                <img src=""images/map27_managua_scaleRev_orientDef_090.png"" style= ""width:200px""alt=""img"">
                            </div>
                        </div>",0.385,"",0,"",NA,"","images/map27_managua_scaleRev_orientDef_090.png","happy",1,27,27,"managua","orientDef","scaleRev","090",NA,NA
"","","","","","html-slider-response",42,119835,"0.0-38.0","hwors81j0l",0,NA,"<div style=""width:500px;"">
                            <p style=""font-size:50px; font-weight:bold;""
                            >happy</p>
                            <div style=""width:240px; margin: auto;"">
                                <img src=""images/map23_RdBu_scaleRev_orientDef_090.png"" style= ""width:200px""alt=""img"">
                            </div>
                        </div>",0.36,"",0,"",NA,"","images/map23_RdBu_scaleRev_orientDef_090.png","happy",1,23,23,"RdBu","orientDef","scaleRev","090",NA,NA
"","","","","","html-slider-response",43,121505,"0.0-39.0","hwors81j0l",0,NA,"<div style=""width:500px;"">
                            <p style=""font-size:50px; font-weight:bold;""
                            >happy</p>
                            <div style=""width:240px; margin: auto;"">
                                <img src=""images/map05_Greys_scaleDef_orientDef_180.png"" style= ""width:200px""alt=""img"">
                            </div>
                        </div>",0,"",0,"",NA,"","images/map05_Greys_scaleDef_orientDef_180.png","happy",1,5,5,"Greys","orientDef","scaleDef","180",NA,NA
"","","","","","html-slider-response",44,123470,"0.0-40.0","hwors81j0l",0,NA,"<div style=""width:500px;"">
                            <p style=""font-size:50px; font-weight:bold;""
                            >happy</p>
                            <div style=""width:240px; margin: auto;"">
                                <img src=""images/map10_RdPu_scaleDef_orientMir_180.png"" style= ""width:200px""alt=""img"">
                            </div>
                        </div>",1,"",0,"",NA,"","images/map10_RdPu_scaleDef_orientMir_180.png","happy",1,10,10,"RdPu","orientMir","scaleDef","180",NA,NA
"","","","","","html-slider-response",45,125351,"0.0-41.0","hwors81j0l",0,NA,"<div style=""width:500px;"">
                            <p style=""font-size:50px; font-weight:bold;""
                            >happy</p>
                            <div style=""width:240px; margin: auto;"">
                                <img src=""images/map15_PuOr_scaleDef_orientMir_000.png"" style= ""width:200px""alt=""img"">
                            </div>
                        </div>",0.3475,"",0,"",NA,"","images/map15_PuOr_scaleDef_orientMir_000.png","happy",1,15,15,"PuOr","orientMir","scaleDef","000",NA,NA
"","","","","","html-slider-response",46,140436,"0.0-42.0","hwors81j0l",0,NA,"<div style=""width:500px;"">
                            <p style=""font-size:50px; font-weight:bold;""
                            >happy</p>
                            <div style=""width:240px; margin: auto;"">
                                <img src=""images/map23_Spectral_scaleDef_orientMir_180.png"" style= ""width:200px""alt=""img"">
                            </div>
                        </div>",0.65,"",0,"",NA,"","images/map23_Spectral_scaleDef_orientMir_180.png","happy",1,23,23,"Spectral","orientMir","scaleDef","180",NA,NA
"","","","","","html-slider-response",47,142454,"0.0-43.0","hwors81j0l",0,NA,"<div style=""width:500px;"">
                            <p style=""font-size:50px; font-weight:bold;""
                            >happy</p>
                            <div style=""width:240px; margin: auto;"">
                                <img src=""images/map02_plasma_scaleRev_orientDef_270.png"" style= ""width:200px""alt=""img"">
                            </div>
                        </div>",0.6675,"",0,"",NA,"","images/map02_plasma_scaleRev_orientDef_270.png","happy",1,2,2,"plasma","orientDef","scaleRev","270",NA,NA
"","","","","","html-slider-response",48,144287,"0.0-44.0","hwors81j0l",0,NA,"<div style=""width:500px;"">
                            <p style=""font-size:50px; font-weight:bold;""
                            >happy</p>
                            <div style=""width:240px; margin: auto;"">
                                <img src=""images/map05_cividis_scaleRev_orientDef_090.png"" style= ""width:200px""alt=""img"">
                            </div>
                        </div>",0.3175,"",0,"",NA,"","images/map05_cividis_scaleRev_orientDef_090.png","happy",1,5,5,"cividis","orientDef","scaleRev","090",NA,NA
"","","","","","html-slider-response",49,147436,"0.0-45.0","hwors81j0l",0,NA,"<div style=""width:500px;"">
                            <p style=""font-size:50px; font-weight:bold;""
                            >happy</p>
                            <div style=""width:240px; margin: auto;"">
                                <img src=""images/map26_seismic_scaleRev_orientMir_090.png"" style= ""width:200px""alt=""img"">
                            </div>
                        </div>",0.9575,"",0,"",NA,"","images/map26_seismic_scaleRev_orientMir_090.png","happy",1,26,26,"seismic","orientMir","scaleRev","090",NA,NA
"","","","","","html-slider-response",50,149237,"0.0-46.0","hwors81j0l",0,NA,"<div style=""width:500px;"">
                            <p style=""font-size:50px; font-weight:bold;""
                            >happy</p>
                            <div style=""width:240px; margin: auto;"">
                                <img src=""images/map23_Spectral_scaleRev_orientMir_270.png"" style= ""width:200px""alt=""img"">
                            </div>
                        </div>",0.5875,"",0,"",NA,"","images/map23_Spectral_scaleRev_orientMir_270.png","happy",1,23,23,"Spectral","orientMir","scaleRev","270",NA,NA
"","","","","","html-slider-response",51,150952,"0.0-47.0","hwors81j0l",0,NA,"<div style=""width:500px;"">
                            <p style=""font-size:50px; font-weight:bold;""
                            >happy</p>
                            <div style=""width:240px; margin: auto;"">
                                <img src=""images/map07_Greens_scaleDef_orientDef_000.png"" style= ""width:200px""alt=""img"">
                            </div>
                        </div>",0.38,"",0,"",NA,"","images/map07_Greens_scaleDef_orientDef_000.png","happy",1,7,7,"Greens","orientDef","scaleDef","000",NA,NA
"","","","","","html-slider-response",52,152536,"0.0-48.0","hwors81j0l",0,NA,"<div style=""width:500px;"">
                            <p style=""font-size:50px; font-weight:bold;""
                            >happy</p>
                            <div style=""width:240px; margin: auto;"">
                                <img src=""images/map23_RdYlGn_scaleRev_orientMir_090.png"" style= ""width:200px""alt=""img"">
                            </div>
                        </div>",0.34,"",0,"",NA,"","images/map23_RdYlGn_scaleRev_orientMir_090.png","happy",1,23,23,"RdYlGn","orientMir","scaleRev","090",NA,NA
"","","","","","html-slider-response",53,154486,"0.0-49.0","hwors81j0l",0,NA,"<div style=""width:500px;"">
                            <p style=""font-size:50px; font-weight:bold;""
                            >happy</p>
                            <div style=""width:240px; margin: auto;"">
                                <img src=""images/map26_bwr_scaleRev_orientDef_270.png"" style= ""width:200px""alt=""img"">
                            </div>
                        </div>",0.72,"",0,"",NA,"","images/map26_bwr_scaleRev_orientDef_270.png","happy",1,26,26,"bwr","orientDef","scaleRev","270",NA,NA
"","","","","","html-slider-response",54,156320,"0.0-50.0","hwors81j0l",0,NA,"<div style=""width:500px;"">
                            <p style=""font-size:50px; font-weight:bold;""
                            >happy</p>
                            <div style=""width:240px; margin: auto;"">
                                <img src=""images/map27_gist_earth_scaleDef_orientMir_000.png"" style= ""width:200px""alt=""img"">
                            </div>
                        </div>",0.3125,"",0,"",NA,"","images/map27_gist_earth_scaleDef_orientMir_000.png","happy",1,27,27,"gist","scaleDef","earth","orientMir",NA,NA
"","","","","","html-slider-response",55,158069,"0.0-51.0","hwors81j0l",0,NA,"<div style=""width:500px;"">
                            <p style=""font-size:50px; font-weight:bold;""
                            >happy</p>
                            <div style=""width:240px; margin: auto;"">
                                <img src=""images/map27_vanimo_scaleRev_orientDef_270.png"" style= ""width:200px""alt=""img"">
                            </div>
                        </div>",0.3325,"",0,"",NA,"","images/map27_vanimo_scaleRev_orientDef_270.png","happy",1,27,27,"vanimo","orientDef","scaleRev","270",NA,NA
"","","","","","html-slider-response",56,160237,"0.0-52.0","hwors81j0l",0,NA,"<div style=""width:500px;"">
                            <p style=""font-size:50px; font-weight:bold;""
                            >happy</p>
                            <div style=""width:240px; margin: auto;"">
                                <img src=""images/map13_YlGn_scaleDef_orientMir_000.png"" style= ""width:200px""alt=""img"">
                            </div>
                        </div>",0.5975,"",0,"",NA,"","images/map13_YlGn_scaleDef_orientMir_000.png","happy",1,13,13,"YlGn","orientMir","scaleDef","000",NA,NA
"","","","","","html-slider-response",57,161969,"0.0-53.0","hwors81j0l",0,NA,"<div style=""width:500px;"">
                            <p style=""font-size:50px; font-weight:bold;""
                            >happy</p>
                            <div style=""width:240px; margin: auto;"">
                                <img src=""images/map13_PuBuGn_scaleDef_orientDef_000.png"" style= ""width:200px""alt=""img"">
                            </div>
                        </div>",0.665,"",0,"",NA,"","images/map13_PuBuGn_scaleDef_orientDef_000.png","happy",1,13,13,"PuBuGn","orientDef","scaleDef","000",NA,NA
"","","","","","html-button-response",58,165842,"0.0-54.0","hwors81j0l",0,3370,"<p>You are doing great!<br></br> You are halway done with the current block. When you are ready to continue, click the 'Continue' button.</p>",0.5,"",NA,"",NA,"","","",NA,NA,NA,"","","","",NA,NA
"","","","","","html-slider-response",59,168020,"0.0-55.0","hwors81j0l",0,NA,"<div style=""width:500px;"">
                            <p style=""font-size:50px; font-weight:bold;""
                            >happy</p>
                            <div style=""width:240px; margin: auto;"">
                                <img src=""images/map10_RdPu_scaleRev_orientMir_270.png"" style= ""width:200px""alt=""img"">
                            </div>
                        </div>",1,"",0,"",NA,"","images/map10_RdPu_scaleRev_orientMir_270.png","happy",1,10,10,"RdPu","orientMir","scaleRev","270",NA,NA
"","","","","","html-slider-response",60,169920,"0.0-56.0","hwors81j0l",0,NA,"<div style=""width:500px;"">
                            <p style=""font-size:50px; font-weight:bold;""
                            >happy</p>
                            <div style=""width:240px; margin: auto;"">
                                <img src=""images/map26_berlin_scaleRev_orientMir_270.png"" style= ""width:200px""alt=""img"">
                            </div>
                        </div>",0.365,"",0,"",NA,"","images/map26_berlin_scaleRev_orientMir_270.png","happy",1,26,26,"berlin","orientMir","scaleRev","270",NA,NA
"","","","","","html-slider-response",61,171668,"0.0-57.0","hwors81j0l",0,NA,"<div style=""width:500px;"">
                            <p style=""font-size:50px; font-weight:bold;""
                            >happy</p>
                            <div style=""width:240px; margin: auto;"">
                                <img src=""images/map26_coolwarm_scaleDef_orientDef_000.png"" style= ""width:200px""alt=""img"">
                            </div>
                        </div>",0.705,"",0,"",NA,"","images/map26_coolwarm_scaleDef_orientDef_000.png","happy",1,26,26,"coolwarm","orientDef","scaleDef","000",NA,NA
"","","","","","html-slider-response",62,173787,"0.0-58.0","hwors81j0l",0,NA,"<div style=""width:500px;"">
                            <p style=""font-size:50px; font-weight:bold;""
                            >happy</p>
                            <div style=""width:240px; margin: auto;"">
                                <img src=""images/map07_Oranges_scaleRev_orientDef_270.png"" style= ""width:200px""alt=""img"">
                            </div>
                        </div>",0.645,"",0,"",NA,"","images/map07_Oranges_scaleRev_orientDef_270.png","happy",1,7,7,"Oranges","orientDef","scaleRev","270",NA,NA
"","","","","","html-slider-response",63,175886,"0.0-59.0","hwors81j0l",0,NA,"<div style=""width:500px;"">
                            <p style=""font-size:50px; font-weight:bold;""
                            >happy</p>
                            <div style=""width:240px; margin: auto;"">
                                <img src=""images/map05_Purples_scaleRev_orientMir_090.png"" style= ""width:200px""alt=""img"">
                            </div>
                        </div>",0.4025,"",0,"",NA,"","images/map05_Purples_scaleRev_orientMir_090.png","happy",1,5,5,"Purples","orientMir","scaleRev","090",NA,NA
"","","","","","html-slider-response",64,177719,"0.0-60.0","hwors81j0l",0,NA,"<div style=""width:500px;"">
                            <p style=""font-size:50px; font-weight:bold;""
                            >happy</p>
                            <div style=""width:240px; margin: auto;"">
                                <img src=""images/map05_cividis_scaleDef_orientDef_000.png"" style= ""width:200px""alt=""img"">
                            </div>
                        </div>",0.365,"",0,"",NA,"","images/map05_cividis_scaleDef_orientDef_000.png","happy",1,5,5,"cividis","orientDef","scaleDef","000",NA,NA
"","","","","","html-slider-response",65,179536,"0.0-61.0","hwors81j0l",0,NA,"<div style=""width:500px;"">
                            <p style=""font-size:50px; font-weight:bold;""
                            >happy</p>
                            <div style=""width:240px; margin: auto;"">
                                <img src=""images/map10_YlOrRd_scaleDef_orientDef_000.png"" style= ""width:200px""alt=""img"">
                            </div>
                        </div>",0.7075,"",0,"",NA,"","images/map10_YlOrRd_scaleDef_orientDef_000.png","happy",1,10,10,"YlOrRd","orientDef","scaleDef","000",NA,NA
"","","","","","html-slider-response",66,181636,"0.0-62.0","hwors81j0l",0,NA,"<div style=""width:500px;"">
                            <p style=""font-size:50px; font-weight:bold;""
                            >happy</p>
                            <div style=""width:240px; margin: auto;"">
                                <img src=""images/map12_BuPu_scaleDef_orientDef_000.png"" style= ""width:200px""alt=""img"">
                            </div>
                        </div>",0.595,"",0,"",NA,"","images/map12_BuPu_scaleDef_orientDef_000.png","happy",1,12,12,"BuPu","orientDef","scaleDef","000",NA,NA
"","","","","","html-slider-response",67,183336,"0.0-63.0","hwors81j0l",0,NA,"<div style=""width:500px;"">
                            <p style=""font-size:50px; font-weight:bold;""
                            >happy</p>
                            <div style=""width:240px; margin: auto;"">
                                <img src=""images/map27_turbo_scaleRev_orientMir_270.png"" style= ""width:200px""alt=""img"">
                            </div>
                        </div>",0.405,"",0,"",NA,"","images/map27_turbo_scaleRev_orientMir_270.png","happy",1,27,27,"turbo","orientMir","scaleRev","270",NA,NA
"","","","","","html-slider-response",68,185270,"0.0-64.0","hwors81j0l",0,NA,"<div style=""width:500px;"">
                            <p style=""font-size:50px; font-weight:bold;""
                            >happy</p>
                            <div style=""width:240px; margin: auto;"">
                                <img src=""images/map23_RdYlBu_scaleDef_orientDef_180.png"" style= ""width:200px""alt=""img"">
                            </div>
                        </div>",0.3525,"",0,"",NA,"","images/map23_RdYlBu_scaleDef_orientDef_180.png","happy",1,23,23,"RdYlBu","orientDef","scaleDef","180",NA,NA
"","","","","","html-slider-response",69,187287,"0.0-65.0","hwors81j0l",0,NA,"<div style=""width:500px;"">
                            <p style=""font-size:50px; font-weight:bold;""
                            >happy</p>
                            <div style=""width:240px; margin: auto;"">
                                <img src=""images/map07_Oranges_scaleDef_orientDef_180.png"" style= ""width:200px""alt=""img"">
                            </div>
                        </div>",0.6075,"",0,"",NA,"","images/map07_Oranges_scaleDef_orientDef_180.png","happy",1,7,7,"Oranges","orientDef","scaleDef","180",NA,NA
"","","","","","html-slider-response",70,189819,"0.0-66.0","hwors81j0l",0,NA,"<div style=""width:500px;"">
                            <p style=""font-size:50px; font-weight:bold;""
                            >happy</p>
                            <div style=""width:240px; margin: auto;"">
                                <img src=""images/map10_OrRd_scaleDef_orientDef_180.png"" style= ""width:200px""alt=""img"">
                            </div>
                        </div>",0.585,"",0,"",NA,"","images/map10_OrRd_scaleDef_orientDef_180.png","happy",1,10,10,"OrRd","orientDef","scaleDef","180",NA,NA
"","","","","","html-slider-response",71,193019,"0.0-67.0","hwors81j0l",0,NA,"<div style=""width:500px;"">
                            <p style=""font-size:50px; font-weight:bold;""
                            >happy</p>
                            <div style=""width:240px; margin: auto;"">
                                <img src=""images/map07_Reds_scaleDef_orientMir_000.png"" style= ""width:200px""alt=""img"">
                            </div>
                        </div>",0.2925,"",0,"",NA,"","images/map07_Reds_scaleDef_orientMir_000.png","happy",1,7,7,"Reds","orientMir","scaleDef","000",NA,NA
"","","","","","html-slider-response",72,195038,"0.0-68.0","hwors81j0l",0,NA,"<div style=""width:500px;"">
                            <p style=""font-size:50px; font-weight:bold;""
                            >happy</p>
                            <div style=""width:240px; margin: auto;"">
                                <img src=""images/map07_Reds_scaleRev_orientMir_090.png"" style= ""width:200px""alt=""img"">
                            </div>
                        </div>",0.2875,"",0,"",NA,"","images/map07_Reds_scaleRev_orientMir_090.png","happy",1,7,7,"Reds","orientMir","scaleRev","090",NA,NA
"","","","","","html-slider-response",73,197719,"0.0-69.0","hwors81j0l",0,NA,"<div style=""width:500px;"">
                            <p style=""font-size:50px; font-weight:bold;""
                            >happy</p>
                            <div style=""width:240px; margin: auto;"">
                                <img src=""images/map10_OrRd_scaleRev_orientDef_270.png"" style= ""width:200px""alt=""img"">
                            </div>
                        </div>",0.365,"",0,"",NA,"","images/map10_OrRd_scaleRev_orientDef_270.png","happy",1,10,10,"OrRd","orientDef","scaleRev","270",NA,NA
"","","","","","html-slider-response",74,200436,"0.0-70.0","hwors81j0l",0,NA,"<div style=""width:500px;"">
                            <p style=""font-size:50px; font-weight:bold;""
                            >happy</p>
                            <div style=""width:240px; margin: auto;"">
                                <img src=""images/map26_coolwarm_scaleRev_orientDef_090.png"" style= ""width:200px""alt=""img"">
                            </div>
                        </div>",0.3825,"",0,"",NA,"","images/map26_coolwarm_scaleRev_orientDef_090.png","happy",1,26,26,"coolwarm","orientDef","scaleRev","090",NA,NA
"","","","","","html-slider-response",75,202752,"0.0-71.0","hwors81j0l",0,NA,"<div style=""width:500px;"">
                            <p style=""font-size:50px; font-weight:bold;""
                            >happy</p>
                            <div style=""width:240px; margin: auto;"">
                                <img src=""images/map27_vanimo_scaleDef_orientDef_180.png"" style= ""width:200px""alt=""img"">
                            </div>
                        </div>",0.3475,"",0,"",NA,"","images/map27_vanimo_scaleDef_orientDef_180.png","happy",1,27,27,"vanimo","orientDef","scaleDef","180",NA,NA
"","","","","","html-slider-response",76,205586,"0.0-72.0","hwors81j0l",0,NA,"<div style=""width:500px;"">
                            <p style=""font-size:50px; font-weight:bold;""
                            >happy</p>
                            <div style=""width:240px; margin: auto;"">
                                <img src=""images/map12_GnBu_scaleDef_orientDef_180.png"" style= ""width:200px""alt=""img"">
                            </div>
                        </div>",0.665,"",0,"",NA,"","images/map12_GnBu_scaleDef_orientDef_180.png","happy",1,12,12,"GnBu","orientDef","scaleDef","180",NA,NA
"","","","","","html-slider-response",77,207918,"0.0-73.0","hwors81j0l",0,NA,"<div style=""width:500px;"">
                            <p style=""font-size:50px; font-weight:bold;""
                            >happy</p>
                            <div style=""width:240px; margin: auto;"">
                                <img src=""images/map10_PuRd_scaleRev_orientMir_090.png"" style= ""width:200px""alt=""img"">
                            </div>
                        </div>",1,"",0,"",NA,"","images/map10_PuRd_scaleRev_orientMir_090.png","happy",1,10,10,"PuRd","orientMir","scaleRev","090",NA,NA
"","","","","","html-slider-response",78,210086,"0.0-74.0","hwors81j0l",0,NA,"<div style=""width:500px;"">
                            <p style=""font-size:50px; font-weight:bold;""
                            >happy</p>
                            <div style=""width:240px; margin: auto;"">
                                <img src=""images/map13_PuBuGn_scaleRev_orientDef_090.png"" style= ""width:200px""alt=""img"">
                            </div>
                        </div>",0.645,"",0,"",NA,"","images/map13_PuBuGn_scaleRev_orientDef_090.png","happy",1,13,13,"PuBuGn","orientDef","scaleRev","090",NA,NA
"","","","","","html-slider-response",79,212085,"0.0-75.0","hwors81j0l",0,NA,"<div style=""width:500px;"">
                            <p style=""font-size:50px; font-weight:bold;""
                            >happy</p>
                            <div style=""width:240px; margin: auto;"">
                                <img src=""images/map15_BrBG_scaleDef_orientDef_180.png"" style= ""width:200px""alt=""img"">
                            </div>
                        </div>",0.32,"",0,"",NA,"","images/map15_BrBG_scaleDef_orientDef_180.png","happy",1,15,15,"BrBG","orientDef","scaleDef","180",NA,NA
"","","","","","html-slider-response",80,213752,"0.0-76.0","hwors81j0l",0,NA,"<div style=""width:500px;"">
                            <p style=""font-size:50px; font-weight:bold;""
                            >happy</p>
                            <div style=""width:240px; margin: auto;"">
                                <img src=""images/map07_YlOrBr_scaleDef_orientMir_180.png"" style= ""width:200px""alt=""img"">
                            </div>
                        </div>",0.6925,"",0,"",NA,"","images/map07_YlOrBr_scaleDef_orientMir_180.png","happy",1,7,7,"YlOrBr","orientMir","scaleDef","180",NA,NA
"","","","","","html-slider-response",81,215469,"0.0-77.0","hwors81j0l",0,NA,"<div style=""width:500px;"">
                            <p style=""font-size:50px; font-weight:bold;""
                            >happy</p>
                            <div style=""width:240px; margin: auto;"">
                                <img src=""images/map13_PiYG_scaleDef_orientMir_180.png"" style= ""width:200px""alt=""img"">
                            </div>
                        </div>",0.635,"",0,"",NA,"","images/map13_PiYG_scaleDef_orientMir_180.png","happy",1,13,13,"PiYG","orientMir","scaleDef","180",NA,NA
"","","","","","html-slider-response",82,217203,"0.0-78.0","hwors81j0l",0,NA,"<div style=""width:500px;"">
                            <p style=""font-size:50px; font-weight:bold;""
                            >happy</p>
                            <div style=""width:240px; margin: auto;"">
                                <img src=""images/map05_Blues_scaleDef_orientMir_180.png"" style= ""width:200px""alt=""img"">
                            </div>
                        </div>",0.59,"",0,"",NA,"","images/map05_Blues_scaleDef_orientMir_180.png","happy",1,5,5,"Blues","orientMir","scaleDef","180",NA,NA
"","","","","","html-slider-response",83,219122,"0.0-79.0","hwors81j0l",0,NA,"<div style=""width:500px;"">
                            <p style=""font-size:50px; font-weight:bold;""
                            >happy</p>
                            <div style=""width:240px; margin: auto;"">
                                <img src=""images/map12_BuPu_scaleRev_orientDef_090.png"" style= ""width:200px""alt=""img"">
                            </div>
                        </div>",0.4125,"",0,"",NA,"","images/map12_BuPu_scaleRev_orientDef_090.png","happy",1,12,12,"BuPu","orientDef","scaleRev","090",NA,NA
"","","","","","html-slider-response",84,221036,"0.0-80.0","hwors81j0l",0,NA,"<div style=""width:500px;"">
                            <p style=""font-size:50px; font-weight:bold;""
                            >happy</p>
                            <div style=""width:240px; margin: auto;"">
                                <img src=""images/map02_plasma_scaleDef_orientDef_180.png"" style= ""width:200px""alt=""img"">
                            </div>
                        </div>",0.715,"",0,"",NA,"","images/map02_plasma_scaleDef_orientDef_180.png","happy",1,2,2,"plasma","orientDef","scaleDef","180",NA,NA
"","","","","","html-slider-response",85,223071,"0.0-81.0","hwors81j0l",0,NA,"<div style=""width:500px;"">
                            <p style=""font-size:50px; font-weight:bold;""
                            >happy</p>
                            <div style=""width:240px; margin: auto;"">
                                <img src=""images/map26_seismic_scaleDef_orientMir_000.png"" style= ""width:200px""alt=""img"">
                            </div>
                        </div>",0.4175,"",0,"",NA,"","images/map26_seismic_scaleDef_orientMir_000.png","happy",1,26,26,"seismic","orientMir","scaleDef","000",NA,NA
"","","","","","html-slider-response",86,225786,"0.0-82.0","hwors81j0l",0,NA,"<div style=""width:500px;"">
                            <p style=""font-size:50px; font-weight:bold;""
                            >happy</p>
                            <div style=""width:240px; margin: auto;"">
                                <img src=""images/map13_YlGn_scaleRev_orientMir_090.png"" style= ""width:200px""alt=""img"">
                            </div>
                        </div>",0.525,"",0,"",NA,"","images/map13_YlGn_scaleRev_orientMir_090.png","happy",1,13,13,"YlGn","orientMir","scaleRev","090",NA,NA
"","","","","","html-slider-response",87,228069,"0.0-83.0","hwors81j0l",0,NA,"<div style=""width:500px;"">
                            <p style=""font-size:50px; font-weight:bold;""
                            >happy</p>
                            <div style=""width:240px; margin: auto;"">
                                <img src=""images/map02_inferno_scaleDef_orientMir_000.png"" style= ""width:200px""alt=""img"">
                            </div>
                        </div>",0.6175,"",0,"",NA,"","images/map02_inferno_scaleDef_orientMir_000.png","happy",1,2,2,"inferno","orientMir","scaleDef","000",NA,NA
"","","","","","html-slider-response",88,230153,"0.0-84.0","hwors81j0l",0,NA,"<div style=""width:500px;"">
                            <p style=""font-size:50px; font-weight:bold;""
                            >happy</p>
                            <div style=""width:240px; margin: auto;"">
                                <img src=""images/map10_YlOrRd_scaleRev_orientDef_090.png"" style= ""width:200px""alt=""img"">
                            </div>
                        </div>",0.6925,"",0,"",NA,"","images/map10_YlOrRd_scaleRev_orientDef_090.png","happy",1,10,10,"YlOrRd","orientDef","scaleRev","090",NA,NA
"","","","","","html-slider-response",89,231952,"0.0-85.0","hwors81j0l",0,NA,"<div style=""width:500px;"">
                            <p style=""font-size:50px; font-weight:bold;""
                            >happy</p>
                            <div style=""width:240px; margin: auto;"">
                                <img src=""images/map12_PuBu_scaleRev_orientMir_090.png"" style= ""width:200px""alt=""img"">
                            </div>
                        </div>",0.5725,"",0,"",NA,"","images/map12_PuBu_scaleRev_orientMir_090.png","happy",1,12,12,"PuBu","orientMir","scaleRev","090",NA,NA
"","","","","","html-slider-response",90,233503,"0.0-86.0","hwors81j0l",0,NA,"<div style=""width:500px;"">
                            <p style=""font-size:50px; font-weight:bold;""
                            >happy</p>
                            <div style=""width:240px; margin: auto;"">
                                <img src=""images/map15_PuOr_scaleRev_orientMir_090.png"" style= ""width:200px""alt=""img"">
                            </div>
                        </div>",0.385,"",0,"",NA,"","images/map15_PuOr_scaleRev_orientMir_090.png","happy",1,15,15,"PuOr","orientMir","scaleRev","090",NA,NA
"","","","","","html-slider-response",91,235802,"0.0-87.0","hwors81j0l",0,NA,"<div style=""width:500px;"">
                            <p style=""font-size:50px; font-weight:bold;""
                            >happy</p>
                            <div style=""width:240px; margin: auto;"">
                                <img src=""images/map07_Greens_scaleRev_orientDef_090.png"" style= ""width:200px""alt=""img"">
                            </div>
                        </div>",0.4275,"",0,"",NA,"","images/map07_Greens_scaleRev_orientDef_090.png","happy",1,7,7,"Greens","orientDef","scaleRev","090",NA,NA
"","","","","","html-slider-response",92,237454,"0.0-88.0","hwors81j0l",0,NA,"<div style=""width:500px;"">
                            <p style=""font-size:50px; font-weight:bold;""
                            >happy</p>
                            <div style=""width:240px; margin: auto;"">
                                <img src=""images/map12_GnBu_scaleRev_orientDef_270.png"" style= ""width:200px""alt=""img"">
                            </div>
                        </div>",0.58,"",0,"",NA,"","images/map12_GnBu_scaleRev_orientDef_270.png","happy",1,12,12,"GnBu","orientDef","scaleRev","270",NA,NA
"","","","","","html-slider-response",93,239319,"0.0-89.0","hwors81j0l",0,NA,"<div style=""width:500px;"">
                            <p style=""font-size:50px; font-weight:bold;""
                            >happy</p>
                            <div style=""width:240px; margin: auto;"">
                                <img src=""images/map26_bwr_scaleDef_orientDef_180.png"" style= ""width:200px""alt=""img"">
                            </div>
                        </div>",0.6175,"",0,"",NA,"","images/map26_bwr_scaleDef_orientDef_180.png","happy",1,26,26,"bwr","orientDef","scaleDef","180",NA,NA
"","","","","","html-slider-response",94,241002,"0.0-90.0","hwors81j0l",0,NA,"<div style=""width:500px;"">
                            <p style=""font-size:50px; font-weight:bold;""
                            >happy</p>
                            <div style=""width:240px; margin: auto;"">
                                <img src=""images/map12_PuBu_scaleDef_orientMir_000.png"" style= ""width:200px""alt=""img"">
                            </div>
                        </div>",0.565,"",0,"",NA,"","images/map12_PuBu_scaleDef_orientMir_000.png","happy",1,12,12,"PuBu","orientMir","scaleDef","000",NA,NA
"","","","","","html-slider-response",95,242853,"0.0-91.0","hwors81j0l",0,NA,"<div style=""width:500px;"">
                            <p style=""font-size:50px; font-weight:bold;""
                            >happy</p>
                            <div style=""width:240px; margin: auto;"">
                                <img src=""images/map13_BuGn_scaleDef_orientDef_180.png"" style= ""width:200px""alt=""img"">
                            </div>
                        </div>",0.38,"",0,"",NA,"","images/map13_BuGn_scaleDef_orientDef_180.png","happy",1,13,13,"BuGn","orientDef","scaleDef","180",NA,NA
"","","","","","html-slider-response",96,244852,"0.0-92.0","hwors81j0l",0,NA,"<div style=""width:500px;"">
                            <p style=""font-size:50px; font-weight:bold;""
                            >happy</p>
                            <div style=""width:240px; margin: auto;"">
                                <img src=""images/map15_BrBG_scaleRev_orientDef_270.png"" style= ""width:200px""alt=""img"">
                            </div>
                        </div>",0.1975,"",0,"",NA,"","images/map15_BrBG_scaleRev_orientDef_270.png","happy",1,15,15,"BrBG","orientDef","scaleRev","270",NA,NA
"","","","","","html-slider-response",97,246935,"0.0-93.0","hwors81j0l",0,NA,"<div style=""width:500px;"">
                            <p style=""font-size:50px; font-weight:bold;""
                            >happy</p>
                            <div style=""width:240px; margin: auto;"">
                                <img src=""images/map15_PRGn_scaleDef_orientDef_000.png"" style= ""width:200px""alt=""img"">
                            </div>
                        </div>",0.165,"",0,"",NA,"","images/map15_PRGn_scaleDef_orientDef_000.png","happy",1,15,15,"PRGn","orientDef","scaleDef","000",NA,NA
"","","","","","html-slider-response",98,248919,"0.0-94.0","hwors81j0l",0,NA,"<div style=""width:500px;"">
                            <p style=""font-size:50px; font-weight:bold;""
                            >happy</p>
                            <div style=""width:240px; margin: auto;"">
                                <img src=""images/map07_YlOrBr_scaleRev_orientMir_270.png"" style= ""width:200px""alt=""img"">
                            </div>
                        </div>",0.555,"",0,"",NA,"","images/map07_YlOrBr_scaleRev_orientMir_270.png","happy",1,7,7,"YlOrBr","orientMir","scaleRev","270",NA,NA
"","","","","","html-button-response",99,250609,"0.0-95.0","hwors81j0l",0,1187,"<p>Great Job! You've finished block 1.<br></br> You have 4 block(s) left to go.<br></br></p>",0.5,"",NA,"",NA,"","","",NA,NA,NA,"","","","",NA,NA
"","","","","","html-button-response",100,251692,"0.0-96.0","hwors81j0l",0,1082,"<p>In this block of trials, you will be asked to rate how much you associate each map with:</p > <p style = 'font-size:150%; font-weight: bold'>angry</p><br></br>",0.5,"",NA,"",NA,"","","",NA,NA,NA,"","","","",NA,NA
"","","","","","html-slider-response",101,253453,"0.0-97.0","hwors81j0l",0,NA,"<div style=""width:500px;"">
                            <p style=""font-size:50px; font-weight:bold;""
                            >angry</p>
                            <div style=""width:240px; margin: auto;"">
                                <img src=""images/map23_RdYlGn_scaleDef_orientMir_000.png"" style= ""width:200px""alt=""img"">
                            </div>
                        </div>",0.9175,"",0,"",NA,"","images/map23_RdYlGn_scaleDef_orientMir_000.png","angry",1,23,23,"RdYlGn","orientMir","scaleDef","000",NA,NA
"","","","","","html-slider-response",102,255388,"0.0-98.0","hwors81j0l",0,NA,"<div style=""width:500px;"">
                            <p style=""font-size:50px; font-weight:bold;""
                            >angry</p>
                            <div style=""width:240px; margin: auto;"">
                                <img src=""images/map05_Blues_scaleDef_orientMir_180.png"" style= ""width:200px""alt=""img"">
                            </div>
                        </div>",0.3275,"",0,"",NA,"","images/map05_Blues_scaleDef_orientMir_180.png","angry",1,5,5,"Blues","orientMir","scaleDef","180",NA,NA
"","","","","","html-slider-response",103,257286,"0.0-99.0","hwors81j0l",0,NA,"<div style=""width:500px;"">
                            <p style=""font-size:50px; font-weight:bold;""
                            >angry</p>
                            <div style=""width:240px; margin: auto;"">
                                <img src=""images/map26_coolwarm_scaleRev_orientDef_090.png"" style= ""width:200px""alt=""img"">
                            </div>
                        </div>",0.735,"",0,"",NA,"","images/map26_coolwarm_scaleRev_orientDef_090.png","angry",1,26,26,"coolwarm","orientDef","scaleRev","090",NA,NA
"","","","","","html-slider-response",104,259254,"0.0-100.0","hwors81j0l",0,NA,"<div style=""width:500px;"">
                            <p style=""font-size:50px; font-weight:bold;""
                            >angry</p>
                            <div style=""width:240px; margin: auto;"">
                                <img src=""images/map02_viridis_scaleRev_orientDef_090.png"" style= ""width:200px""alt=""img"">
                            </div>
                        </div>",0.3225,"",0,"",NA,"","images/map02_viridis_scaleRev_orientDef_090.png","angry",1,2,2,"viridis","orientDef","scaleRev","090",NA,NA
"","","","","","html-slider-response",105,261722,"0.0-101.0","hwors81j0l",0,NA,"<div style=""width:500px;"">
                            <p style=""font-size:50px; font-weight:bold;""
                            >angry</p>
                            <div style=""width:240px; margin: auto;"">
                                <img src=""images/map15_PuOr_scaleRev_orientMir_090.png"" style= ""width:200px""alt=""img"">
                            </div>
                        </div>",0.3125,"",0,"",NA,"","images/map15_PuOr_scaleRev_orientMir_090.png","angry",1,15,15,"PuOr","orientMir","scaleRev","090",NA,NA
"","","","","","html-slider-response",106,263902,"0.0-102.0","hwors81j0l",0,NA,"<div style=""width:500px;"">
                            <p style=""font-size:50px; font-weight:bold;""
                            >angry</p>
                            <div style=""width:240px; margin: auto;"">
                                <img src=""images/map26_berlin_scaleDef_orientMir_180.png"" style= ""width:200px""alt=""img"">
                            </div>
                        </div>",0.595,"",0,"",NA,"","images/map26_berlin_scaleDef_orientMir_180.png","angry",1,26,26,"berlin","orientMir","scaleDef","180",NA,NA
"","","","","","html-slider-response",107,266438,"0.0-103.0","hwors81j0l",0,NA,"<div style=""width:500px;"">
                            <p style=""font-size:50px; font-weight:bold;""
                            >angry</p>
                            <div style=""width:240px; margin: auto;"">
                                <img src=""images/map13_PuBuGn_scaleRev_orientDef_090.png"" style= ""width:200px""alt=""img"">
                            </div>
                        </div>",0.4575,"",0,"",NA,"","images/map13_PuBuGn_scaleRev_orientDef_090.png","angry",1,13,13,"PuBuGn","orientDef","scaleRev","090",NA,NA
"","","","","","html-slider-response",108,268336,"0.0-104.0","hwors81j0l",0,NA,"<div style=""width:500px;"">
                            <p style=""font-size:50px; font-weight:bold;""
                            >angry</p>
                            <div style=""width:240px; margin: auto;"">
                                <img src=""images/map07_YlOrBr_scaleRev_orientMir_270.png"" style= ""width:200px""alt=""img"">
                            </div>
                        </div>",0.6125,"",0,"",NA,"","images/map07_YlOrBr_scaleRev_orientMir_270.png","angry",1,7,7,"YlOrBr","orientMir","scaleRev","270",NA,NA
"","","","","","html-slider-response",109,270420,"0.0-105.0","hwors81j0l",0,NA,"<div style=""width:500px;"">
                            <p style=""font-size:50px; font-weight:bold;""
                            >angry</p>
                            <div style=""width:240px; margin: auto;"">
                                <img src=""images/map05_Purples_scaleDef_orientMir_000.png"" style= ""width:200px""alt=""img"">
                            </div>
                        </div>",0.3925,"",0,"",NA,"","images/map05_Purples_scaleDef_orientMir_000.png","angry",1,5,5,"Purples","orientMir","scaleDef","000",NA,NA
"","","","","","html-slider-response",110,272369,"0.0-106.0","hwors81j0l",0,NA,"<div style=""width:500px;"">
                            <p style=""font-size:50px; font-weight:bold;""
                            >angry</p>
                            <div style=""width:240px; margin: auto;"">
                                <img src=""images/map13_YlGn_scaleRev_orientMir_090.png"" style= ""width:200px""alt=""img"">
                            </div>
                        </div>",0.3875,"",0,"",NA,"","images/map13_YlGn_scaleRev_orientMir_090.png","angry",1,13,13,"YlGn","orientMir","scaleRev","090",NA,NA
"","","","","","html-slider-response",111,275153,"0.0-107.0","hwors81j0l",0,NA,"<div style=""width:500px;"">
                            <p style=""font-size:50px; font-weight:bold;""
                            >angry</p>
                            <div style=""width:240px; margin: auto;"">
                                <img src=""images/map12_GnBu_scaleDef_orientDef_180.png"" style= ""width:200px""alt=""img"">
                            </div>
                        </div>",0.3975,"",0,"",NA,"","images/map12_GnBu_scaleDef_orientDef_180.png","angry",1,12,12,"GnBu","orientDef","scaleDef","180",NA,NA
"","","","","","html-slider-response",112,277620,"0.0-108.0","hwors81j0l",0,NA,"<div style=""width:500px;"">
                            <p style=""font-size:50px; font-weight:bold;""
                            >angry</p>
                            <div style=""width:240px; margin: auto;"">
                                <img src=""images/map12_BuPu_scaleRev_orientDef_090.png"" style= ""width:200px""alt=""img"">
                            </div>
                        </div>",0.2375,"",0,"",NA,"","images/map12_BuPu_scaleRev_orientDef_090.png","angry",1,12,12,"BuPu","orientDef","scaleRev","090",NA,NA
"","","","","","html-slider-response",113,279803,"0.0-109.0","hwors81j0l",0,NA,"<div style=""width:500px;"">
                            <p style=""font-size:50px; font-weight:bold;""
                            >angry</p>
                            <div style=""width:240px; margin: auto;"">
                                <img src=""images/map23_RdYlGn_scaleRev_orientMir_090.png"" style= ""width:200px""alt=""img"">
                            </div>
                        </div>",0.705,"",0,"",NA,"","images/map23_RdYlGn_scaleRev_orientMir_090.png","angry",1,23,23,"RdYlGn","orientMir","scaleRev","090",NA,NA
"","","","","","html-slider-response",114,281636,"0.0-110.0","hwors81j0l",0,NA,"<div style=""width:500px;"">
                            <p style=""font-size:50px; font-weight:bold;""
                            >angry</p>
                            <div style=""width:240px; margin: auto;"">
                                <img src=""images/map07_Oranges_scaleDef_orientDef_180.png"" style= ""width:200px""alt=""img"">
                            </div>
                        </div>",0.645,"",0,"",NA,"","images/map07_Oranges_scaleDef_orientDef_180.png","angry",1,7,7,"Oranges","orientDef","scaleDef","180",NA,NA
"","","","","","html-slider-response",115,284286,"0.0-111.0","hwors81j0l",0,NA,"<div style=""width:500px;"">
                            <p style=""font-size:50px; font-weight:bold;""
                            >angry</p>
                            <div style=""width:240px; margin: auto;"">
                                <img src=""images/map26_coolwarm_scaleDef_orientDef_000.png"" style= ""width:200px""alt=""img"">
                            </div>
                        </div>",0.62,"",0,"",NA,"","images/map26_coolwarm_scaleDef_orientDef_000.png","angry",1,26,26,"coolwarm","orientDef","scaleDef","000",NA,NA
"","","","","","html-slider-response",116,286854,"0.0-112.0","hwors81j0l",0,NA,"<div style=""width:500px;"">
                            <p style=""font-size:50px; font-weight:bold;""
                            >angry</p>
                            <div style=""width:240px; margin: auto;"">
                                <img src=""images/map05_Greys_scaleDef_orientDef_180.png"" style= ""width:200px""alt=""img"">
                            </div>
                        </div>",0.545,"",0,"",NA,"","images/map05_Greys_scaleDef_orientDef_180.png","angry",1,5,5,"Greys","orientDef","scaleDef","180",NA,NA
"","","","","","html-slider-response",117,289302,"0.0-113.0","hwors81j0l",0,NA,"<div style=""width:500px;"">
                            <p style=""font-size:50px; font-weight:bold;""
                            >angry</p>
                            <div style=""width:240px; margin: auto;"">
                                <img src=""images/map10_PuRd_scaleRev_orientMir_090.png"" style= ""width:200px""alt=""img"">
                            </div>
                        </div>",0,"",0,"",NA,"","images/map10_PuRd_scaleRev_orientMir_090.png","angry",1,10,10,"PuRd","orientMir","scaleRev","090",NA,NA
"","","","","","html-slider-response",118,291485,"0.0-114.0","hwors81j0l",0,NA,"<div style=""width:500px;"">
                            <p style=""font-size:50px; font-weight:bold;""
                            >angry</p>
                            <div style=""width:240px; margin: auto;"">
                                <img src=""images/map10_RdPu_scaleRev_orientMir_270.png"" style= ""width:200px""alt=""img"">
                            </div>
                        </div>",0,"",0,"",NA,"","images/map10_RdPu_scaleRev_orientMir_270.png","angry",1,10,10,"RdPu","orientMir","scaleRev","270",NA,NA
"","","","","","html-slider-response",119,295003,"0.0-115.0","hwors81j0l",0,NA,"<div style=""width:500px;"">
                            <p style=""font-size:50px; font-weight:bold;""
                            >angry</p>
                            <div style=""width:240px; margin: auto;"">
                                <img src=""images/map02_plasma_scaleDef_orientDef_180.png"" style= ""width:200px""alt=""img"">
                            </div>
                        </div>",0.6875,"",0,"",NA,"","images/map02_plasma_scaleDef_orientDef_180.png","angry",1,2,2,"plasma","orientDef","scaleDef","180",NA,NA
"","","","","","html-slider-response",120,296837,"0.0-116.0","hwors81j0l",0,NA,"<div style=""width:500px;"">
                            <p style=""font-size:50px; font-weight:bold;""
                            >angry</p>
                            <div style=""width:240px; margin: auto;"">
                                <img src=""images/map10_YlOrRd_scaleDef_orientDef_000.png"" style= ""width:200px""alt=""img"">
                            </div>
                        </div>",1,"",0,"",NA,"","images/map10_YlOrRd_scaleDef_orientDef_000.png","angry",1,10,10,"YlOrRd","orientDef","scaleDef","000",NA,NA
"","","","","","html-slider-response",121,298954,"0.0-117.0","hwors81j0l",0,NA,"<div style=""width:500px;"">
                            <p style=""font-size:50px; font-weight:bold;""
                            >angry</p>
                            <div style=""width:240px; margin: auto;"">
                                <img src=""images/map23_RdBu_scaleRev_orientDef_090.png"" style= ""width:200px""alt=""img"">
                            </div>
                        </div>",0.6075,"",0,"",NA,"","images/map23_RdBu_scaleRev_orientDef_090.png","angry",1,23,23,"RdBu","orientDef","scaleRev","090",NA,NA
"","","","","","html-slider-response",122,300921,"0.0-118.0","hwors81j0l",0,NA,"<div style=""width:500px;"">
                            <p style=""font-size:50px; font-weight:bold;""
                            >angry</p>
                            <div style=""width:240px; margin: auto;"">
                                <img src=""images/map13_BuGn_scaleDef_orientDef_180.png"" style= ""width:200px""alt=""img"">
                            </div>
                        </div>",0.1825,"",0,"",NA,"","images/map13_BuGn_scaleDef_orientDef_180.png","angry",1,13,13,"BuGn","orientDef","scaleDef","180",NA,NA
"","","","","","html-slider-response",123,302787,"0.0-119.0","hwors81j0l",0,NA,"<div style=""width:500px;"">
                            <p style=""font-size:50px; font-weight:bold;""
                            >angry</p>
                            <div style=""width:240px; margin: auto;"">
                                <img src=""images/map13_PuBuGn_scaleDef_orientDef_000.png"" style= ""width:200px""alt=""img"">
                            </div>
                        </div>",0.205,"",0,"",NA,"","images/map13_PuBuGn_scaleDef_orientDef_000.png","angry",1,13,13,"PuBuGn","orientDef","scaleDef","000",NA,NA
"","","","","","html-slider-response",124,304652,"0.0-120.0","hwors81j0l",0,NA,"<div style=""width:500px;"">
                            <p style=""font-size:50px; font-weight:bold;""
                            >angry</p>
                            <div style=""width:240px; margin: auto;"">
                                <img src=""images/map05_Blues_scaleRev_orientMir_270.png"" style= ""width:200px""alt=""img"">
                            </div>
                        </div>",0.17,"",0,"",NA,"","images/map05_Blues_scaleRev_orientMir_270.png","angry",1,5,5,"Blues","orientMir","scaleRev","270",NA,NA
"","","","","","html-slider-response",125,306703,"0.0-121.0","hwors81j0l",0,NA,"<div style=""width:500px;"">
                            <p style=""font-size:50px; font-weight:bold;""
                            >angry</p>
                            <div style=""width:240px; margin: auto;"">
                                <img src=""images/map26_seismic_scaleDef_orientMir_000.png"" style= ""width:200px""alt=""img"">
                            </div>
                        </div>",0.2475,"",0,"",NA,"","images/map26_seismic_scaleDef_orientMir_000.png","angry",1,26,26,"seismic","orientMir","scaleDef","000",NA,NA
"","","","","","html-slider-response",126,308853,"0.0-122.0","hwors81j0l",0,NA,"<div style=""width:500px;"">
                            <p style=""font-size:50px; font-weight:bold;""
                            >angry</p>
                            <div style=""width:240px; margin: auto;"">
                                <img src=""images/map15_PuOr_scaleDef_orientMir_000.png"" style= ""width:200px""alt=""img"">
                            </div>
                        </div>",0.5875,"",0,"",NA,"","images/map15_PuOr_scaleDef_orientMir_000.png","angry",1,15,15,"PuOr","orientMir","scaleDef","000",NA,NA
"","","","","","html-slider-response",127,311102,"0.0-123.0","hwors81j0l",0,NA,"<div style=""width:500px;"">
                            <p style=""font-size:50px; font-weight:bold;""
                            >angry</p>
                            <div style=""width:240px; margin: auto;"">
                                <img src=""images/map02_magma_scaleRev_orientMir_270.png"" style= ""width:200px""alt=""img"">
                            </div>
                        </div>",0.555,"",0,"",NA,"","images/map02_magma_scaleRev_orientMir_270.png","angry",1,2,2,"magma","orientMir","scaleRev","270",NA,NA
"","","","","","html-slider-response",128,312969,"0.0-124.0","hwors81j0l",0,NA,"<div style=""width:500px;"">
                            <p style=""font-size:50px; font-weight:bold;""
                            >angry</p>
                            <div style=""width:240px; margin: auto;"">
                                <img src=""images/map23_RdBu_scaleDef_orientDef_000.png"" style= ""width:200px""alt=""img"">
                            </div>
                        </div>",0.66,"",0,"",NA,"","images/map23_RdBu_scaleDef_orientDef_000.png","angry",1,23,23,"RdBu","orientDef","scaleDef","000",NA,NA
"","","","","","html-slider-response",129,316369,"0.0-125.0","hwors81j0l",0,NA,"<div style=""width:500px;"">
                            <p style=""font-size:50px; font-weight:bold;""
                            >angry</p>
                            <div style=""width:240px; margin: auto;"">
                                <img src=""images/map02_plasma_scaleRev_orientDef_270.png"" style= ""width:200px""alt=""img"">
                            </div>
                        </div>",0.5775,"",0,"",NA,"","images/map02_plasma_scaleRev_orientDef_270.png","angry",1,2,2,"plasma","orientDef","scaleRev","270",NA,NA
"","","","","","html-slider-response",130,319119,"0.0-126.0","hwors81j0l",0,NA,"<div style=""width:500px;"">
                            <p style=""font-size:50px; font-weight:bold;""
                            >angry</p>
                            <div style=""width:240px; margin: auto;"">
                                <img src=""images/map15_BrBG_scaleRev_orientDef_270.png"" style= ""width:200px""alt=""img"">
                            </div>
                        </div>",0.595,"",0,"",NA,"","images/map15_BrBG_scaleRev_orientDef_270.png","angry",1,15,15,"BrBG","orientDef","scaleRev","270",NA,NA
"","","","","","html-slider-response",131,320987,"0.0-127.0","hwors81j0l",0,NA,"<div style=""width:500px;"">
                            <p style=""font-size:50px; font-weight:bold;""
                            >angry</p>
                            <div style=""width:240px; margin: auto;"">
                                <img src=""images/map13_YlGn_scaleDef_orientMir_000.png"" style= ""width:200px""alt=""img"">
                            </div>
                        </div>",0.24,"",0,"",NA,"","images/map13_YlGn_scaleDef_orientMir_000.png","angry",1,13,13,"YlGn","orientMir","scaleDef","000",NA,NA
"","","","","","html-slider-response",132,323270,"0.0-128.0","hwors81j0l",0,NA,"<div style=""width:500px;"">
                            <p style=""font-size:50px; font-weight:bold;""
                            >angry</p>
                            <div style=""width:240px; margin: auto;"">
                                <img src=""images/map12_GnBu_scaleRev_orientDef_270.png"" style= ""width:200px""alt=""img"">
                            </div>
                        </div>",0.1875,"",0,"",NA,"","images/map12_GnBu_scaleRev_orientDef_270.png","angry",1,12,12,"GnBu","orientDef","scaleRev","270",NA,NA
"","","","","","html-slider-response",133,325087,"0.0-129.0","hwors81j0l",0,NA,"<div style=""width:500px;"">
                            <p style=""font-size:50px; font-weight:bold;""
                            >angry</p>
                            <div style=""width:240px; margin: auto;"">
                                <img src=""images/map10_YlOrRd_scaleRev_orientDef_090.png"" style= ""width:200px""alt=""img"">
                            </div>
                        </div>",1,"",0,"",NA,"","images/map10_YlOrRd_scaleRev_orientDef_090.png","angry",1,10,10,"YlOrRd","orientDef","scaleRev","090",NA,NA
"","","","","","html-slider-response",134,326986,"0.0-130.0","hwors81j0l",0,NA,"<div style=""width:500px;"">
                            <p style=""font-size:50px; font-weight:bold;""
                            >angry</p>
                            <div style=""width:240px; margin: auto;"">
                                <img src=""images/map12_YlGnBu_scaleRev_orientMir_270.png"" style= ""width:200px""alt=""img"">
                            </div>
                        </div>",0.3225,"",0,"",NA,"","images/map12_YlGnBu_scaleRev_orientMir_270.png","angry",1,12,12,"YlGnBu","orientMir","scaleRev","270",NA,NA
"","","","","","html-slider-response",135,328787,"0.0-131.0","hwors81j0l",0,NA,"<div style=""width:500px;"">
                            <p style=""font-size:50px; font-weight:bold;""
                            >angry</p>
                            <div style=""width:240px; margin: auto;"">
                                <img src=""images/map05_Purples_scaleRev_orientMir_090.png"" style= ""width:200px""alt=""img"">
                            </div>
                        </div>",0.22,"",0,"",NA,"","images/map05_Purples_scaleRev_orientMir_090.png","angry",1,5,5,"Purples","orientMir","scaleRev","090",NA,NA
"","","","","","html-slider-response",136,330686,"0.0-132.0","hwors81j0l",0,NA,"<div style=""width:500px;"">
                            <p style=""font-size:50px; font-weight:bold;""
                            >angry</p>
                            <div style=""width:240px; margin: auto;"">
                                <img src=""images/map27_turbo_scaleRev_orientMir_270.png"" style= ""width:200px""alt=""img"">
                            </div>
                        </div>",0.8375,"",0,"",NA,"","images/map27_turbo_scaleRev_orientMir_270.png","angry",1,27,27,"turbo","orientMir","scaleRev","270",NA,NA
"","","","","","html-slider-response",137,332638,"0.0-133.0","hwors81j0l",0,NA,"<div style=""width:500px;"">
                            <p style=""font-size:50px; font-weight:bold;""
                            >angry</p>
                            <div style=""width:240px; margin: auto;"">
                                <img src=""images/map13_BuGn_scaleRev_orientDef_270.png"" style= ""width:200px""alt=""img"">
                            </div>
                        </div>",0.31,"",0,"",NA,"","images/map13_BuGn_scaleRev_orientDef_270.png","angry",1,13,13,"BuGn","orientDef","scaleRev","270",NA,NA
"","","","","","html-slider-response",138,334853,"0.0-134.0","hwors81j0l",0,NA,"<div style=""width:500px;"">
                            <p style=""font-size:50px; font-weight:bold;""
                            >angry</p>
                            <div style=""width:240px; margin: auto;"">
                                <img src=""images/map26_seismic_scaleRev_orientMir_090.png"" style= ""width:200px""alt=""img"">
                            </div>
                        </div>",0.575,"",0,"",NA,"","images/map26_seismic_scaleRev_orientMir_090.png","angry",1,26,26,"seismic","orientMir","scaleRev","090",NA,NA
"","","","","","html-slider-response",139,336420,"0.0-135.0","hwors81j0l",0,NA,"<div style=""width:500px;"">
                            <p style=""font-size:50px; font-weight:bold;""
                            >angry</p>
                            <div style=""width:240px; margin: auto;"">
                                <img src=""images/map07_Reds_scaleDef_orientMir_000.png"" style= ""width:200px""alt=""img"">
                            </div>
                        </div>",1,"",0,"",NA,"","images/map07_Reds_scaleDef_orientMir_000.png","angry",1,7,7,"Reds","orientMir","scaleDef","000",NA,NA
"","","","","","html-slider-response",140,338521,"0.0-136.0","hwors81j0l",0,NA,"<div style=""width:500px;"">
                            <p style=""font-size:50px; font-weight:bold;""
                            >angry</p>
                            <div style=""width:240px; margin: auto;"">
                                <img src=""images/map02_inferno_scaleDef_orientMir_000.png"" style= ""width:200px""alt=""img"">
                            </div>
                        </div>",1,"",0,"",NA,"","images/map02_inferno_scaleDef_orientMir_000.png","angry",1,2,2,"inferno","orientMir","scaleDef","000",NA,NA
"","","","","","html-button-response",141,341109,"0.0-137.0","hwors81j0l",0,2086,"<p>You are doing great!<br></br> You are halway done with the current block. When you are ready to continue, click the 'Continue' button.</p>",0.5,"",NA,"",NA,"","","",NA,NA,NA,"","","","",NA,NA
"","","","","","html-slider-response",142,342671,"0.0-138.0","hwors81j0l",0,NA,"<div style=""width:500px;"">
                            <p style=""font-size:50px; font-weight:bold;""
                            >angry</p>
                            <div style=""width:240px; margin: auto;"">
                                <img src=""images/map02_magma_scaleDef_orientMir_180.png"" style= ""width:200px""alt=""img"">
                            </div>
                        </div>",0.6325,"",0,"",NA,"","images/map02_magma_scaleDef_orientMir_180.png","angry",1,2,2,"magma","orientMir","scaleDef","180",NA,NA
"","","","","","html-slider-response",143,344504,"0.0-139.0","hwors81j0l",0,NA,"<div style=""width:500px;"">
                            <p style=""font-size:50px; font-weight:bold;""
                            >angry</p>
                            <div style=""width:240px; margin: auto;"">
                                <img src=""images/map26_bwr_scaleRev_orientDef_270.png"" style= ""width:200px""alt=""img"">
                            </div>
                        </div>",0.385,"",0,"",NA,"","images/map26_bwr_scaleRev_orientDef_270.png","angry",1,26,26,"bwr","orientDef","scaleRev","270",NA,NA
"","","","","","html-slider-response",144,346269,"0.0-140.0","hwors81j0l",0,NA,"<div style=""width:500px;"">
                            <p style=""font-size:50px; font-weight:bold;""
                            >angry</p>
                            <div style=""width:240px; margin: auto;"">
                                <img src=""images/map23_RdYlBu_scaleRev_orientDef_270.png"" style= ""width:200px""alt=""img"">
                            </div>
                        </div>",0.6075,"",0,"",NA,"","images/map23_RdYlBu_scaleRev_orientDef_270.png","angry",1,23,23,"RdYlBu","orientDef","scaleRev","270",NA,NA
"","","","","","html-slider-response",145,347935,"0.0-141.0","hwors81j0l",0,NA,"<div style=""width:500px;"">
                            <p style=""font-size:50px; font-weight:bold;""
                            >angry</p>
                            <div style=""width:240px; margin: auto;"">
                                <img src=""images/map10_PuRd_scaleDef_orientMir_000.png"" style= ""width:200px""alt=""img"">
                            </div>
                        </div>",0,"",0,"",NA,"","images/map10_PuRd_scaleDef_orientMir_000.png","angry",1,10,10,"PuRd","orientMir","scaleDef","000",NA,NA
"","","","","","html-slider-response",146,349785,"0.0-142.0","hwors81j0l",0,NA,"<div style=""width:500px;"">
                            <p style=""font-size:50px; font-weight:bold;""
                            >angry</p>
                            <div style=""width:240px; margin: auto;"">
                                <img src=""images/map27_managua_scaleRev_orientDef_090.png"" style= ""width:200px""alt=""img"">
                            </div>
                        </div>",0.5825,"",0,"",NA,"","images/map27_managua_scaleRev_orientDef_090.png","angry",1,27,27,"managua","orientDef","scaleRev","090",NA,NA
"","","","","","html-slider-response",147,351653,"0.0-143.0","hwors81j0l",0,NA,"<div style=""width:500px;"">
                            <p style=""font-size:50px; font-weight:bold;""
                            >angry</p>
                            <div style=""width:240px; margin: auto;"">
                                <img src=""images/map26_bwr_scaleDef_orientDef_180.png"" style= ""width:200px""alt=""img"">
                            </div>
                        </div>",0.5425,"",0,"",NA,"","images/map26_bwr_scaleDef_orientDef_180.png","angry",1,26,26,"bwr","orientDef","scaleDef","180",NA,NA
"","","","","","html-slider-response",148,354153,"0.0-144.0","hwors81j0l",0,NA,"<div style=""width:500px;"">
                            <p style=""font-size:50px; font-weight:bold;""
                            >angry</p>
                            <div style=""width:240px; margin: auto;"">
                                <img src=""images/map15_RdGy_scaleDef_orientMir_180.png"" style= ""width:200px""alt=""img"">
                            </div>
                        </div>",0.52,"",0,"",NA,"","images/map15_RdGy_scaleDef_orientMir_180.png","angry",1,15,15,"RdGy","orientMir","scaleDef","180",NA,NA
"","","","","","html-slider-response",149,356370,"0.0-145.0","hwors81j0l",0,NA,"<div style=""width:500px;"">
                            <p style=""font-size:50px; font-weight:bold;""
                            >angry</p>
                            <div style=""width:240px; margin: auto;"">
                                <img src=""images/map07_Oranges_scaleRev_orientDef_270.png"" style= ""width:200px""alt=""img"">
                            </div>
                        </div>",0.705,"",0,"",NA,"","images/map07_Oranges_scaleRev_orientDef_270.png","angry",1,7,7,"Oranges","orientDef","scaleRev","270",NA,NA
"","","","","","html-slider-response",150,358153,"0.0-146.0","hwors81j0l",0,NA,"<div style=""width:500px;"">
                            <p style=""font-size:50px; font-weight:bold;""
                            >angry</p>
                            <div style=""width:240px; margin: auto;"">
                                <img src=""images/map07_Reds_scaleRev_orientMir_090.png"" style= ""width:200px""alt=""img"">
                            </div>
                        </div>",1,"",0,"",NA,"","images/map07_Reds_scaleRev_orientMir_090.png","angry",1,7,7,"Reds","orientMir","scaleRev","090",NA,NA
"","","","","","html-slider-response",151,359870,"0.0-147.0","hwors81j0l",0,NA,"<div style=""width:500px;"">
                            <p style=""font-size:50px; font-weight:bold;""
                            >angry</p>
                            <div style=""width:240px; margin: auto;"">
                                <img src=""images/map12_PuBu_scaleDef_orientMir_000.png"" style= ""width:200px""alt=""img"">
                            </div>
                        </div>",0.405,"",0,"",NA,"","images/map12_PuBu_scaleDef_orientMir_000.png","angry",1,12,12,"PuBu","orientMir","scaleDef","000",NA,NA
"","","","","","html-slider-response",152,361986,"0.0-148.0","hwors81j0l",0,NA,"<div style=""width:500px;"">
                            <p style=""font-size:50px; font-weight:bold;""
                            >angry</p>
                            <div style=""width:240px; margin: auto;"">
                                <img src=""images/map12_BuPu_scaleDef_orientDef_000.png"" style= ""width:200px""alt=""img"">
                            </div>
                        </div>",0.4625,"",0,"",NA,"","images/map12_BuPu_scaleDef_orientDef_000.png","angry",1,12,12,"BuPu","orientDef","scaleDef","000",NA,NA
"","","","","","html-slider-response",153,364470,"0.0-149.0","hwors81j0l",0,NA,"<div style=""width:500px;"">
                            <p style=""font-size:50px; font-weight:bold;""
                            >angry</p>
                            <div style=""width:240px; margin: auto;"">
                                <img src=""images/map13_PiYG_scaleDef_orientMir_180.png"" style= ""width:200px""alt=""img"">
                            </div>
                        </div>",0.205,"",0,"",NA,"","images/map13_PiYG_scaleDef_orientMir_180.png","angry",1,13,13,"PiYG","orientMir","scaleDef","180",NA,NA
"","","","","","html-slider-response",154,366136,"0.0-150.0","hwors81j0l",0,NA,"<div style=""width:500px;"">
                            <p style=""font-size:50px; font-weight:bold;""
                            >angry</p>
                            <div style=""width:240px; margin: auto;"">
                                <img src=""images/map05_Greys_scaleRev_orientDef_270.png"" style= ""width:200px""alt=""img"">
                            </div>
                        </div>",0.505,"",0,"",NA,"","images/map05_Greys_scaleRev_orientDef_270.png","angry",1,5,5,"Greys","orientDef","scaleRev","270",NA,NA
"","","","","","html-slider-response",155,368153,"0.0-151.0","hwors81j0l",0,NA,"<div style=""width:500px;"">
                            <p style=""font-size:50px; font-weight:bold;""
                            >angry</p>
                            <div style=""width:240px; margin: auto;"">
                                <img src=""images/map23_Spectral_scaleRev_orientMir_270.png"" style= ""width:200px""alt=""img"">
                            </div>
                        </div>",0.72,"",0,"",NA,"","images/map23_Spectral_scaleRev_orientMir_270.png","angry",1,23,23,"Spectral","orientMir","scaleRev","270",NA,NA
"","","","","","html-slider-response",156,370686,"0.0-152.0","hwors81j0l",0,NA,"<div style=""width:500px;"">
                            <p style=""font-size:50px; font-weight:bold;""
                            >angry</p>
                            <div style=""width:240px; margin: auto;"">
                                <img src=""images/map02_inferno_scaleRev_orientMir_090.png"" style= ""width:200px""alt=""img"">
                            </div>
                        </div>",1,"",0,"",NA,"","images/map02_inferno_scaleRev_orientMir_090.png","angry",1,2,2,"inferno","orientMir","scaleRev","090",NA,NA
"","","","","","html-slider-response",157,372771,"0.0-153.0","hwors81j0l",0,NA,"<div style=""width:500px;"">
                            <p style=""font-size:50px; font-weight:bold;""
                            >angry</p>
                            <div style=""width:240px; margin: auto;"">
                                <img src=""images/map02_viridis_scaleDef_orientDef_000.png"" style= ""width:200px""alt=""img"">
                            </div>
                        </div>",0.37,"",0,"",NA,"","images/map02_viridis_scaleDef_orientDef_000.png","angry",1,2,2,"viridis","orientDef","scaleDef","000",NA,NA
"","","","","","html-slider-response",158,374405,"0.0-154.0","hwors81j0l",0,NA,"<div style=""width:500px;"">
                            <p style=""font-size:50px; font-weight:bold;""
                            >angry</p>
                            <div style=""width:240px; margin: auto;"">
                                <img src=""images/map23_RdYlBu_scaleDef_orientDef_180.png"" style= ""width:200px""alt=""img"">
                            </div>
                        </div>",0.55,"",0,"",NA,"","images/map23_RdYlBu_scaleDef_orientDef_180.png","angry",1,23,23,"RdYlBu","orientDef","scaleDef","180",NA,NA
"","","","","","html-slider-response",159,376103,"0.0-155.0","hwors81j0l",0,NA,"<div style=""width:500px;"">
                            <p style=""font-size:50px; font-weight:bold;""
                            >angry</p>
                            <div style=""width:240px; margin: auto;"">
                                <img src=""images/map27_gist_earth_scaleRev_orientMir_090.png"" style= ""width:200px""alt=""img"">
                            </div>
                        </div>",0.415,"",0,"",NA,"","images/map27_gist_earth_scaleRev_orientMir_090.png","angry",1,27,27,"gist","scaleRev","earth","orientMir",NA,NA
"","","","","","html-slider-response",160,378169,"0.0-156.0","hwors81j0l",0,NA,"<div style=""width:500px;"">
                            <p style=""font-size:50px; font-weight:bold;""
                            >angry</p>
                            <div style=""width:240px; margin: auto;"">
                                <img src=""images/map07_Greens_scaleDef_orientDef_000.png"" style= ""width:200px""alt=""img"">
                            </div>
                        </div>",0.4125,"",0,"",NA,"","images/map07_Greens_scaleDef_orientDef_000.png","angry",1,7,7,"Greens","orientDef","scaleDef","000",NA,NA
"","","","","","html-slider-response",161,380204,"0.0-157.0","hwors81j0l",0,NA,"<div style=""width:500px;"">
                            <p style=""font-size:50px; font-weight:bold;""
                            >angry</p>
                            <div style=""width:240px; margin: auto;"">
                                <img src=""images/map13_PiYG_scaleRev_orientMir_270.png"" style= ""width:200px""alt=""img"">
                            </div>
                        </div>",0.0675,"",0,"",NA,"","images/map13_PiYG_scaleRev_orientMir_270.png","angry",1,13,13,"PiYG","orientMir","scaleRev","270",NA,NA
"","","","","","html-slider-response",162,383053,"0.0-158.0","hwors81j0l",0,NA,"<div style=""width:500px;"">
                            <p style=""font-size:50px; font-weight:bold;""
                            >angry</p>
                            <div style=""width:240px; margin: auto;"">
                                <img src=""images/map27_vanimo_scaleRev_orientDef_270.png"" style= ""width:200px""alt=""img"">
                            </div>
                        </div>",0.8925,"",0,"",NA,"","images/map27_vanimo_scaleRev_orientDef_270.png","angry",1,27,27,"vanimo","orientDef","scaleRev","270",NA,NA
"","","","","","html-slider-response",163,384903,"0.0-159.0","hwors81j0l",0,NA,"<div style=""width:500px;"">
