"success","timeout","failed_images","failed_audio","failed_video","trial_type","trial_index","time_elapsed","internal_node_id","subject_id","condition_num","rt","stimulus","response","question_order","slider_start","practiceTrial","practiceTrialNum","correct","image_path","concept","repetition","map_id","map_num","scale_name","orientation_code","mapping_code","rotation_code","ishihara_plate","correct_response"
"true","false","[]","[]","[]","preload",0,421,"0.0-0.0","m4z5jzncon",78,NA,"",NA,"",NA,"",NA,"","","",NA,NA,NA,"","","","",NA,NA
"","","","","","html-button-response",1,8038,"0.0-1.0","m4z5jzncon",78,7615,"Welcome to our experiment!<p>At the bottom of this screen, you will see a button that says ""Begin Experiment"".<br>Please only click that button when you are ready to complete the 30 minute experiment in one sitting.</p><p> Once you click that button, it will not be possible to restart the experiment.",0.5,"",NA,"",NA,"","","",NA,NA,NA,"","","","",NA,NA
"true","","","","","fullscreen",2,11296,"0.0-2.0","m4z5jzncon",78,2253,"",NA,"",NA,"",NA,"","","",NA,NA,NA,"","","","",NA,NA
"","","","","","survey-multi-select",3,49786,"0.0-3.0","m4z5jzncon",78,38484,"",NA,"[0]",NA,"",NA,"","","",NA,NA,NA,"","","","",NA,NA
"","","","","","html-button-response",4,51287,"0.0-4.0","m4z5jzncon",78,1498,"Welcome! <p> This experiment involves two parts: demographic information, followed by the experimental task.<p> It will take about 30 minutes to complete both parts.",0.5,"",NA,"",NA,"","","",NA,NA,NA,"","","","",NA,NA
"","","","","","survey-text",5,78998,"0.0-5.0","m4z5jzncon",78,27699,"",NA,"",NA,"",NA,"","","",NA,NA,NA,"","","","",NA,NA
"","","","","","html-slider-response",6,100601,"0.0-6.0","m4z5jzncon",78,21599,"<div style='text-align:left; font-size:20px; line-height:25px; width: 1000px;'>
                                During this experiment you will be asked to rate how much you associate maps with                    different concepts.<br> Below, you can see some examples of the maps you will be asked to rate. Above the maps
                    is the list of concepts.<br>You will be asked                    to rate how much you associate each map with each concept on a scale from 'not at all' to 'very much' like the
                    one below. <br><br>
                    Now, please look at the list of concepts and maps. For each concept, think about the map you associate 'very
                    much' with the concept.<br>                     When you see that map during the experiment, please rate it near the 'very much' endpoint of the
                    scale.<br>Now, please think about which map you associate 'not at all'                     with each concept. When you see that map during the experiment, please rate it near the 'not at all' endpoint
                    of the scale.<br>
                    Please use the full range of the scale. That is, if a map is somewhat associated with the concept, you would
                    click partway between the middle point and right side of the scale.                    You will be asked to rate each map for a given concept before moving on to the next concept.<br>Press the
                    'Continue' button for instructions on how to use the slider.                    <br>
                </div>

                <div style=""width: 500px; margin: 0 auto;"">
                    <!-- Centered text paragraphs -->
                    <div style=""text-align: center; width: 500px;"">
                        <p style=""font-size:25px; line-height:15px;"">
                            happy&nbsp;&nbsp;&nbsp;&nbsp;
                            sad&nbsp;&nbsp;&nbsp;&nbsp;
                            fearful&nbsp;&nbsp;&nbsp;&nbsp;
                            angry&nbsp;&nbsp;&nbsp;&nbsp;
                            disgust
                        </p>
                        <!-- <p style=""font-size:20px; line-height:15px;"">sad</p>
                        <p style=""font-size:20px;line-height:15px;"">fearful</p>
                        <p style=""font-size:20px;line-height:15px;"">angry</p>
                        <p style=""font-size:20px;line-height:15px;"">disgust</p> -->
                    </div>
            

                    <!-- Grid section -->
                   <div style=""display: flex; justify-content: center; padding-top: 15px;"">
                    <div style=""display: grid; grid-template-columns: repeat(10, 55px); grid-gap: 5px; width: auto;"">
                        <img src=""images/map10_RdPu_scaleRev_orientMir_090.png"" alt=""map"" style=""width: 100%;""><img src=""images/map02_magma_scaleDef_orientMir_000.png"" alt=""map"" style=""width: 100%;""><img src=""images/map07_Oranges_scaleRev_orientDef_090.png"" alt=""map"" style=""width: 100%;""><img src=""images/map12_YlGnBu_scaleDef_orientMir_000.png"" alt=""map"" style=""width: 100%;""><img src=""images/map23_coolwarm_scaleDef_orientMir_180.png"" alt=""map"" style=""width: 100%;""><img src=""images/map15_RdBu_scaleRev_orientMir_270.png"" alt=""map"" style=""width: 100%;""><img src=""images/map02_inferno_scaleRev_orientDef_270.png"" alt=""map"" style=""width: 100%;""><img src=""images/map13_BuGn_scaleRev_orientDef_090.png"" alt=""map"" style=""width: 100%;""><img src=""images/map23_RdYlGn_scaleDef_orientDef_180.png"" alt=""map"" style=""width: 100%;""><img src=""images/map27_vanimo_scaleRev_orientDef_090.png"" alt=""map"" style=""width: 100%;""><img src=""images/map10_BuPu_scaleDef_orientMir_180.png"" alt=""map"" style=""width: 100%;""><img src=""images/map12_PuBuGn_scaleDef_orientMir_180.png"" alt=""map"" style=""width: 100%;""><img src=""images/map07_Reds_scaleDef_orientDef_180.png"" alt=""map"" style=""width: 100%;""><img src=""images/map07_YlOrRd_scaleRev_orientMir_270.png"" alt=""map"" style=""width: 100%;""><img src=""images/map15_RdGy_scaleRev_orientMir_090.png"" alt=""map"" style=""width: 100%;""><img src=""images/map15_PuOr_scaleRev_orientDef_270.png"" alt=""map"" style=""width: 100%;""><img src=""images/map13_YlGn_scaleDef_orientDef_180.png"" alt=""map"" style=""width: 100%;""><img src=""images/map02_plasma_scaleDef_orientDef_000.png"" alt=""map"" style=""width: 100%;""><img src=""images/map13_PRGn_scaleRev_orientMir_270.png"" alt=""map"" style=""width: 100%;""><img src=""images/map05_Purples_scaleDef_orientDef_180.png"" alt=""map"" style=""width: 100%;""><img src=""images/map10_PuRd_scaleDef_orientDef_180.png"" alt=""map"" style=""width: 100%;""><img src=""images/map23_RdYlBu_scaleDef_orientDef_000.png"" alt=""map"" style=""width: 100%;""><img src=""images/map05_Greys_scaleDef_orientDef_000.png"" alt=""map"" style=""width: 100%;""><img src=""images/map26_seismic_scaleRev_orientDef_270.png"" alt=""map"" style=""width: 100%;""><img src=""images/map27_turbo_scaleDef_orientMir_000.png"" alt=""map"" style=""width: 100%;""><img src=""images/map05_Greens_scaleRev_orientMir_270.png"" alt=""map"" style=""width: 100%;""><img src=""images/map15_BrBG_scaleDef_orientDef_000.png"" alt=""map"" style=""width: 100%;""><img src=""images/map07_YlOrBr_scaleDef_orientMir_000.png"" alt=""map"" style=""width: 100%;""><img src=""images/map05_Blues_scaleDef_orientMir_000.png"" alt=""map"" style=""width: 100%;""><img src=""images/map12_GnBu_scaleDef_orientDef_000.png"" alt=""map"" style=""width: 100%;""><img src=""images/map10_OrRd_scaleRev_orientDef_090.png"" alt=""map"" style=""width: 100%;""><img src=""images/map26_managua_scaleRev_orientMir_270.png"" alt=""map"" style=""width: 100%;""><img src=""images/map12_PuBu_scaleRev_orientDef_270.png"" alt=""map"" style=""width: 100%;""><img src=""images/map13_PiYG_scaleDef_orientMir_000.png"" alt=""map"" style=""width: 100%;""><img src=""images/map27_viridis_scaleRev_orientMir_270.png"" alt=""map"" style=""width: 100%;""><img src=""images/map23_Spectral_scaleDef_orientMir_000.png"" alt=""map"" style=""width: 100%;""><img src=""images/map26_berlin_scaleDef_orientMir_000.png"" alt=""map"" style=""width: 100%;""><img src=""images/map26_bwr_scaleDef_orientDef_000.png"" alt=""map"" style=""width: 100%;""><img src=""images/map27_gist_earth_scaleDef_orientDef_180.png"" alt=""map"" style=""width: 100%;""><img src=""images/map02_cividis_scaleDef_orientMir_180.png"" alt=""map"" style=""width: 100%;"">
                    </div>
                </div>

                    <!-- Clear floats -->
                    <div style=""clear: both;""></div>
                </div>
                            ",0.515,"",0,"true",NA,"","","",NA,NA,NA,"","","","",NA,NA
"","","","","","html-button-response",7,105895,"0.0-7.0","m4z5jzncon",78,5292,"<div style=""width:800px;""><p style=""text-align:left"">To move the slider, click and drag your cursor to the location of the scale where you would like to make your rating and then let go. When you let go of the slider, your response will be recorded and the next trial will begin. <br>
                    We are interested in your initial impressions of each map for the given concept, so please go with your first intuition. <br>
                    Before you begin the experiment, there will be four training trials for you to practice using the scale. <br>
                     When you are ready to start the training trials, please click ""Continue"".</p><br></div>",0.5,"",NA,"",NA,"","","",NA,NA,NA,"","","","",NA,NA
"","","","","","html-slider-response",8,108691,"0.0-8.0-0.0","m4z5jzncon",78,NA,"<div style=""width:500px;"">
                                    <p style=""font-size:25px;"">Please move the slider all the way to the <br> right endpoint of the scale</p>

                                    </div>
                                </div>",1,"",0,"true",0,"true","","",NA,NA,NA,"","","","",NA,NA
"","","","","","html-button-response",9,110076,"0.0-8.0-1.0","m4z5jzncon",78,881,"<p align='center'><b>Good job!</b> Click on 'Continue' to proceed.</p>",0.5,"",NA,"",NA,"","","",NA,NA,NA,"","","","",NA,NA
"","","","","","html-slider-response",10,111807,"0.0-9.0-0.0","m4z5jzncon",78,NA,"<div style=""width:500px;"">
                                    <p style=""font-size:25px;"">Please move the slider all the way to the <br> left endpoint of the scale</p>

                                    </div>
                                </div>",0,"",0,"true",1,"true","","",NA,NA,NA,"","","","",NA,NA
"","","","","","html-button-response",11,112998,"0.0-9.0-1.0","m4z5jzncon",78,682,"<p align='center'><b>Good job!</b> Click on 'Continue' to proceed.</p>",0.5,"",NA,"",NA,"","","",NA,NA,NA,"","","","",NA,NA
"","","","","","html-slider-response",12,118247,"0.0-10.0-0.0","m4z5jzncon",78,NA,"<div style=""width:500px;"">
                                    <p style=""font-size:25px;"">Please move the slider halfway between the center and right endpoint of the scale</p>

                                    </div>
                                </div>",0.775,"",0,"true",2,"true","","",NA,NA,NA,"","","","",NA,NA
"","","","","","html-button-response",13,120346,"0.0-10.0-1.0","m4z5jzncon",78,1594,"<p align='center'><b>Good job!</b> Click on 'Continue' to proceed.</p>",0.5,"",NA,"",NA,"","","",NA,NA,NA,"","","","",NA,NA
"","","","","","html-slider-response",14,122273,"0.0-11.0-0.0","m4z5jzncon",78,NA,"<div style=""width:500px;"">
                                    <p style=""font-size:25px;"">Please move the slider halfway between the center and left endpoint of the scale</p>

                                    </div>
                                </div>",0.2325,"",0,"true",3,"true","","",NA,NA,NA,"","","","",NA,NA
"","","","","","html-button-response",15,123483,"0.0-11.0-1.0","m4z5jzncon",78,695,"<p align='center'><b>Good job!</b> Click on 'Continue' to proceed.</p>",0.5,"",NA,"",NA,"","","",NA,NA,NA,"","","","",NA,NA
"","","","","","html-button-response",16,124557,"0.0-12.0","m4z5jzncon",78,1072,"<p>Great job! You've completed the practice trials. Now you will begin the main task.</p>",0.5,"",NA,"",NA,"","","",NA,NA,NA,"","","","",NA,NA
"","","","","","html-button-response",17,127724,"0.0-13.0","m4z5jzncon",78,3166,"<p>In this block of trials, you will be asked to rate how much you associate each map with:</p > <p style = 'font-size:150%; font-weight: bold'>happy</p><br></br>",0.5,"",NA,"",NA,"","","",NA,NA,NA,"","","","",NA,NA
"","","","","","html-slider-response",18,130669,"0.0-14.0","m4z5jzncon",78,NA,"<div style=""width:500px;"">
                            <p style=""font-size:50px; font-weight:bold;""
                            >happy</p>
                            <div style=""width:240px; margin: auto;"">
                                <img src=""images/map13_YlGn_scaleDef_orientDef_180.png"" style= ""width:200px""alt=""img"">
                            </div>
                        </div>",0.66,"",0,"",NA,"","images/map13_YlGn_scaleDef_orientDef_180.png","happy",1,13,13,"YlGn","orientDef","scaleDef","180",NA,NA
"","","","","","html-slider-response",19,133370,"0.0-15.0","m4z5jzncon",78,NA,"<div style=""width:500px;"">
                            <p style=""font-size:50px; font-weight:bold;""
                            >happy</p>
                            <div style=""width:240px; margin: auto;"">
                                <img src=""images/map23_RdYlGn_scaleRev_orientDef_270.png"" style= ""width:200px""alt=""img"">
                            </div>
                        </div>",0.535,"",0,"",NA,"","images/map23_RdYlGn_scaleRev_orientDef_270.png","happy",1,23,23,"RdYlGn","orientDef","scaleRev","270",NA,NA
"","","","","","html-slider-response",20,135340,"0.0-16.0","m4z5jzncon",78,NA,"<div style=""width:500px;"">
                            <p style=""font-size:50px; font-weight:bold;""
                            >happy</p>
                            <div style=""width:240px; margin: auto;"">
                                <img src=""images/map07_YlOrRd_scaleRev_orientMir_270.png"" style= ""width:200px""alt=""img"">
                            </div>
                        </div>",0.3425,"",0,"",NA,"","images/map07_YlOrRd_scaleRev_orientMir_270.png","happy",1,7,7,"YlOrRd","orientMir","scaleRev","270",NA,NA
"","","","","","html-slider-response",21,138165,"0.0-17.0","m4z5jzncon",78,NA,"<div style=""width:500px;"">
                            <p style=""font-size:50px; font-weight:bold;""
                            >happy</p>
                            <div style=""width:240px; margin: auto;"">
                                <img src=""images/map05_Greens_scaleRev_orientMir_270.png"" style= ""width:200px""alt=""img"">
                            </div>
                        </div>",0.8275,"",0,"",NA,"","images/map05_Greens_scaleRev_orientMir_270.png","happy",1,5,5,"Greens","orientMir","scaleRev","270",NA,NA
"","","","","","html-slider-response",22,140482,"0.0-18.0","m4z5jzncon",78,NA,"<div style=""width:500px;"">
                            <p style=""font-size:50px; font-weight:bold;""
                            >happy</p>
                            <div style=""width:240px; margin: auto;"">
                                <img src=""images/map15_RdBu_scaleDef_orientMir_180.png"" style= ""width:200px""alt=""img"">
                            </div>
                        </div>",0.635,"",0,"",NA,"","images/map15_RdBu_scaleDef_orientMir_180.png","happy",1,15,15,"RdBu","orientMir","scaleDef","180",NA,NA
"","","","","","html-slider-response",23,142775,"0.0-19.0","m4z5jzncon",78,NA,"<div style=""width:500px;"">
                            <p style=""font-size:50px; font-weight:bold;""
                            >happy</p>
                            <div style=""width:240px; margin: auto;"">
                                <img src=""images/map15_RdGy_scaleDef_orientMir_000.png"" style= ""width:200px""alt=""img"">
                            </div>
                        </div>",0.165,"",0,"",NA,"","images/map15_RdGy_scaleDef_orientMir_000.png","happy",1,15,15,"RdGy","orientMir","scaleDef","000",NA,NA
"","","","","","html-slider-response",24,145916,"0.0-20.0","m4z5jzncon",78,NA,"<div style=""width:500px;"">
                            <p style=""font-size:50px; font-weight:bold;""
                            >happy</p>
                            <div style=""width:240px; margin: auto;"">
                                <img src=""images/map13_PRGn_scaleDef_orientMir_180.png"" style= ""width:200px""alt=""img"">
                            </div>
                        </div>",0.5,"",0,"",NA,"","images/map13_PRGn_scaleDef_orientMir_180.png","happy",1,13,13,"PRGn","orientMir","scaleDef","180",NA,NA
"","","","","","html-slider-response",25,148374,"0.0-21.0","m4z5jzncon",78,NA,"<div style=""width:500px;"">
                            <p style=""font-size:50px; font-weight:bold;""
                            >happy</p>
                            <div style=""width:240px; margin: auto;"">
                                <img src=""images/map27_viridis_scaleDef_orientMir_180.png"" style= ""width:200px""alt=""img"">
                            </div>
                        </div>",0.675,"",0,"",NA,"","images/map27_viridis_scaleDef_orientMir_180.png","happy",1,27,27,"viridis","orientMir","scaleDef","180",NA,NA
"","","","","","html-slider-response",26,152212,"0.0-22.0","m4z5jzncon",78,NA,"<div style=""width:500px;"">
                            <p style=""font-size:50px; font-weight:bold;""
                            >happy</p>
                            <div style=""width:240px; margin: auto;"">
                                <img src=""images/map07_Oranges_scaleRev_orientDef_090.png"" style= ""width:200px""alt=""img"">
                            </div>
                        </div>",0.62,"",0,"",NA,"","images/map07_Oranges_scaleRev_orientDef_090.png","happy",1,7,7,"Oranges","orientDef","scaleRev","090",NA,NA
"","","","","","html-slider-response",27,154086,"0.0-23.0","m4z5jzncon",78,NA,"<div style=""width:500px;"">
                            <p style=""font-size:50px; font-weight:bold;""
                            >happy</p>
                            <div style=""width:240px; margin: auto;"">
                                <img src=""images/map13_BuGn_scaleRev_orientDef_090.png"" style= ""width:200px""alt=""img"">
                            </div>
                        </div>",0.735,"",0,"",NA,"","images/map13_BuGn_scaleRev_orientDef_090.png","happy",1,13,13,"BuGn","orientDef","scaleRev","090",NA,NA
"","","","","","html-slider-response",28,155888,"0.0-24.0","m4z5jzncon",78,NA,"<div style=""width:500px;"">
                            <p style=""font-size:50px; font-weight:bold;""
                            >happy</p>
                            <div style=""width:240px; margin: auto;"">
                                <img src=""images/map02_plasma_scaleDef_orientDef_000.png"" style= ""width:200px""alt=""img"">
                            </div>
                        </div>",0.3825,"",0,"",NA,"","images/map02_plasma_scaleDef_orientDef_000.png","happy",1,2,2,"plasma","orientDef","scaleDef","000",NA,NA
"","","","","","html-slider-response",29,158238,"0.0-25.0","m4z5jzncon",78,NA,"<div style=""width:500px;"">
                            <p style=""font-size:50px; font-weight:bold;""
                            >happy</p>
                            <div style=""width:240px; margin: auto;"">
                                <img src=""images/map15_BrBG_scaleRev_orientDef_090.png"" style= ""width:200px""alt=""img"">
                            </div>
                        </div>",0.6925,"",0,"",NA,"","images/map15_BrBG_scaleRev_orientDef_090.png","happy",1,15,15,"BrBG","orientDef","scaleRev","090",NA,NA
"","","","","","html-slider-response",30,160536,"0.0-26.0","m4z5jzncon",78,NA,"<div style=""width:500px;"">
                            <p style=""font-size:50px; font-weight:bold;""
                            >happy</p>
                            <div style=""width:240px; margin: auto;"">
                                <img src=""images/map07_YlOrBr_scaleDef_orientMir_000.png"" style= ""width:200px""alt=""img"">
                            </div>
                        </div>",0.415,"",0,"",NA,"","images/map07_YlOrBr_scaleDef_orientMir_000.png","happy",1,7,7,"YlOrBr","orientMir","scaleDef","000",NA,NA
"","","","","","html-slider-response",31,163217,"0.0-27.0","m4z5jzncon",78,NA,"<div style=""width:500px;"">
                            <p style=""font-size:50px; font-weight:bold;""
                            >happy</p>
                            <div style=""width:240px; margin: auto;"">
                                <img src=""images/map15_BrBG_scaleDef_orientDef_000.png"" style= ""width:200px""alt=""img"">
                            </div>
                        </div>",0.59,"",0,"",NA,"","images/map15_BrBG_scaleDef_orientDef_000.png","happy",1,15,15,"BrBG","orientDef","scaleDef","000",NA,NA
"","","","","","html-slider-response",32,165108,"0.0-28.0","m4z5jzncon",78,NA,"<div style=""width:500px;"">
                            <p style=""font-size:50px; font-weight:bold;""
                            >happy</p>
                            <div style=""width:240px; margin: auto;"">
                                <img src=""images/map13_YlGn_scaleRev_orientDef_270.png"" style= ""width:200px""alt=""img"">
                            </div>
                        </div>",0.84,"",0,"",NA,"","images/map13_YlGn_scaleRev_orientDef_270.png","happy",1,13,13,"YlGn","orientDef","scaleRev","270",NA,NA
"","","","","","html-slider-response",33,167150,"0.0-29.0","m4z5jzncon",78,NA,"<div style=""width:500px;"">
                            <p style=""font-size:50px; font-weight:bold;""
                            >happy</p>
                            <div style=""width:240px; margin: auto;"">
                                <img src=""images/map23_Spectral_scaleDef_orientMir_000.png"" style= ""width:200px""alt=""img"">
                            </div>
                        </div>",0.42,"",0,"",NA,"","images/map23_Spectral_scaleDef_orientMir_000.png","happy",1,23,23,"Spectral","orientMir","scaleDef","000",NA,NA
"","","","","","html-slider-response",34,169104,"0.0-30.0","m4z5jzncon",78,NA,"<div style=""width:500px;"">
                            <p style=""font-size:50px; font-weight:bold;""
                            >happy</p>
                            <div style=""width:240px; margin: auto;"">
                                <img src=""images/map12_GnBu_scaleRev_orientDef_090.png"" style= ""width:200px""alt=""img"">
                            </div>
                        </div>",0.655,"",0,"",NA,"","images/map12_GnBu_scaleRev_orientDef_090.png","happy",1,12,12,"GnBu","orientDef","scaleRev","090",NA,NA
"","","","","","html-slider-response",35,171001,"0.0-31.0","m4z5jzncon",78,NA,"<div style=""width:500px;"">
                            <p style=""font-size:50px; font-weight:bold;""
                            >happy</p>
                            <div style=""width:240px; margin: auto;"">
                                <img src=""images/map12_PuBuGn_scaleDef_orientMir_180.png"" style= ""width:200px""alt=""img"">
                            </div>
                        </div>",0.4275,"",0,"",NA,"","images/map12_PuBuGn_scaleDef_orientMir_180.png","happy",1,12,12,"PuBuGn","orientMir","scaleDef","180",NA,NA
"","","","","","html-slider-response",36,173525,"0.0-32.0","m4z5jzncon",78,NA,"<div style=""width:500px;"">
                            <p style=""font-size:50px; font-weight:bold;""
                            >happy</p>
                            <div style=""width:240px; margin: auto;"">
                                <img src=""images/map10_BuPu_scaleRev_orientMir_270.png"" style= ""width:200px""alt=""img"">
                            </div>
                        </div>",0.435,"",0,"",NA,"","images/map10_BuPu_scaleRev_orientMir_270.png","happy",1,10,10,"BuPu","orientMir","scaleRev","270",NA,NA
"","","","","","html-slider-response",37,175289,"0.0-33.0","m4z5jzncon",78,NA,"<div style=""width:500px;"">
                            <p style=""font-size:50px; font-weight:bold;""
                            >happy</p>
                            <div style=""width:240px; margin: auto;"">
                                <img src=""images/map23_coolwarm_scaleDef_orientMir_180.png"" style= ""width:200px""alt=""img"">
                            </div>
                        </div>",0.305,"",0,"",NA,"","images/map23_coolwarm_scaleDef_orientMir_180.png","happy",1,23,23,"coolwarm","orientMir","scaleDef","180",NA,NA
"","","","","","html-slider-response",38,178145,"0.0-34.0","m4z5jzncon",78,NA,"<div style=""width:500px;"">
                            <p style=""font-size:50px; font-weight:bold;""
                            >happy</p>
                            <div style=""width:240px; margin: auto;"">
                                <img src=""images/map26_bwr_scaleRev_orientDef_090.png"" style= ""width:200px""alt=""img"">
                            </div>
                        </div>",0.6675,"",0,"",NA,"","images/map26_bwr_scaleRev_orientDef_090.png","happy",1,26,26,"bwr","orientDef","scaleRev","090",NA,NA
"","","","","","html-slider-response",39,179889,"0.0-35.0","m4z5jzncon",78,NA,"<div style=""width:500px;"">
                            <p style=""font-size:50px; font-weight:bold;""
                            >happy</p>
                            <div style=""width:240px; margin: auto;"">
                                <img src=""images/map10_OrRd_scaleDef_orientDef_000.png"" style= ""width:200px""alt=""img"">
                            </div>
                        </div>",0.1975,"",0,"",NA,"","images/map10_OrRd_scaleDef_orientDef_000.png","happy",1,10,10,"OrRd","orientDef","scaleDef","000",NA,NA
"","","","","","html-slider-response",40,181548,"0.0-36.0","m4z5jzncon",78,NA,"<div style=""width:500px;"">
                            <p style=""font-size:50px; font-weight:bold;""
                            >happy</p>
                            <div style=""width:240px; margin: auto;"">
                                <img src=""images/map13_BuGn_scaleDef_orientDef_000.png"" style= ""width:200px""alt=""img"">
                            </div>
                        </div>",0.85,"",0,"",NA,"","images/map13_BuGn_scaleDef_orientDef_000.png","happy",1,13,13,"BuGn","orientDef","scaleDef","000",NA,NA
"","","","","","html-slider-response",41,184992,"0.0-37.0","m4z5jzncon",78,NA,"<div style=""width:500px;"">
                            <p style=""font-size:50px; font-weight:bold;""
                            >happy</p>
                            <div style=""width:240px; margin: auto;"">
                                <img src=""images/map27_vanimo_scaleRev_orientDef_090.png"" style= ""width:200px""alt=""img"">
                            </div>
                        </div>",0.165,"",0,"",NA,"","images/map27_vanimo_scaleRev_orientDef_090.png","happy",1,27,27,"vanimo","orientDef","scaleRev","090",NA,NA
"","","","","","html-slider-response",42,191230,"0.0-38.0","m4z5jzncon",78,NA,"<div style=""width:500px;"">
                            <p style=""font-size:50px; font-weight:bold;""
                            >happy</p>
                            <div style=""width:240px; margin: auto;"">
                                <img src=""images/map05_Purples_scaleRev_orientDef_270.png"" style= ""width:200px""alt=""img"">
                            </div>
                        </div>",0.315,"",0,"",NA,"","images/map05_Purples_scaleRev_orientDef_270.png","happy",1,5,5,"Purples","orientDef","scaleRev","270",NA,NA
"","","","","","html-slider-response",43,193565,"0.0-39.0","m4z5jzncon",78,NA,"<div style=""width:500px;"">
                            <p style=""font-size:50px; font-weight:bold;""
                            >happy</p>
                            <div style=""width:240px; margin: auto;"">
                                <img src=""images/map10_RdPu_scaleDef_orientMir_000.png"" style= ""width:200px""alt=""img"">
                            </div>
                        </div>",0.2,"",0,"",NA,"","images/map10_RdPu_scaleDef_orientMir_000.png","happy",1,10,10,"RdPu","orientMir","scaleDef","000",NA,NA
"","","","","","html-slider-response",44,195892,"0.0-40.0","m4z5jzncon",78,NA,"<div style=""width:500px;"">
                            <p style=""font-size:50px; font-weight:bold;""
                            >happy</p>
                            <div style=""width:240px; margin: auto;"">
                                <img src=""images/map26_seismic_scaleRev_orientDef_270.png"" style= ""width:200px""alt=""img"">
                            </div>
                        </div>",0.655,"",0,"",NA,"","images/map26_seismic_scaleRev_orientDef_270.png","happy",1,26,26,"seismic","orientDef","scaleRev","270",NA,NA
"","","","","","html-slider-response",45,197840,"0.0-41.0","m4z5jzncon",78,NA,"<div style=""width:500px;"">
                            <p style=""font-size:50px; font-weight:bold;""
                            >happy</p>
                            <div style=""width:240px; margin: auto;"">
                                <img src=""images/map26_bwr_scaleDef_orientDef_000.png"" style= ""width:200px""alt=""img"">
                            </div>
                        </div>",0.735,"",0,"",NA,"","images/map26_bwr_scaleDef_orientDef_000.png","happy",1,26,26,"bwr","orientDef","scaleDef","000",NA,NA
"","","","","","html-slider-response",46,199736,"0.0-42.0","m4z5jzncon",78,NA,"<div style=""width:500px;"">
                            <p style=""font-size:50px; font-weight:bold;""
                            >happy</p>
                            <div style=""width:240px; margin: auto;"">
                                <img src=""images/map23_RdYlBu_scaleDef_orientDef_000.png"" style= ""width:200px""alt=""img"">
                            </div>
                        </div>",0.635,"",0,"",NA,"","images/map23_RdYlBu_scaleDef_orientDef_000.png","happy",1,23,23,"RdYlBu","orientDef","scaleDef","000",NA,NA
"","","","","","html-slider-response",47,202210,"0.0-43.0","m4z5jzncon",78,NA,"<div style=""width:500px;"">
                            <p style=""font-size:50px; font-weight:bold;""
                            >happy</p>
                            <div style=""width:240px; margin: auto;"">
                                <img src=""images/map02_cividis_scaleDef_orientMir_180.png"" style= ""width:200px""alt=""img"">
                            </div>
                        </div>",0.265,"",0,"",NA,"","images/map02_cividis_scaleDef_orientMir_180.png","happy",1,2,2,"cividis","orientMir","scaleDef","180",NA,NA
"","","","","","html-slider-response",48,204938,"0.0-44.0","m4z5jzncon",78,NA,"<div style=""width:500px;"">
                            <p style=""font-size:50px; font-weight:bold;""
                            >happy</p>
                            <div style=""width:240px; margin: auto;"">
                                <img src=""images/map05_Purples_scaleDef_orientDef_180.png"" style= ""width:200px""alt=""img"">
                            </div>
                        </div>",0.4,"",0,"",NA,"","images/map05_Purples_scaleDef_orientDef_180.png","happy",1,5,5,"Purples","orientDef","scaleDef","180",NA,NA
"","","","","","html-slider-response",49,206863,"0.0-45.0","m4z5jzncon",78,NA,"<div style=""width:500px;"">
                            <p style=""font-size:50px; font-weight:bold;""
                            >happy</p>
                            <div style=""width:240px; margin: auto;"">
                                <img src=""images/map27_gist_earth_scaleRev_orientDef_270.png"" style= ""width:200px""alt=""img"">
                            </div>
                        </div>",0.5425,"",0,"",NA,"","images/map27_gist_earth_scaleRev_orientDef_270.png","happy",1,27,27,"gist","scaleRev","earth","orientDef",NA,NA
"","","","","","html-slider-response",50,209714,"0.0-46.0","m4z5jzncon",78,NA,"<div style=""width:500px;"">
                            <p style=""font-size:50px; font-weight:bold;""
                            >happy</p>
                            <div style=""width:240px; margin: auto;"">
                                <img src=""images/map12_PuBu_scaleDef_orientDef_180.png"" style= ""width:200px""alt=""img"">
                            </div>
                        </div>",0.77,"",0,"",NA,"","images/map12_PuBu_scaleDef_orientDef_180.png","happy",1,12,12,"PuBu","orientDef","scaleDef","180",NA,NA
"","","","","","html-slider-response",51,211383,"0.0-47.0","m4z5jzncon",78,NA,"<div style=""width:500px;"">
                            <p style=""font-size:50px; font-weight:bold;""
                            >happy</p>
                            <div style=""width:240px; margin: auto;"">
                                <img src=""images/map10_RdPu_scaleRev_orientMir_090.png"" style= ""width:200px""alt=""img"">
                            </div>
                        </div>",0.34,"",0,"",NA,"","images/map10_RdPu_scaleRev_orientMir_090.png","happy",1,10,10,"RdPu","orientMir","scaleRev","090",NA,NA
"","","","","","html-slider-response",52,213147,"0.0-48.0","m4z5jzncon",78,NA,"<div style=""width:500px;"">
                            <p style=""font-size:50px; font-weight:bold;""
                            >happy</p>
                            <div style=""width:240px; margin: auto;"">
                                <img src=""images/map26_managua_scaleRev_orientMir_270.png"" style= ""width:200px""alt=""img"">
                            </div>
                        </div>",0.2525,"",0,"",NA,"","images/map26_managua_scaleRev_orientMir_270.png","happy",1,26,26,"managua","orientMir","scaleRev","270",NA,NA
"","","","","","html-slider-response",53,215483,"0.0-49.0","m4z5jzncon",78,NA,"<div style=""width:500px;"">
                            <p style=""font-size:50px; font-weight:bold;""
                            >happy</p>
                            <div style=""width:240px; margin: auto;"">
                                <img src=""images/map15_PuOr_scaleRev_orientDef_270.png"" style= ""width:200px""alt=""img"">
                            </div>
                        </div>",0.63,"",0,"",NA,"","images/map15_PuOr_scaleRev_orientDef_270.png","happy",1,15,15,"PuOr","orientDef","scaleRev","270",NA,NA
"","","","","","html-slider-response",54,217863,"0.0-50.0","m4z5jzncon",78,NA,"<div style=""width:500px;"">
                            <p style=""font-size:50px; font-weight:bold;""
                            >happy</p>
                            <div style=""width:240px; margin: auto;"">
                                <img src=""images/map27_viridis_scaleRev_orientMir_270.png"" style= ""width:200px""alt=""img"">
                            </div>
                        </div>",0.6425,"",0,"",NA,"","images/map27_viridis_scaleRev_orientMir_270.png","happy",1,27,27,"viridis","orientMir","scaleRev","270",NA,NA
"","","","","","html-slider-response",55,219452,"0.0-51.0","m4z5jzncon",78,NA,"<div style=""width:500px;"">
                            <p style=""font-size:50px; font-weight:bold;""
                            >happy</p>
                            <div style=""width:240px; margin: auto;"">
                                <img src=""images/map05_Greens_scaleDef_orientMir_180.png"" style= ""width:200px""alt=""img"">
                            </div>
                        </div>",0.745,"",0,"",NA,"","images/map05_Greens_scaleDef_orientMir_180.png","happy",1,5,5,"Greens","orientMir","scaleDef","180",NA,NA
"","","","","","html-slider-response",56,221183,"0.0-52.0","m4z5jzncon",78,NA,"<div style=""width:500px;"">
                            <p style=""font-size:50px; font-weight:bold;""
                            >happy</p>
                            <div style=""width:240px; margin: auto;"">
                                <img src=""images/map05_Blues_scaleRev_orientMir_090.png"" style= ""width:200px""alt=""img"">
                            </div>
                        </div>",0.675,"",0,"",NA,"","images/map05_Blues_scaleRev_orientMir_090.png","happy",1,5,5,"Blues","orientMir","scaleRev","090",NA,NA
"","","","","","html-slider-response",57,222462,"0.0-53.0","m4z5jzncon",78,NA,"<div style=""width:500px;"">
                            <p style=""font-size:50px; font-weight:bold;""
                            >happy</p>
                            <div style=""width:240px; margin: auto;"">
                                <img src=""images/map23_coolwarm_scaleRev_orientMir_270.png"" style= ""width:200px""alt=""img"">
                            </div>
                        </div>",0.3525,"",0,"",NA,"","images/map23_coolwarm_scaleRev_orientMir_270.png","happy",1,23,23,"coolwarm","orientMir","scaleRev","270",NA,NA
"","","","","","html-button-response",58,225707,"0.0-54.0","m4z5jzncon",78,2739,"<p>You are doing great!<br></br> You are halway done with the current block. When you are ready to continue, click the 'Continue' button.</p>",0.5,"",NA,"",NA,"","","",NA,NA,NA,"","","","",NA,NA
"","","","","","html-slider-response",59,232577,"0.0-55.0","m4z5jzncon",78,NA,"<div style=""width:500px;"">
                            <p style=""font-size:50px; font-weight:bold;""
                            >happy</p>
                            <div style=""width:240px; margin: auto;"">
                                <img src=""images/map10_PuRd_scaleDef_orientDef_180.png"" style= ""width:200px""alt=""img"">
                            </div>
                        </div>",0.6,"",0,"",NA,"","images/map10_PuRd_scaleDef_orientDef_180.png","happy",1,10,10,"PuRd","orientDef","scaleDef","180",NA,NA
"","","","","","html-slider-response",60,234278,"0.0-56.0","m4z5jzncon",78,NA,"<div style=""width:500px;"">
                            <p style=""font-size:50px; font-weight:bold;""
                            >happy</p>
                            <div style=""width:240px; margin: auto;"">
                                <img src=""images/map12_PuBuGn_scaleRev_orientMir_270.png"" style= ""width:200px""alt=""img"">
                            </div>
                        </div>",0.515,"",0,"",NA,"","images/map12_PuBuGn_scaleRev_orientMir_270.png","happy",1,12,12,"PuBuGn","orientMir","scaleRev","270",NA,NA
"","","","","","html-slider-response",61,237288,"0.0-57.0","m4z5jzncon",78,NA,"<div style=""width:500px;"">
                            <p style=""font-size:50px; font-weight:bold;""
                            >happy</p>
                            <div style=""width:240px; margin: auto;"">
                                <img src=""images/map05_Greys_scaleDef_orientDef_000.png"" style= ""width:200px""alt=""img"">
                            </div>
                        </div>",0.0325,"",0,"",NA,"","images/map05_Greys_scaleDef_orientDef_000.png","happy",1,5,5,"Greys","orientDef","scaleDef","000",NA,NA
"","","","","","html-slider-response",62,239740,"0.0-58.0","m4z5jzncon",78,NA,"<div style=""width:500px;"">
                            <p style=""font-size:50px; font-weight:bold;""
                            >happy</p>
                            <div style=""width:240px; margin: auto;"">
                                <img src=""images/map23_RdYlGn_scaleDef_orientDef_180.png"" style= ""width:200px""alt=""img"">
                            </div>
                        </div>",0.76,"",0,"",NA,"","images/map23_RdYlGn_scaleDef_orientDef_180.png","happy",1,23,23,"RdYlGn","orientDef","scaleDef","180",NA,NA
"","","","","","html-slider-response",63,241744,"0.0-59.0","m4z5jzncon",78,NA,"<div style=""width:500px;"">
                            <p style=""font-size:50px; font-weight:bold;""
                            >happy</p>
                            <div style=""width:240px; margin: auto;"">
                                <img src=""images/map02_magma_scaleRev_orientMir_090.png"" style= ""width:200px""alt=""img"">
                            </div>
                        </div>",0.105,"",0,"",NA,"","images/map02_magma_scaleRev_orientMir_090.png","happy",1,2,2,"magma","orientMir","scaleRev","090",NA,NA
"","","","","","html-slider-response",64,244056,"0.0-60.0","m4z5jzncon",78,NA,"<div style=""width:500px;"">
                            <p style=""font-size:50px; font-weight:bold;""
                            >happy</p>
                            <div style=""width:240px; margin: auto;"">
                                <img src=""images/map02_inferno_scaleRev_orientDef_270.png"" style= ""width:200px""alt=""img"">
                            </div>
                        </div>",0.0875,"",0,"",NA,"","images/map02_inferno_scaleRev_orientDef_270.png","happy",1,2,2,"inferno","orientDef","scaleRev","270",NA,NA
"","","","","","html-slider-response",65,247228,"0.0-61.0","m4z5jzncon",78,NA,"<div style=""width:500px;"">
                            <p style=""font-size:50px; font-weight:bold;""
                            >happy</p>
                            <div style=""width:240px; margin: auto;"">
                                <img src=""images/map13_PRGn_scaleRev_orientMir_270.png"" style= ""width:200px""alt=""img"">
                            </div>
                        </div>",0.5475,"",0,"",NA,"","images/map13_PRGn_scaleRev_orientMir_270.png","happy",1,13,13,"PRGn","orientMir","scaleRev","270",NA,NA
"","","","","","html-slider-response",66,249227,"0.0-62.0","m4z5jzncon",78,NA,"<div style=""width:500px;"">
                            <p style=""font-size:50px; font-weight:bold;""
                            >happy</p>
                            <div style=""width:240px; margin: auto;"">
                                <img src=""images/map15_RdGy_scaleRev_orientMir_090.png"" style= ""width:200px""alt=""img"">
                            </div>
                        </div>",0.075,"",0,"",NA,"","images/map15_RdGy_scaleRev_orientMir_090.png","happy",1,15,15,"RdGy","orientMir","scaleRev","090",NA,NA
"","","","","","html-slider-response",67,259383,"0.0-63.0","m4z5jzncon",78,NA,"<div style=""width:500px;"">
                            <p style=""font-size:50px; font-weight:bold;""
                            >happy</p>
                            <div style=""width:240px; margin: auto;"">
                                <img src=""images/map27_vanimo_scaleDef_orientDef_000.png"" style= ""width:200px""alt=""img"">
                            </div>
                        </div>",0.1925,"",0,"",NA,"","images/map27_vanimo_scaleDef_orientDef_000.png","happy",1,27,27,"vanimo","orientDef","scaleDef","000",NA,NA
"","","","","","html-slider-response",68,261466,"0.0-64.0","m4z5jzncon",78,NA,"<div style=""width:500px;"">
                            <p style=""font-size:50px; font-weight:bold;""
                            >happy</p>
                            <div style=""width:240px; margin: auto;"">
                                <img src=""images/map26_berlin_scaleDef_orientMir_000.png"" style= ""width:200px""alt=""img"">
                            </div>
                        </div>",0.155,"",0,"",NA,"","images/map26_berlin_scaleDef_orientMir_000.png","happy",1,26,26,"berlin","orientMir","scaleDef","000",NA,NA
"","","","","","html-slider-response",69,262954,"0.0-65.0","m4z5jzncon",78,NA,"<div style=""width:500px;"">
                            <p style=""font-size:50px; font-weight:bold;""
                            >happy</p>
                            <div style=""width:240px; margin: auto;"">
                                <img src=""images/map07_YlOrBr_scaleRev_orientMir_090.png"" style= ""width:200px""alt=""img"">
                            </div>
                        </div>",0.525,"",0,"",NA,"","images/map07_YlOrBr_scaleRev_orientMir_090.png","happy",1,7,7,"YlOrBr","orientMir","scaleRev","090",NA,NA
"","","","","","html-slider-response",70,264805,"0.0-66.0","m4z5jzncon",78,NA,"<div style=""width:500px;"">
                            <p style=""font-size:50px; font-weight:bold;""
                            >happy</p>
                            <div style=""width:240px; margin: auto;"">
                                <img src=""images/map02_inferno_scaleDef_orientDef_180.png"" style= ""width:200px""alt=""img"">
                            </div>
                        </div>",0.635,"",0,"",NA,"","images/map02_inferno_scaleDef_orientDef_180.png","happy",1,2,2,"inferno","orientDef","scaleDef","180",NA,NA
"","","","","","html-slider-response",71,267604,"0.0-67.0","m4z5jzncon",78,NA,"<div style=""width:500px;"">
                            <p style=""font-size:50px; font-weight:bold;""
                            >happy</p>
                            <div style=""width:240px; margin: auto;"">
                                <img src=""images/map07_YlOrRd_scaleDef_orientMir_180.png"" style= ""width:200px""alt=""img"">
                            </div>
                        </div>",0.705,"",0,"",NA,"","images/map07_YlOrRd_scaleDef_orientMir_180.png","happy",1,7,7,"YlOrRd","orientMir","scaleDef","180",NA,NA
"","","","","","html-slider-response",72,269640,"0.0-68.0","m4z5jzncon",78,NA,"<div style=""width:500px;"">
                            <p style=""font-size:50px; font-weight:bold;""
                            >happy</p>
                            <div style=""width:240px; margin: auto;"">
                                <img src=""images/map10_OrRd_scaleRev_orientDef_090.png"" style= ""width:200px""alt=""img"">
                            </div>
                        </div>",0.5375,"",0,"",NA,"","images/map10_OrRd_scaleRev_orientDef_090.png","happy",1,10,10,"OrRd","orientDef","scaleRev","090",NA,NA
"","","","","","html-slider-response",73,271551,"0.0-69.0","m4z5jzncon",78,NA,"<div style=""width:500px;"">
                            <p style=""font-size:50px; font-weight:bold;""
                            >happy</p>
                            <div style=""width:240px; margin: auto;"">
                                <img src=""images/map02_magma_scaleDef_orientMir_000.png"" style= ""width:200px""alt=""img"">
                            </div>
                        </div>",0.32,"",0,"",NA,"","images/map02_magma_scaleDef_orientMir_000.png","happy",1,2,2,"magma","orientMir","scaleDef","000",NA,NA
"","","","","","html-slider-response",74,273473,"0.0-70.0","m4z5jzncon",78,NA,"<div style=""width:500px;"">
                            <p style=""font-size:50px; font-weight:bold;""
                            >happy</p>
                            <div style=""width:240px; margin: auto;"">
                                <img src=""images/map15_PuOr_scaleDef_orientDef_180.png"" style= ""width:200px""alt=""img"">
                            </div>
                        </div>",0.28,"",0,"",NA,"","images/map15_PuOr_scaleDef_orientDef_180.png","happy",1,15,15,"PuOr","orientDef","scaleDef","180",NA,NA
"","","","","","html-slider-response",75,276051,"0.0-71.0","m4z5jzncon",78,NA,"<div style=""width:500px;"">
                            <p style=""font-size:50px; font-weight:bold;""
                            >happy</p>
                            <div style=""width:240px; margin: auto;"">
                                <img src=""images/map27_turbo_scaleDef_orientMir_000.png"" style= ""width:200px""alt=""img"">
                            </div>
                        </div>",0.4575,"",0,"",NA,"","images/map27_turbo_scaleDef_orientMir_000.png","happy",1,27,27,"turbo","orientMir","scaleDef","000",NA,NA
"","","","","","html-slider-response",76,278064,"0.0-72.0","m4z5jzncon",78,NA,"<div style=""width:500px;"">
                            <p style=""font-size:50px; font-weight:bold;""
                            >happy</p>
                            <div style=""width:240px; margin: auto;"">
                                <img src=""images/map07_Oranges_scaleDef_orientDef_000.png"" style= ""width:200px""alt=""img"">
                            </div>
                        </div>",0.505,"",0,"",NA,"","images/map07_Oranges_scaleDef_orientDef_000.png","happy",1,7,7,"Oranges","orientDef","scaleDef","000",NA,NA
"","","","","","html-slider-response",77,280055,"0.0-73.0","m4z5jzncon",78,NA,"<div style=""width:500px;"">
                            <p style=""font-size:50px; font-weight:bold;""
                            >happy</p>
                            <div style=""width:240px; margin: auto;"">
                                <img src=""images/map13_PiYG_scaleRev_orientMir_090.png"" style= ""width:200px""alt=""img"">
                            </div>
                        </div>",0.215,"",0,"",NA,"","images/map13_PiYG_scaleRev_orientMir_090.png","happy",1,13,13,"PiYG","orientMir","scaleRev","090",NA,NA
"","","","","","html-slider-response",78,283626,"0.0-74.0","m4z5jzncon",78,NA,"<div style=""width:500px;"">
                            <p style=""font-size:50px; font-weight:bold;""
                            >happy</p>
                            <div style=""width:240px; margin: auto;"">
                                <img src=""images/map26_seismic_scaleDef_orientDef_180.png"" style= ""width:200px""alt=""img"">
                            </div>
                        </div>",0.54,"",0,"",NA,"","images/map26_seismic_scaleDef_orientDef_180.png","happy",1,26,26,"seismic","orientDef","scaleDef","180",NA,NA
"","","","","","html-slider-response",79,287473,"0.0-75.0","m4z5jzncon",78,NA,"<div style=""width:500px;"">
                            <p style=""font-size:50px; font-weight:bold;""
                            >happy</p>
                            <div style=""width:240px; margin: auto;"">
                                <img src=""images/map23_Spectral_scaleRev_orientMir_090.png"" style= ""width:200px""alt=""img"">
                            </div>
                        </div>",0.275,"",0,"",NA,"","images/map23_Spectral_scaleRev_orientMir_090.png","happy",1,23,23,"Spectral","orientMir","scaleRev","090",NA,NA
"","","","","","html-slider-response",80,289588,"0.0-76.0","m4z5jzncon",78,NA,"<div style=""width:500px;"">
                            <p style=""font-size:50px; font-weight:bold;""
                            >happy</p>
                            <div style=""width:240px; margin: auto;"">
                                <img src=""images/map05_Blues_scaleDef_orientMir_000.png"" style= ""width:200px""alt=""img"">
                            </div>
                        </div>",0.635,"",0,"",NA,"","images/map05_Blues_scaleDef_orientMir_000.png","happy",1,5,5,"Blues","orientMir","scaleDef","000",NA,NA
"","","","","","html-slider-response",81,291535,"0.0-77.0","m4z5jzncon",78,NA,"<div style=""width:500px;"">
                            <p style=""font-size:50px; font-weight:bold;""
                            >happy</p>
                            <div style=""width:240px; margin: auto;"">
                                <img src=""images/map07_Reds_scaleDef_orientDef_180.png"" style= ""width:200px""alt=""img"">
                            </div>
                        </div>",0.7425,"",0,"",NA,"","images/map07_Reds_scaleDef_orientDef_180.png","happy",1,7,7,"Reds","orientDef","scaleDef","180",NA,NA
"","","","","","html-slider-response",82,293667,"0.0-78.0","m4z5jzncon",78,NA,"<div style=""width:500px;"">
                            <p style=""font-size:50px; font-weight:bold;""
                            >happy</p>
                            <div style=""width:240px; margin: auto;"">
                                <img src=""images/map23_RdYlBu_scaleRev_orientDef_090.png"" style= ""width:200px""alt=""img"">
                            </div>
                        </div>",0.32,"",0,"",NA,"","images/map23_RdYlBu_scaleRev_orientDef_090.png","happy",1,23,23,"RdYlBu","orientDef","scaleRev","090",NA,NA
"","","","","","html-slider-response",83,295623,"0.0-79.0","m4z5jzncon",78,NA,"<div style=""width:500px;"">
                            <p style=""font-size:50px; font-weight:bold;""
                            >happy</p>
                            <div style=""width:240px; margin: auto;"">
                                <img src=""images/map10_PuRd_scaleRev_orientDef_270.png"" style= ""width:200px""alt=""img"">
                            </div>
                        </div>",0.8275,"",0,"",NA,"","images/map10_PuRd_scaleRev_orientDef_270.png","happy",1,10,10,"PuRd","orientDef","scaleRev","270",NA,NA
"","","","","","html-slider-response",84,297416,"0.0-80.0","m4z5jzncon",78,NA,"<div style=""width:500px;"">
                            <p style=""font-size:50px; font-weight:bold;""
                            >happy</p>
                            <div style=""width:240px; margin: auto;"">
                                <img src=""images/map12_PuBu_scaleRev_orientDef_270.png"" style= ""width:200px""alt=""img"">
                            </div>
                        </div>",0.72,"",0,"",NA,"","images/map12_PuBu_scaleRev_orientDef_270.png","happy",1,12,12,"PuBu","orientDef","scaleRev","270",NA,NA
"","","","","","html-slider-response",85,299508,"0.0-81.0","m4z5jzncon",78,NA,"<div style=""width:500px;"">
                            <p style=""font-size:50px; font-weight:bold;""
                            >happy</p>
                            <div style=""width:240px; margin: auto;"">
                                <img src=""images/map27_gist_earth_scaleDef_orientDef_180.png"" style= ""width:200px""alt=""img"">
                            </div>
                        </div>",0.585,"",0,"",NA,"","images/map27_gist_earth_scaleDef_orientDef_180.png","happy",1,27,27,"gist","scaleDef","earth","orientDef",NA,NA
"","","","","","html-slider-response",86,301572,"0.0-82.0","m4z5jzncon",78,NA,"<div style=""width:500px;"">
                            <p style=""font-size:50px; font-weight:bold;""
                            >happy</p>
                            <div style=""width:240px; margin: auto;"">
                                <img src=""images/map13_PiYG_scaleDef_orientMir_000.png"" style= ""width:200px""alt=""img"">
                            </div>
                        </div>",0.38,"",0,"",NA,"","images/map13_PiYG_scaleDef_orientMir_000.png","happy",1,13,13,"PiYG","orientMir","scaleDef","000",NA,NA
"","","","","","html-slider-response",87,303662,"0.0-83.0","m4z5jzncon",78,NA,"<div style=""width:500px;"">
                            <p style=""font-size:50px; font-weight:bold;""
                            >happy</p>
                            <div style=""width:240px; margin: auto;"">
                                <img src=""images/map26_berlin_scaleRev_orientMir_090.png"" style= ""width:200px""alt=""img"">
                            </div>
                        </div>",0.1325,"",0,"",NA,"","images/map26_berlin_scaleRev_orientMir_090.png","happy",1,26,26,"berlin","orientMir","scaleRev","090",NA,NA
"","","","","","html-slider-response",88,306055,"0.0-84.0","m4z5jzncon",78,NA,"<div style=""width:500px;"">
                            <p style=""font-size:50px; font-weight:bold;""
                            >happy</p>
                            <div style=""width:240px; margin: auto;"">
                                <img src=""images/map02_plasma_scaleRev_orientDef_090.png"" style= ""width:200px""alt=""img"">
                            </div>
                        </div>",0.115,"",0,"",NA,"","images/map02_plasma_scaleRev_orientDef_090.png","happy",1,2,2,"plasma","orientDef","scaleRev","090",NA,NA
"","","","","","html-slider-response",89,308839,"0.0-85.0","m4z5jzncon",78,NA,"<div style=""width:500px;"">
                            <p style=""font-size:50px; font-weight:bold;""
                            >happy</p>
                            <div style=""width:240px; margin: auto;"">
                                <img src=""images/map26_managua_scaleDef_orientMir_180.png"" style= ""width:200px""alt=""img"">
                            </div>
                        </div>",0.535,"",0,"",NA,"","images/map26_managua_scaleDef_orientMir_180.png","happy",1,26,26,"managua","orientMir","scaleDef","180",NA,NA
"","","","","","html-slider-response",90,310669,"0.0-86.0","m4z5jzncon",78,NA,"<div style=""width:500px;"">
                            <p style=""font-size:50px; font-weight:bold;""
                            >happy</p>
                            <div style=""width:240px; margin: auto;"">
                                <img src=""images/map10_BuPu_scaleDef_orientMir_180.png"" style= ""width:200px""alt=""img"">
                            </div>
                        </div>",0.265,"",0,"",NA,"","images/map10_BuPu_scaleDef_orientMir_180.png","happy",1,10,10,"BuPu","orientMir","scaleDef","180",NA,NA
"","","","","","html-slider-response",91,312292,"0.0-87.0","m4z5jzncon",78,NA,"<div style=""width:500px;"">
                            <p style=""font-size:50px; font-weight:bold;""
                            >happy</p>
                            <div style=""width:240px; margin: auto;"">
                                <img src=""images/map07_Reds_scaleRev_orientDef_270.png"" style= ""width:200px""alt=""img"">
                            </div>
                        </div>",0.5675,"",0,"",NA,"","images/map07_Reds_scaleRev_orientDef_270.png","happy",1,7,7,"Reds","orientDef","scaleRev","270",NA,NA
"","","","","","html-slider-response",92,314221,"0.0-88.0","m4z5jzncon",78,NA,"<div style=""width:500px;"">
                            <p style=""font-size:50px; font-weight:bold;""
                            >happy</p>
                            <div style=""width:240px; margin: auto;"">
                                <img src=""images/map15_RdBu_scaleRev_orientMir_270.png"" style= ""width:200px""alt=""img"">
                            </div>
                        </div>",0.42,"",0,"",NA,"","images/map15_RdBu_scaleRev_orientMir_270.png","happy",1,15,15,"RdBu","orientMir","scaleRev","270",NA,NA
"","","","","","html-slider-response",93,316224,"0.0-89.0","m4z5jzncon",78,NA,"<div style=""width:500px;"">
                            <p style=""font-size:50px; font-weight:bold;""
                            >happy</p>
                            <div style=""width:240px; margin: auto;"">
                                <img src=""images/map05_Greys_scaleRev_orientDef_090.png"" style= ""width:200px""alt=""img"">
                            </div>
                        </div>",0.0875,"",0,"",NA,"","images/map05_Greys_scaleRev_orientDef_090.png","happy",1,5,5,"Greys","orientDef","scaleRev","090",NA,NA
"","","","","","html-slider-response",94,318651,"0.0-90.0","m4z5jzncon",78,NA,"<div style=""width:500px;"">
                            <p style=""font-size:50px; font-weight:bold;""
                            >happy</p>
                            <div style=""width:240px; margin: auto;"">
                                <img src=""images/map02_cividis_scaleRev_orientMir_270.png"" style= ""width:200px""alt=""img"">
                            </div>
                        </div>",0.155,"",0,"",NA,"","images/map02_cividis_scaleRev_orientMir_270.png","happy",1,2,2,"cividis","orientMir","scaleRev","270",NA,NA
"","","","","","html-slider-response",95,320945,"0.0-91.0","m4z5jzncon",78,NA,"<div style=""width:500px;"">
                            <p style=""font-size:50px; font-weight:bold;""
                            >happy</p>
                            <div style=""width:240px; margin: auto;"">
                                <img src=""images/map12_YlGnBu_scaleRev_orientMir_090.png"" style= ""width:200px""alt=""img"">
                            </div>
                        </div>",0.705,"",0,"",NA,"","images/map12_YlGnBu_scaleRev_orientMir_090.png","happy",1,12,12,"YlGnBu","orientMir","scaleRev","090",NA,NA
"","","","","","html-slider-response",96,323537,"0.0-92.0","m4z5jzncon",78,NA,"<div style=""width:500px;"">
                            <p style=""font-size:50px; font-weight:bold;""
                            >happy</p>
                            <div style=""width:240px; margin: auto;"">
                                <img src=""images/map12_YlGnBu_scaleDef_orientMir_000.png"" style= ""width:200px""alt=""img"">
                            </div>
                        </div>",0.6125,"",0,"",NA,"","images/map12_YlGnBu_scaleDef_orientMir_000.png","happy",1,12,12,"YlGnBu","orientMir","scaleDef","000",NA,NA
"","","","","","html-slider-response",97,325917,"0.0-93.0","m4z5jzncon",78,NA,"<div style=""width:500px;"">
                            <p style=""font-size:50px; font-weight:bold;""
                            >happy</p>
                            <div style=""width:240px; margin: auto;"">
                                <img src=""images/map12_GnBu_scaleDef_orientDef_000.png"" style= ""width:200px""alt=""img"">
                            </div>
                        </div>",0.725,"",0,"",NA,"","images/map12_GnBu_scaleDef_orientDef_000.png","happy",1,12,12,"GnBu","orientDef","scaleDef","000",NA,NA
"","","","","","html-slider-response",98,328072,"0.0-94.0","m4z5jzncon",78,NA,"<div style=""width:500px;"">
                            <p style=""font-size:50px; font-weight:bold;""
                            >happy</p>
                            <div style=""width:240px; margin: auto;"">
                                <img src=""images/map27_turbo_scaleRev_orientMir_090.png"" style= ""width:200px""alt=""img"">
                            </div>
                        </div>",0.2775,"",0,"",NA,"","images/map27_turbo_scaleRev_orientMir_090.png","happy",1,27,27,"turbo","orientMir","scaleRev","090",NA,NA
"","","","","","html-button-response",99,330686,"0.0-95.0","m4z5jzncon",78,2097,"<p>Great Job! You've finished block 1.<br></br> You have 4 block(s) left to go.<br></br></p>",0.5,"",NA,"",NA,"","","",NA,NA,NA,"","","","",NA,NA
"","","","","","html-button-response",100,333896,"0.0-96.0","m4z5jzncon",78,3207,"<p>In this block of trials, you will be asked to rate how much you associate each map with:</p > <p style = 'font-size:150%; font-weight: bold'>sad</p><br></br>",0.5,"",NA,"",NA,"","","",NA,NA,NA,"","","","",NA,NA
"","","","","","html-slider-response",101,337302,"0.0-97.0","m4z5jzncon",78,NA,"<div style=""width:500px;"">
                            <p style=""font-size:50px; font-weight:bold;""
                            >sad</p>
                            <div style=""width:240px; margin: auto;"">
                                <img src=""images/map26_berlin_scaleRev_orientMir_090.png"" style= ""width:200px""alt=""img"">
                            </div>
                        </div>",0.5125,"",0,"",NA,"","images/map26_berlin_scaleRev_orientMir_090.png","sad",1,26,26,"berlin","orientMir","scaleRev","090",NA,NA
"","","","","","html-slider-response",102,339393,"0.0-98.0","m4z5jzncon",78,NA,"<div style=""width:500px;"">
                            <p style=""font-size:50px; font-weight:bold;""
                            >sad</p>
                            <div style=""width:240px; margin: auto;"">
                                <img src=""images/map27_gist_earth_scaleRev_orientDef_270.png"" style= ""width:200px""alt=""img"">
                            </div>
                        </div>",0.3675,"",0,"",NA,"","images/map27_gist_earth_scaleRev_orientDef_270.png","sad",1,27,27,"gist","scaleRev","earth","orientDef",NA,NA
"","","","","","html-slider-response",103,341824,"0.0-99.0","m4z5jzncon",78,NA,"<div style=""width:500px;"">
                            <p style=""font-size:50px; font-weight:bold;""
                            >sad</p>
                            <div style=""width:240px; margin: auto;"">
                                <img src=""images/map12_GnBu_scaleRev_orientDef_090.png"" style= ""width:200px""alt=""img"">
                            </div>
                        </div>",0.845,"",0,"",NA,"","images/map12_GnBu_scaleRev_orientDef_090.png","sad",1,12,12,"GnBu","orientDef","scaleRev","090",NA,NA
"","","","","","html-slider-response",104,344231,"0.0-100.0","m4z5jzncon",78,NA,"<div style=""width:500px;"">
                            <p style=""font-size:50px; font-weight:bold;""
                            >sad</p>
                            <div style=""width:240px; margin: auto;"">
                                <img src=""images/map02_magma_scaleRev_orientMir_090.png"" style= ""width:200px""alt=""img"">
                            </div>
                        </div>",0.2875,"",0,"",NA,"","images/map02_magma_scaleRev_orientMir_090.png","sad",1,2,2,"magma","orientMir","scaleRev","090",NA,NA
"","","","","","html-slider-response",105,346045,"0.0-101.0","m4z5jzncon",78,NA,"<div style=""width:500px;"">
                            <p style=""font-size:50px; font-weight:bold;""
                            >sad</p>
                            <div style=""width:240px; margin: auto;"">
                                <img src=""images/map07_YlOrRd_scaleDef_orientMir_180.png"" style= ""width:200px""alt=""img"">
                            </div>
                        </div>",0.2425,"",0,"",NA,"","images/map07_YlOrRd_scaleDef_orientMir_180.png","sad",1,7,7,"YlOrRd","orientMir","scaleDef","180",NA,NA
"","","","","","html-slider-response",106,347825,"0.0-102.0","m4z5jzncon",78,NA,"<div style=""width:500px;"">
                            <p style=""font-size:50px; font-weight:bold;""
                            >sad</p>
                            <div style=""width:240px; margin: auto;"">
                                <img src=""images/map07_YlOrBr_scaleDef_orientMir_000.png"" style= ""width:200px""alt=""img"">
                            </div>
                        </div>",0.18,"",0,"",NA,"","images/map07_YlOrBr_scaleDef_orientMir_000.png","sad",1,7,7,"YlOrBr","orientMir","scaleDef","000",NA,NA
"","","","","","html-slider-response",107,349798,"0.0-103.0","m4z5jzncon",78,NA,"<div style=""width:500px;"">
                            <p style=""font-size:50px; font-weight:bold;""
                            >sad</p>
                            <div style=""width:240px; margin: auto;"">
                                <img src=""images/map27_viridis_scaleDef_orientMir_180.png"" style= ""width:200px""alt=""img"">
                            </div>
                        </div>",0.5925,"",0,"",NA,"","images/map27_viridis_scaleDef_orientMir_180.png","sad",1,27,27,"viridis","orientMir","scaleDef","180",NA,NA
"","","","","","html-slider-response",108,351530,"0.0-104.0","m4z5jzncon",78,NA,"<div style=""width:500px;"">
                            <p style=""font-size:50px; font-weight:bold;""
                            >sad</p>
                            <div style=""width:240px; margin: auto;"">
                                <img src=""images/map02_plasma_scaleRev_orientDef_090.png"" style= ""width:200px""alt=""img"">
                            </div>
                        </div>",0.125,"",0,"",NA,"","images/map02_plasma_scaleRev_orientDef_090.png","sad",1,2,2,"plasma","orientDef","scaleRev","090",NA,NA
"","","","","","html-slider-response",109,354264,"0.0-105.0","m4z5jzncon",78,NA,"<div style=""width:500px;"">
                            <p style=""font-size:50px; font-weight:bold;""
                            >sad</p>
                            <div style=""width:240px; margin: auto;"">
                                <img src=""images/map27_turbo_scaleRev_orientMir_090.png"" style= ""width:200px""alt=""img"">
                            </div>
                        </div>",0.24,"",0,"",NA,"","images/map27_turbo_scaleRev_orientMir_090.png","sad",1,27,27,"turbo","orientMir","scaleRev","090",NA,NA
"","","","","","html-slider-response",110,356290,"0.0-106.0","m4z5jzncon",78,NA,"<div style=""width:500px;"">
                            <p style=""font-size:50px; font-weight:bold;""
                            >sad</p>
                            <div style=""width:240px; margin: auto;"">
                                <img src=""images/map23_coolwarm_scaleRev_orientMir_270.png"" style= ""width:200px""alt=""img"">
                            </div>
                        </div>",0.8675,"",0,"",NA,"","images/map23_coolwarm_scaleRev_orientMir_270.png","sad",1,23,23,"coolwarm","orientMir","scaleRev","270",NA,NA
"","","","","","html-slider-response",111,358248,"0.0-107.0","m4z5jzncon",78,NA,"<div style=""width:500px;"">
                            <p style=""font-size:50px; font-weight:bold;""
                            >sad</p>
                            <div style=""width:240px; margin: auto;"">
                                <img src=""images/map26_berlin_scaleDef_orientMir_000.png"" style= ""width:200px""alt=""img"">
                            </div>
                        </div>",0.8725,"",0,"",NA,"","images/map26_berlin_scaleDef_orientMir_000.png","sad",1,26,26,"berlin","orientMir","scaleDef","000",NA,NA
"","","","","","html-slider-response",112,360608,"0.0-108.0","m4z5jzncon",78,NA,"<div style=""width:500px;"">
                            <p style=""font-size:50px; font-weight:bold;""
                            >sad</p>
                            <div style=""width:240px; margin: auto;"">
                                <img src=""images/map12_PuBuGn_scaleRev_orientMir_270.png"" style= ""width:200px""alt=""img"">
                            </div>
                        </div>",0.7125,"",0,"",NA,"","images/map12_PuBuGn_scaleRev_orientMir_270.png","sad",1,12,12,"PuBuGn","orientMir","scaleRev","270",NA,NA
"","","","","","html-slider-response",113,362494,"0.0-109.0","m4z5jzncon",78,NA,"<div style=""width:500px;"">
                            <p style=""font-size:50px; font-weight:bold;""
                            >sad</p>
                            <div style=""width:240px; margin: auto;"">
                                <img src=""images/map23_RdYlGn_scaleDef_orientDef_180.png"" style= ""width:200px""alt=""img"">
                            </div>
                        </div>",0.4275,"",0,"",NA,"","images/map23_RdYlGn_scaleDef_orientDef_180.png","sad",1,23,23,"RdYlGn","orientDef","scaleDef","180",NA,NA
"","","","","","html-slider-response",114,364216,"0.0-110.0","m4z5jzncon",78,NA,"<div style=""width:500px;"">
                            <p style=""font-size:50px; font-weight:bold;""
                            >sad</p>
                            <div style=""width:240px; margin: auto;"">
                                <img src=""images/map12_YlGnBu_scaleDef_orientMir_000.png"" style= ""width:200px""alt=""img"">
                            </div>
                        </div>",0.6475,"",0,"",NA,"","images/map12_YlGnBu_scaleDef_orientMir_000.png","sad",1,12,12,"YlGnBu","orientMir","scaleDef","000",NA,NA
"","","","","","html-slider-response",115,366715,"0.0-111.0","m4z5jzncon",78,NA,"<div style=""width:500px;"">
                            <p style=""font-size:50px; font-weight:bold;""
                            >sad</p>
                            <div style=""width:240px; margin: auto;"">
                                <img src=""images/map26_bwr_scaleRev_orientDef_090.png"" style= ""width:200px""alt=""img"">
                            </div>
                        </div>",0.265,"",0,"",NA,"","images/map26_bwr_scaleRev_orientDef_090.png","sad",1,26,26,"bwr","orientDef","scaleRev","090",NA,NA
"","","","","","html-slider-response",116,370148,"0.0-112.0","m4z5jzncon",78,NA,"<div style=""width:500px;"">
                            <p style=""font-size:50px; font-weight:bold;""
                            >sad</p>
                            <div style=""width:240px; margin: auto;"">
                                <img src=""images/map26_managua_scaleDef_orientMir_180.png"" style= ""width:200px""alt=""img"">
                            </div>
                        </div>",0.85,"",0,"",NA,"","images/map26_managua_scaleDef_orientMir_180.png","sad",1,26,26,"managua","orientMir","scaleDef","180",NA,NA
"","","","","","html-slider-response",117,372268,"0.0-113.0","m4z5jzncon",78,NA,"<div style=""width:500px;"">
                            <p style=""font-size:50px; font-weight:bold;""
                            >sad</p>
                            <div style=""width:240px; margin: auto;"">
                                <img src=""images/map15_BrBG_scaleRev_orientDef_090.png"" style= ""width:200px""alt=""img"">
                            </div>
                        </div>",0.8175,"",0,"",NA,"","images/map15_BrBG_scaleRev_orientDef_090.png","sad",1,15,15,"BrBG","orientDef","scaleRev","090",NA,NA
"","","","","","html-slider-response",118,374061,"0.0-114.0","m4z5jzncon",78,NA,"<div style=""width:500px;"">
                            <p style=""font-size:50px; font-weight:bold;""
                            >sad</p>
                            <div style=""width:240px; margin: auto;"">
                                <img src=""images/map02_inferno_scaleRev_orientDef_270.png"" style= ""width:200px""alt=""img"">
                            </div>
                        </div>",0.4625,"",0,"",NA,"","images/map02_inferno_scaleRev_orientDef_270.png","sad",1,2,2,"inferno","orientDef","scaleRev","270",NA,NA
"","","","","","html-slider-response",119,375924,"0.0-115.0","m4z5jzncon",78,NA,"<div style=""width:500px;"">
                            <p style=""font-size:50px; font-weight:bold;""
                            >sad</p>
                            <div style=""width:240px; margin: auto;"">
                                <img src=""images/map15_RdGy_scaleDef_orientMir_000.png"" style= ""width:200px""alt=""img"">
                            </div>
                        </div>",0.5075,"",0,"",NA,"","images/map15_RdGy_scaleDef_orientMir_000.png","sad",1,15,15,"RdGy","orientMir","scaleDef","000",NA,NA
"","","","","","html-slider-response",120,379296,"0.0-116.0","m4z5jzncon",78,NA,"<div style=""width:500px;"">
                            <p style=""font-size:50px; font-weight:bold;""
                            >sad</p>
                            <div style=""width:240px; margin: auto;"">
                                <img src=""images/map26_seismic_scaleDef_orientDef_180.png"" style= ""width:200px""alt=""img"">
                            </div>
                        </div>",0.65,"",0,"",NA,"","images/map26_seismic_scaleDef_orientDef_180.png","sad",1,26,26,"seismic","orientDef","scaleDef","180",NA,NA
"","","","","","html-slider-response",121,381827,"0.0-117.0","m4z5jzncon",78,NA,"<div style=""width:500px;"">
                            <p style=""font-size:50px; font-weight:bold;""
                            >sad</p>
                            <div style=""width:240px; margin: auto;"">
                                <img src=""images/map07_YlOrRd_scaleRev_orientMir_270.png"" style= ""width:200px""alt=""img"">
                            </div>
                        </div>",0.2025,"",0,"",NA,"","images/map07_YlOrRd_scaleRev_orientMir_270.png","sad",1,7,7,"YlOrRd","orientMir","scaleRev","270",NA,NA
"","","","","","html-slider-response",122,388640,"0.0-118.0","m4z5jzncon",78,NA,"<div style=""width:500px;"">
                            <p style=""font-size:50px; font-weight:bold;""
                            >sad</p>
                            <div style=""width:240px; margin: auto;"">
                                <img src=""images/map15_PuOr_scaleDef_orientDef_180.png"" style= ""width:200px""alt=""img"">
                            </div>
                        </div>",0.5825,"",0,"",NA,"","images/map15_PuOr_scaleDef_orientDef_180.png","sad",1,15,15,"PuOr","orientDef","scaleDef","180",NA,NA
"","","","","","html-slider-response",123,391008,"0.0-119.0","m4z5jzncon",78,NA,"<div style=""width:500px;"">
                            <p style=""font-size:50px; font-weight:bold;""
                            >sad</p>
                            <div style=""width:240px; margin: auto;"">
                                <img src=""images/map05_Purples_scaleRev_orientDef_270.png"" style= ""width:200px""alt=""img"">
                            </div>
                        </div>",0.815,"",0,"",NA,"","images/map05_Purples_scaleRev_orientDef_270.png","sad",1,5,5,"Purples","orientDef","scaleRev","270",NA,NA
"","","","","","html-slider-response",124,393017,"0.0-120.0","m4z5jzncon",78,NA,"<div style=""width:500px;"">
                            <p style=""font-size:50px; font-weight:bold;""
                            >sad</p>
                            <div style=""width:240px; margin: auto;"">
                                <img src=""images/map05_Greys_scaleDef_orientDef_000.png"" style= ""width:200px""alt=""img"">
                            </div>
                        </div>",0.9325,"",0,"",NA,"","images/map05_Greys_scaleDef_orientDef_000.png","sad",1,5,5,"Greys","orientDef","scaleDef","000",NA,NA
"","","","","","html-slider-response",125,395172,"0.0-121.0","m4z5jzncon",78,NA,"<div style=""width:500px;"">
                            <p style=""font-size:50px; font-weight:bold;""
                            >sad</p>
                            <div style=""width:240px; margin: auto;"">
                                <img src=""images/map07_Reds_scaleRev_orientDef_270.png"" style= ""width:200px""alt=""img"">
                            </div>
                        </div>",0.2225,"",0,"",NA,"","images/map07_Reds_scaleRev_orientDef_270.png","sad",1,7,7,"Reds","orientDef","scaleRev","270",NA,NA
"","","","","","html-slider-response",126,397553,"0.0-122.0","m4z5jzncon",78,NA,"<div style=""width:500px;"">
                            <p style=""font-size:50px; font-weight:bold;""
                            >sad</p>
                            <div style=""width:240px; margin: auto;"">
                                <img src=""images/map27_vanimo_scaleDef_orientDef_000.png"" style= ""width:200px""alt=""img"">
                            </div>
                        </div>",0.25,"",0,"",NA,"","images/map27_vanimo_scaleDef_orientDef_000.png","sad",1,27,27,"vanimo","orientDef","scaleDef","000",NA,NA
"","","","","","html-slider-response",127,399704,"0.0-123.0","m4z5jzncon",78,NA,"<div style=""width:500px;"">
                            <p style=""font-size:50px; font-weight:bold;""
                            >sad</p>
                            <div style=""width:240px; margin: auto;"">
                                <img src=""images/map07_Oranges_scaleRev_orientDef_090.png"" style= ""width:200px""alt=""img"">
                            </div>
                        </div>",0.1725,"",0,"",NA,"","images/map07_Oranges_scaleRev_orientDef_090.png","sad",1,7,7,"Oranges","orientDef","scaleRev","090",NA,NA
"","","","","","html-slider-response",128,401585,"0.0-124.0","m4z5jzncon",78,NA,"<div style=""width:500px;"">
                            <p style=""font-size:50px; font-weight:bold;""
                            >sad</p>
                            <div style=""width:240px; margin: auto;"">
                                <img src=""images/map27_viridis_scaleRev_orientMir_270.png"" style= ""width:200px""alt=""img"">
                            </div>
                        </div>",0.73,"",0,"",NA,"","images/map27_viridis_scaleRev_orientMir_270.png","sad",1,27,27,"viridis","orientMir","scaleRev","270",NA,NA
"","","","","","html-slider-response",129,404301,"0.0-125.0","m4z5jzncon",78,NA,"<div style=""width:500px;"">
                            <p style=""font-size:50px; font-weight:bold;""
                            >sad</p>
                            <div style=""width:240px; margin: auto;"">
                                <img src=""images/map10_PuRd_scaleDef_orientDef_180.png"" style= ""width:200px""alt=""img"">
                            </div>
                        </div>",0.305,"",0,"",NA,"","images/map10_PuRd_scaleDef_orientDef_180.png","sad",1,10,10,"PuRd","orientDef","scaleDef","180",NA,NA
"","","","","","html-slider-response",130,406064,"0.0-126.0","m4z5jzncon",78,NA,"<div style=""width:500px;"">
                            <p style=""font-size:50px; font-weight:bold;""
                            >sad</p>
                            <div style=""width:240px; margin: auto;"">
                                <img src=""images/map15_BrBG_scaleDef_orientDef_000.png"" style= ""width:200px""alt=""img"">
                            </div>
                        </div>",0.7875,"",0,"",NA,"","images/map15_BrBG_scaleDef_orientDef_000.png","sad",1,15,15,"BrBG","orientDef","scaleDef","000",NA,NA
"","","","","","html-slider-response",131,408428,"0.0-127.0","m4z5jzncon",78,NA,"<div style=""width:500px;"">
                            <p style=""font-size:50px; font-weight:bold;""
                            >sad</p>
                            <div style=""width:240px; margin: auto;"">
                                <img src=""images/map10_BuPu_scaleRev_orientMir_270.png"" style= ""width:200px""alt=""img"">
                            </div>
                        </div>",0.8675,"",0,"",NA,"","images/map10_BuPu_scaleRev_orientMir_270.png","sad",1,10,10,"BuPu","orientMir","scaleRev","270",NA,NA
"","","","","","html-slider-response",132,410418,"0.0-128.0","m4z5jzncon",78,NA,"<div style=""width:500px;"">
                            <p style=""font-size:50px; font-weight:bold;""
                            >sad</p>
                            <div style=""width:240px; margin: auto;"">
                                <img src=""images/map13_YlGn_scaleRev_orientDef_270.png"" style= ""width:200px""alt=""img"">
                            </div>
                        </div>",0.2925,"",0,"",NA,"","images/map13_YlGn_scaleRev_orientDef_270.png","sad",1,13,13,"YlGn","orientDef","scaleRev","270",NA,NA
"","","","","","html-slider-response",133,412551,"0.0-129.0","m4z5jzncon",78,NA,"<div style=""width:500px;"">
                            <p style=""font-size:50px; font-weight:bold;""
                            >sad</p>
                            <div style=""width:240px; margin: auto;"">
                                <img src=""images/map27_turbo_scaleDef_orientMir_000.png"" style= ""width:200px""alt=""img"">
                            </div>
                        </div>",0.215,"",0,"",NA,"","images/map27_turbo_scaleDef_orientMir_000.png","sad",1,27,27,"turbo","orientMir","scaleDef","000",NA,NA
"","","","","","html-slider-response",134,414670,"0.0-130.0","m4z5jzncon",78,NA,"<div style=""width:500px;"">
                            <p style=""font-size:50px; font-weight:bold;""
                            >sad</p>
                            <div style=""width:240px; margin: auto;"">
                                <img src=""images/map07_YlOrBr_scaleRev_orientMir_090.png"" style= ""width:200px""alt=""img"">
                            </div>
                        </div>",0.235,"",0,"",NA,"","images/map07_YlOrBr_scaleRev_orientMir_090.png","sad",1,7,7,"YlOrBr","orientMir","scaleRev","090",NA,NA
"","","","","","html-slider-response",135,416656,"0.0-131.0","m4z5jzncon",78,NA,"<div style=""width:500px;"">
                            <p style=""font-size:50px; font-weight:bold;""
                            >sad</p>
                            <div style=""width:240px; margin: auto;"">
                                <img src=""images/map12_PuBuGn_scaleDef_orientMir_180.png"" style= ""width:200px""alt=""img"">
                            </div>
                        </div>",0.7875,"",0,"",NA,"","images/map12_PuBuGn_scaleDef_orientMir_180.png","sad",1,12,12,"PuBuGn","orientMir","scaleDef","180",NA,NA
"","","","","","html-slider-response",136,418686,"0.0-132.0","m4z5jzncon",78,NA,"<div style=""width:500px;"">
                            <p style=""font-size:50px; font-weight:bold;""
                            >sad</p>
                            <div style=""width:240px; margin: auto;"">
                                <img src=""images/map05_Greys_scaleRev_orientDef_090.png"" style= ""width:200px""alt=""img"">
                            </div>
                        </div>",0.925,"",0,"",NA,"","images/map05_Greys_scaleRev_orientDef_090.png","sad",1,5,5,"Greys","orientDef","scaleRev","090",NA,NA
"","","","","","html-slider-response",137,420468,"0.0-133.0","m4z5jzncon",78,NA,"<div style=""width:500px;"">
                            <p style=""font-size:50px; font-weight:bold;""
                            >sad</p>
                            <div style=""width:240px; margin: auto;"">
                                <img src=""images/map26_bwr_scaleDef_orientDef_000.png"" style= ""width:200px""alt=""img"">
                            </div>
                        </div>",0.605,"",0,"",NA,"","images/map26_bwr_scaleDef_orientDef_000.png","sad",1,26,26,"bwr","orientDef","scaleDef","000",NA,NA
"","","","","","html-slider-response",138,422464,"0.0-134.0","m4z5jzncon",78,NA,"<div style=""width:500px;"">
                            <p style=""font-size:50px; font-weight:bold;""
                            >sad</p>
                            <div style=""width:240px; margin: auto;"">
                                <img src=""images/map13_YlGn_scaleDef_orientDef_180.png"" style= ""width:200px""alt=""img"">
                            </div>
                        </div>",0.18,"",0,"",NA,"","images/map13_YlGn_scaleDef_orientDef_180.png","sad",1,13,13,"YlGn","orientDef","scaleDef","180",NA,NA
"","","","","","html-slider-response",139,426054,"0.0-135.0","m4z5jzncon",78,NA,"<div style=""width:500px;"">
                            <p style=""font-size:50px; font-weight:bold;""
                            >sad</p>
                            <div style=""width:240px; margin: auto;"">
                                <img src=""images/map02_cividis_scaleRev_orientMir_270.png"" style= ""width:200px""alt=""img"">
                            </div>
                        </div>",0.8675,"",0,"",NA,"","images/map02_cividis_scaleRev_orientMir_270.png","sad",1,2,2,"cividis","orientMir","scaleRev","270",NA,NA
"","","","","","html-slider-response",140,427836,"0.0-136.0","m4z5jzncon",78,NA,"<div style=""width:500px;"">
                            <p style=""font-size:50px; font-weight:bold;""
                            >sad</p>
                            <div style=""width:240px; margin: auto;"">
                                <img src=""images/map10_OrRd_scaleDef_orientDef_000.png"" style= ""width:200px""alt=""img"">
                            </div>
                        </div>",0.1575,"",0,"",NA,"","images/map10_OrRd_scaleDef_orientDef_000.png","sad",1,10,10,"OrRd","orientDef","scaleDef","000",NA,NA
"","","","","","html-button-response",141,431210,"0.0-137.0","m4z5jzncon",78,2871,"<p>You are doing great!<br></br> You are halway done with the current block. When you are ready to continue, click the 'Continue' button.</p>",0.5,"",NA,"",NA,"","","",NA,NA,NA,"","","","",NA,NA
"","","","","","html-slider-response",142,433137,"0.0-138.0","m4z5jzncon",78,NA,"<div style=""width:500px;"">
                            <p style=""font-size:50px; font-weight:bold;""
                            >sad</p>
                            <div style=""width:240px; margin: auto;"">
                                <img src=""images/map13_BuGn_scaleDef_orientDef_000.png"" style= ""width:200px""alt=""img"">
                            </div>
                        </div>",0.395,"",0,"",NA,"","images/map13_BuGn_scaleDef_orientDef_000.png","sad",1,13,13,"BuGn","orientDef","scaleDef","000",NA,NA
"","","","","","html-slider-response",143,435200,"0.0-139.0","m4z5jzncon",78,NA,"<div style=""width:500px;"">
                            <p style=""font-size:50px; font-weight:bold;""
                            >sad</p>
                            <div style=""width:240px; margin: auto;"">
                                <img src=""images/map26_seismic_scaleRev_orientDef_270.png"" style= ""width:200px""alt=""img"">
                            </div>
                        </div>",0.3925,"",0,"",NA,"","images/map26_seismic_scaleRev_orientDef_270.png","sad",1,26,26,"seismic","orientDef","scaleRev","270",NA,NA
"","","","","","html-slider-response",144,437006,"0.0-140.0","m4z5jzncon",78,NA,"<div style=""width:500px;"">
                            <p style=""font-size:50px; font-weight:bold;""
                            >sad</p>
                            <div style=""width:240px; margin: auto;"">
                                <img src=""images/map12_YlGnBu_scaleRev_orientMir_090.png"" style= ""width:200px""alt=""img"">
                            </div>
                        </div>",0.875,"",0,"",NA,"","images/map12_YlGnBu_scaleRev_orientMir_090.png","sad",1,12,12,"YlGnBu","orientMir","scaleRev","090",NA,NA
"","","","","","html-slider-response",145,439531,"0.0-141.0","m4z5jzncon",78,NA,"<div style=""width:500px;"">
                            <p style=""font-size:50px; font-weight:bold;""
                            >sad</p>
                            <div style=""width:240px; margin: auto;"">
                                <img src=""images/map05_Purples_scaleDef_orientDef_180.png"" style= ""width:200px""alt=""img"">
                            </div>
                        </div>",0.83,"",0,"",NA,"","images/map05_Purples_scaleDef_orientDef_180.png","sad",1,5,5,"Purples","orientDef","scaleDef","180",NA,NA
"","","","","","html-slider-response",146,441468,"0.0-142.0","m4z5jzncon",78,NA,"<div style=""width:500px;"">
                            <p style=""font-size:50px; font-weight:bold;""
                            >sad</p>
                            <div style=""width:240px; margin: auto;"">
                                <img src=""images/map12_PuBu_scaleRev_orientDef_270.png"" style= ""width:200px""alt=""img"">
                            </div>
                        </div>",0.8525,"",0,"",NA,"","images/map12_PuBu_scaleRev_orientDef_270.png","sad",1,12,12,"PuBu","orientDef","scaleRev","270",NA,NA
"","","","","","html-slider-response",147,443301,"0.0-143.0","m4z5jzncon",78,NA,"<div style=""width:500px;"">
                            <p style=""font-size:50px; font-weight:bold;""
                            >sad</p>
                            <div style=""width:240px; margin: auto;"">
                                <img src=""images/map05_Greens_scaleRev_orientMir_270.png"" style= ""width:200px""alt=""img"">
                            </div>
                        </div>",0.395,"",0,"",NA,"","images/map05_Greens_scaleRev_orientMir_270.png","sad",1,5,5,"Greens","orientMir","scaleRev","270",NA,NA
"","","","","","html-slider-response",148,444921,"0.0-144.0","m4z5jzncon",78,NA,"<div style=""width:500px;"">
                            <p style=""font-size:50px; font-weight:bold;""
                            >sad</p>
                            <div style=""width:240px; margin: auto;"">
                                <img src=""images/map05_Blues_scaleDef_orientMir_000.png"" style= ""width:200px""alt=""img"">
                            </div>
                        </div>",0.725,"",0,"",NA,"","images/map05_Blues_scaleDef_orientMir_000.png","sad",1,5,5,"Blues","orientMir","scaleDef","000",NA,NA
"","","","","","html-slider-response",149,446982,"0.0-145.0","m4z5jzncon",78,NA,"<div style=""width:500px;"">
                            <p style=""font-size:50px; font-weight:bold;""
                            >sad</p>
                            <div style=""width:240px; margin: auto;"">
                                <img src=""images/map13_PiYG_scaleRev_orientMir_090.png"" style= ""width:200px""alt=""img"">
                            </div>
                        </div>",0.215,"",0,"",NA,"","images/map13_PiYG_scaleRev_orientMir_090.png","sad",1,13,13,"PiYG","orientMir","scaleRev","090",NA,NA
"","","","","","html-slider-response",150,448838,"0.0-146.0","m4z5jzncon",78,NA,"<div style=""width:500px;"">
                            <p style=""font-size:50px; font-weight:bold;""
                            >sad</p>
                            <div style=""width:240px; margin: auto;"">
                                <img src=""images/map10_BuPu_scaleDef_orientMir_180.png"" style= ""width:200px""alt=""img"">
                            </div>
                        </div>",0.8625,"",0,"",NA,"","images/map10_BuPu_scaleDef_orientMir_180.png","sad",1,10,10,"BuPu","orientMir","scaleDef","180",NA,NA
"","","","","","html-slider-response",151,450649,"0.0-147.0","m4z5jzncon",78,NA,"<div style=""width:500px;"">
                            <p style=""font-size:50px; font-weight:bold;""
                            >sad</p>
                            <div style=""width:240px; margin: auto;"">
                                <img src=""images/map23_RdYlBu_scaleRev_orientDef_090.png"" style= ""width:200px""alt=""img"">
                            </div>
                        </div>",0.535,"",0,"",NA,"","images/map23_RdYlBu_scaleRev_orientDef_090.png","sad",1,23,23,"RdYlBu","orientDef","scaleRev","090",NA,NA
"","","","","","html-slider-response",152,452837,"0.0-148.0","m4z5jzncon",78,NA,"<div style=""width:500px;"">
                            <p style=""font-size:50px; font-weight:bold;""
                            >sad</p>
                            <div style=""width:240px; margin: auto;"">
                                <img src=""images/map23_Spectral_scaleRev_orientMir_090.png"" style= ""width:200px""alt=""img"">
                            </div>
                        </div>",0.655,"",0,"",NA,"","images/map23_Spectral_scaleRev_orientMir_090.png","sad",1,23,23,"Spectral","orientMir","scaleRev","090",NA,NA
"","","","","","html-slider-response",153,454664,"0.0-149.0","m4z5jzncon",78,NA,"<div style=""width:500px;"">
                            <p style=""font-size:50px; font-weight:bold;""
                            >sad</p>
                            <div style=""width:240px; margin: auto;"">
                                <img src=""images/map07_Oranges_scaleDef_orientDef_000.png"" style= ""width:200px""alt=""img"">
                            </div>
                        </div>",0.155,"",0,"",NA,"","images/map07_Oranges_scaleDef_orientDef_000.png","sad",1,7,7,"Oranges","orientDef","scaleDef","000",NA,NA
"","","","","","html-slider-response",154,456771,"0.0-150.0","m4z5jzncon",78,NA,"<div style=""width:500px;"">
                            <p style=""font-size:50px; font-weight:bold;""
                            >sad</p>
                            <div style=""width:240px; margin: auto;"">
                                <img src=""images/map02_cividis_scaleDef_orientMir_180.png"" style= ""width:200px""alt=""img"">
                            </div>
                        </div>",0.805,"",0,"",NA,"","images/map02_cividis_scaleDef_orientMir_180.png","sad",1,2,2,"cividis","orientMir","scaleDef","180",NA,NA
"","","","","","html-slider-response",155,459271,"0.0-151.0","m4z5jzncon",78,NA,"<div style=""width:500px;"">
                            <p style=""font-size:50px; font-weight:bold;""
                            >sad</p>
                            <div style=""width:240px; margin: auto;"">
                                <img src=""images/map02_inferno_scaleDef_orientDef_180.png"" style= ""width:200px""alt=""img"">
                            </div>
                        </div>",0.305,"",0,"",NA,"","images/map02_inferno_scaleDef_orientDef_180.png","sad",1,2,2,"inferno","orientDef","scaleDef","180",NA,NA
"","","","","","html-slider-response",156,461721,"0.0-152.0","m4z5jzncon",78,NA,"<div style=""width:500px;"">
                            <p style=""font-size:50px; font-weight:bold;""
                            >sad</p>
                            <div style=""width:240px; margin: auto;"">
                                <img src=""images/map13_PiYG_scaleDef_orientMir_000.png"" style= ""width:200px""alt=""img"">
                            </div>
                        </div>",0.215,"",0,"",NA,"","images/map13_PiYG_scaleDef_orientMir_000.png","sad",1,13,13,"PiYG","orientMir","scaleDef","000",NA,NA
"","","","","","html-slider-response",157,464337,"0.0-153.0","m4z5jzncon",78,NA,"<div style=""width:500px;"">
                            <p style=""font-size:50px; font-weight:bold;""
                            >sad</p>
                            <div style=""width:240px; margin: auto;"">
                                <img src=""images/map15_PuOr_scaleRev_orientDef_270.png"" style= ""width:200px""alt=""img"">
                            </div>
                        </div>",0.595,"",0,"",NA,"","images/map15_PuOr_scaleRev_orientDef_270.png","sad",1,15,15,"PuOr","orientDef","scaleRev","270",NA,NA
"","","","","","html-slider-response",158,466238,"0.0-154.0","m4z5jzncon",78,NA,"<div style=""width:500px;"">
                            <p style=""font-size:50px; font-weight:bold;""
                            >sad</p>
                            <div style=""width:240px; margin: auto;"">
                                <img src=""images/map10_OrRd_scaleRev_orientDef_090.png"" style= ""width:200px""alt=""img"">
                            </div>
                        </div>",0.185,"",0,"",NA,"","images/map10_OrRd_scaleRev_orientDef_090.png","sad",1,10,10,"OrRd","orientDef","scaleRev","090",NA,NA
"","","","","","html-slider-response",159,468920,"0.0-155.0","m4z5jzncon",78,NA,"<div style=""width:500px;"">
                            <p style=""font-size:50px; font-weight:bold;""
                            >sad</p>
                            <div style=""width:240px; margin: auto;"">
                                <img src=""images/map23_RdYlBu_scaleDef_orientDef_000.png"" style= ""width:200px""alt=""img"">
                            </div>
                        </div>",0.6475,"",0,"",NA,"","images/map23_RdYlBu_scaleDef_orientDef_000.png","sad",1,23,23,"RdYlBu","orientDef","scaleDef","000",NA,NA
"","","","","","html-slider-response",160,472146,"0.0-156.0","m4z5jzncon",78,NA,"<div style=""width:500px;"">
                            <p style=""font-size:50px; font-weight:bold;""
                            >sad</p>
                            <div style=""width:240px; margin: auto;"">
                                <img src=""images/map27_vanimo_scaleRev_orientDef_090.png"" style= ""width:200px""alt=""img"">
                            </div>
                        </div>",0.2,"",0,"",NA,"","images/map27_vanimo_scaleRev_orientDef_090.png","sad",1,27,27,"vanimo","orientDef","scaleRev","090",NA,NA
"","","","","","html-slider-response",161,474194,"0.0-157.0","m4z5jzncon",78,NA,"<div style=""width:500px;"">
                            <p style=""font-size:50px; font-weight:bold;""
                            >sad</p>
                            <div style=""width:240px; margin: auto;"">
                                <img src=""images/map15_RdBu_scaleDef_orientMir_180.png"" style= ""width:200px""alt=""img"">
                            </div>
                        </div>",0.76,"",0,"",NA,"","images/map15_RdBu_scaleDef_orientMir_180.png","sad",1,15,15,"RdBu","orientMir","scaleDef","180",NA,NA
"","","","","","html-slider-response",162,475914,"0.0-158.0","m4z5jzncon",78,NA,"<div style=""width:500px;"">
                            <p style=""font-size:50px; font-weight:bold;""
                            >sad</p>
                            <div style=""width:240px; margin: auto;"">
                                <img src=""images/map13_BuGn_scaleRev_orientDef_090.png"" style= ""width:200px""alt=""img"">
                            </div>
                        </div>",0.3125,"",0,"",NA,"","images/map13_BuGn_scaleRev_orientDef_090.png","sad",1,13,13,"BuGn","orientDef","scaleRev","090",NA,NA
"","","","","","html-slider-response",163,477458,"0.0-159.0","m4z5jzncon",78,NA,"<div style=""width:500px;"">
