"success","timeout","failed_images","failed_audio","failed_video","trial_type","trial_index","time_elapsed","internal_node_id","subject_id","condition_num","rt","stimulus","response","question_order","slider_start","practiceTrial","practiceTrialNum","correct","image_path","concept","repetition","map_id","map_num","scale_name","orientation_code","mapping_code","rotation_code","ishihara_plate","correct_response"
"true","false","[]","[]","[]","preload",0,382,"0.0-0.0","9df2e9v9t2",13,NA,"",NA,"",NA,"",NA,"","","",NA,NA,NA,"","","","",NA,NA
"","","","","","html-button-response",1,1463,"0.0-1.0","9df2e9v9t2",13,1080,"Welcome to our experiment!<p>At the bottom of this screen, you will see a button that says ""Begin Experiment"".<br>Please only click that button when you are ready to complete the 30 minute experiment in one sitting.</p><p> Once you click that button, it will not be possible to restart the experiment.",0.5,"",NA,"",NA,"","","",NA,NA,NA,"","","","",NA,NA
"true","","","","","fullscreen",2,3230,"0.0-2.0","9df2e9v9t2",13,764,"",NA,"",NA,"",NA,"","","",NA,NA,NA,"","","","",NA,NA
"","","","","","survey-multi-select",3,5798,"0.0-3.0","9df2e9v9t2",13,2564,"",NA,"[0]",NA,"",NA,"","","",NA,NA,NA,"","","","",NA,NA
"","","","","","html-button-response",4,7563,"0.0-4.0","9df2e9v9t2",13,1763,"Welcome! <p> This experiment involves two parts: demographic information, followed by the experimental task.<p> It will take about 30 minutes to complete both parts.",0.5,"",NA,"",NA,"","","",NA,NA,NA,"","","","",NA,NA
"","","","","","survey-text",5,20380,"0.0-5.0","9df2e9v9t2",13,12810,"",NA,"",NA,"",NA,"","","",NA,NA,NA,"","","","",NA,NA
"","","","","","html-slider-response",6,61929,"0.0-6.0","9df2e9v9t2",13,41546,"<div style='text-align:left; font-size:20px; line-height:25px; width: 1000px;'>
                                During this experiment you will be asked to rate how much you associate maps with                    different concepts.<br> Below, you can see some examples of the maps you will be asked to rate. Above the maps
                    is the list of concepts.<br>You will be asked                    to rate how much you associate each map with each concept on a scale from 'not at all' to 'very much' like the
                    one below. <br><br>
                    Now, please look at the list of concepts and maps. For each concept, think about the map you associate 'very
                    much' with the concept.<br>                     When you see that map during the experiment, please rate it near the 'very much' endpoint of the
                    scale.<br>Now, please think about which map you associate 'not at all'                     with each concept. When you see that map during the experiment, please rate it near the 'not at all' endpoint
                    of the scale.<br>
                    Please use the full range of the scale. That is, if a map is somewhat associated with the concept, you would
                    click partway between the middle point and right side of the scale.                    You will be asked to rate each map for a given concept before moving on to the next concept.<br>Press the
                    'Continue' button for instructions on how to use the slider.                    <br>
                </div>

                <div style=""width: 500px; margin: 0 auto;"">
                    <!-- Centered text paragraphs -->
                    <div style=""text-align: center; width: 500px;"">
                        <p style=""font-size:25px; line-height:15px;"">
                            happy&nbsp;&nbsp;&nbsp;&nbsp;
                            angry&nbsp;&nbsp;&nbsp;&nbsp;
                            disgust&nbsp;&nbsp;&nbsp;&nbsp;
                            sad&nbsp;&nbsp;&nbsp;&nbsp;
                            fearful
                        </p>
                        <!-- <p style=""font-size:20px; line-height:15px;"">angry</p>
                        <p style=""font-size:20px;line-height:15px;"">disgust</p>
                        <p style=""font-size:20px;line-height:15px;"">sad</p>
                        <p style=""font-size:20px;line-height:15px;"">fearful</p> -->
                    </div>
            

                    <!-- Grid section -->
                   <div style=""display: flex; justify-content: center; padding-top: 15px;"">
                    <div style=""display: grid; grid-template-columns: repeat(10, 55px); grid-gap: 5px; width: auto;"">
                        <img src=""images/map15_BuGn_scaleDef_orientMir_270.png"" alt=""map"" style=""width: 100%;""><img src=""images/map10_Purples_scaleRev_orientDef_180.png"" alt=""map"" style=""width: 100%;""><img src=""images/map02_vanimo_scaleDef_orientMir_270.png"" alt=""map"" style=""width: 100%;""><img src=""images/map23_PRGn_scaleDef_orientMir_090.png"" alt=""map"" style=""width: 100%;""><img src=""images/map27_RdYlGn_scaleDef_orientDef_090.png"" alt=""map"" style=""width: 100%;""><img src=""images/map23_YlGn_scaleRev_orientDef_180.png"" alt=""map"" style=""width: 100%;""><img src=""images/map13_PuRd_scaleDef_orientDef_090.png"" alt=""map"" style=""width: 100%;""><img src=""images/map10_Greys_scaleRev_orientDef_000.png"" alt=""map"" style=""width: 100%;""><img src=""images/map10_Blues_scaleRev_orientMir_000.png"" alt=""map"" style=""width: 100%;""><img src=""images/map13_RdPu_scaleDef_orientDef_270.png"" alt=""map"" style=""width: 100%;""><img src=""images/map12_Reds_scaleRev_orientDef_180.png"" alt=""map"" style=""width: 100%;""><img src=""images/map15_PuBuGn_scaleDef_orientMir_090.png"" alt=""map"" style=""width: 100%;""><img src=""images/map15_YlGnBu_scaleDef_orientDef_270.png"" alt=""map"" style=""width: 100%;""><img src=""images/map10_Greens_scaleDef_orientMir_090.png"" alt=""map"" style=""width: 100%;""><img src=""images/map13_BuPu_scaleRev_orientMir_180.png"" alt=""map"" style=""width: 100%;""><img src=""images/map26_RdGy_scaleDef_orientDef_270.png"" alt=""map"" style=""width: 100%;""><img src=""images/map27_coolwarm_scaleDef_orientMir_090.png"" alt=""map"" style=""width: 100%;""><img src=""images/map26_PuOr_scaleDef_orientDef_090.png"" alt=""map"" style=""width: 100%;""><img src=""images/map15_PuBu_scaleDef_orientDef_090.png"" alt=""map"" style=""width: 100%;""><img src=""images/map07_cividis_scaleDef_orientMir_090.png"" alt=""map"" style=""width: 100%;""><img src=""images/map12_YlOrBr_scaleDef_orientDef_270.png"" alt=""map"" style=""width: 100%;""><img src=""images/map07_magma_scaleDef_orientDef_270.png"" alt=""map"" style=""width: 100%;""><img src=""images/map15_GnBu_scaleRev_orientDef_000.png"" alt=""map"" style=""width: 100%;""><img src=""images/map02_berlin_scaleRev_orientMir_000.png"" alt=""map"" style=""width: 100%;""><img src=""images/map05_viridis_scaleRev_orientMir_180.png"" alt=""map"" style=""width: 100%;""><img src=""images/map27_RdYlBu_scaleRev_orientDef_000.png"" alt=""map"" style=""width: 100%;""><img src=""images/map27_bwr_scaleDef_orientMir_270.png"" alt=""map"" style=""width: 100%;""><img src=""images/map05_turbo_scaleDef_orientDef_270.png"" alt=""map"" style=""width: 100%;""><img src=""images/map07_inferno_scaleRev_orientDef_180.png"" alt=""map"" style=""width: 100%;""><img src=""images/map27_Spectral_scaleRev_orientMir_000.png"" alt=""map"" style=""width: 100%;""><img src=""images/map26_BrBG_scaleRev_orientDef_000.png"" alt=""map"" style=""width: 100%;""><img src=""images/map02_seismic_scaleDef_orientDef_090.png"" alt=""map"" style=""width: 100%;""><img src=""images/map05_gist_earth_scaleRev_orientDef_180.png"" alt=""map"" style=""width: 100%;""><img src=""images/map07_plasma_scaleRev_orientDef_000.png"" alt=""map"" style=""width: 100%;""><img src=""images/map26_RdBu_scaleDef_orientMir_090.png"" alt=""map"" style=""width: 100%;""><img src=""images/map02_managua_scaleDef_orientMir_090.png"" alt=""map"" style=""width: 100%;""><img src=""images/map12_Oranges_scaleRev_orientDef_000.png"" alt=""map"" style=""width: 100%;""><img src=""images/map23_PiYG_scaleDef_orientDef_270.png"" alt=""map"" style=""width: 100%;""><img src=""images/map12_OrRd_scaleDef_orientMir_270.png"" alt=""map"" style=""width: 100%;""><img src=""images/map12_YlOrRd_scaleRev_orientMir_180.png"" alt=""map"" style=""width: 100%;"">
                    </div>
                </div>

                    <!-- Clear floats -->
                    <div style=""clear: both;""></div>
                </div>
                            ",0,"",0,"true",NA,"","","",NA,NA,NA,"","","","",NA,NA
"","","","","","html-button-response",7,65197,"0.0-7.0","9df2e9v9t2",13,3267,"<div style=""width:800px;""><p style=""text-align:left"">To move the slider, click and drag your cursor to the location of the scale where you would like to make your rating and then let go. When you let go of the slider, your response will be recorded and the next trial will begin. <br>
                    We are interested in your initial impressions of each map for the given concept, so please go with your first intuition. <br>
                    Before you begin the experiment, there will be four training trials for you to practice using the scale. <br>
                     When you are ready to start the training trials, please click ""Continue"".</p><br></div>",0.5,"",NA,"",NA,"","","",NA,NA,NA,"","","","",NA,NA
"","","","","","html-slider-response",8,71892,"0.0-8.0-0.0","9df2e9v9t2",13,NA,"<div style=""width:500px;"">
                                    <p style=""font-size:25px;"">Please move the slider all the way to the <br> right endpoint of the scale</p>

                                    </div>
                                </div>",1,"",0,"true",0,"true","","",NA,NA,NA,"","","","",NA,NA
"","","","","","html-button-response",9,73580,"0.0-8.0-1.0","9df2e9v9t2",13,1185,"<p align='center'><b>Good job!</b> Click on 'Continue' to proceed.</p>",0.5,"",NA,"",NA,"","","",NA,NA,NA,"","","","",NA,NA
"","","","","","html-slider-response",10,75909,"0.0-9.0-0.0","9df2e9v9t2",13,NA,"<div style=""width:500px;"">
                                    <p style=""font-size:25px;"">Please move the slider all the way to the <br> left endpoint of the scale</p>

                                    </div>
                                </div>",0,"",0,"true",1,"true","","",NA,NA,NA,"","","","",NA,NA
"","","","","","html-button-response",11,77146,"0.0-9.0-1.0","9df2e9v9t2",13,734,"<p align='center'><b>Good job!</b> Click on 'Continue' to proceed.</p>",0.5,"",NA,"",NA,"","","",NA,NA,NA,"","","","",NA,NA
"","","","","","html-slider-response",12,86241,"0.0-10.0-0.0","9df2e9v9t2",13,NA,"<div style=""width:500px;"">
                                    <p style=""font-size:25px;"">Please move the slider halfway between the center and right endpoint of the scale</p>

                                    </div>
                                </div>",1,"",0,"true",2,"false","","",NA,NA,NA,"","","","",NA,NA
"","","","","","html-button-response",13,90248,"0.0-10.0-1.0","9df2e9v9t2",13,3503,"<p align='center'><b>Not quite!</b> The slider was not placed near the instructed located. Click on 'Continue' to try again. </p>",0.5,"",NA,"",NA,"","","",NA,NA,NA,"","","","",NA,NA
"","","","","","html-slider-response",14,94042,"0.0-10.1-0.1","9df2e9v9t2",13,NA,"<div style=""width:500px;"">
                                    <p style=""font-size:25px;"">Please move the slider halfway between the center and right endpoint of the scale</p>

                                    </div>
                                </div>",0.7675,"",0,"true",2,"true","","",NA,NA,NA,"","","","",NA,NA
"","","","","","html-button-response",15,95496,"0.0-10.1-1.1","9df2e9v9t2",13,951,"<p align='center'><b>Good job!</b> Click on 'Continue' to proceed.</p>",0.5,"",NA,"",NA,"","","",NA,NA,NA,"","","","",NA,NA
"","","","","","html-slider-response",16,105678,"0.0-11.0-0.0","9df2e9v9t2",13,NA,"<div style=""width:500px;"">
                                    <p style=""font-size:25px;"">Please move the slider halfway between the center and left endpoint of the scale</p>

                                    </div>
                                </div>",0.2325,"",0,"true",3,"true","","",NA,NA,NA,"","","","",NA,NA
"","","","","","html-button-response",17,107896,"0.0-11.0-1.0","9df2e9v9t2",13,1716,"<p align='center'><b>Good job!</b> Click on 'Continue' to proceed.</p>",0.5,"",NA,"",NA,"","","",NA,NA,NA,"","","","",NA,NA
"","","","","","html-button-response",18,110029,"0.0-12.0","9df2e9v9t2",13,2132,"<p>Great job! You've completed the practice trials. Now you will begin the main task.</p>",0.5,"",NA,"",NA,"","","",NA,NA,NA,"","","","",NA,NA
"","","","","","html-button-response",19,114982,"0.0-13.0","9df2e9v9t2",13,4952,"<p>In this block of trials, you will be asked to rate how much you associate each map with:</p > <p style = 'font-size:150%; font-weight: bold'>happy</p><br></br>",0.5,"",NA,"",NA,"","","",NA,NA,NA,"","","","",NA,NA
"","","","","","html-slider-response",20,119258,"0.0-14.0","9df2e9v9t2",13,NA,"<div style=""width:500px;"">
                            <p style=""font-size:50px; font-weight:bold;""
                            >happy</p>
                            <div style=""width:240px; margin: auto;"">
                                <img src=""images/map12_Reds_scaleDef_orientDef_090.png"" style= ""width:200px""alt=""img"">
                            </div>
                        </div>",0.225,"",0,"",NA,"","images/map12_Reds_scaleDef_orientDef_090.png","happy",1,12,12,"Reds","orientDef","scaleDef","090",NA,NA
"","","","","","html-slider-response",21,121977,"0.0-15.0","9df2e9v9t2",13,NA,"<div style=""width:500px;"">
                            <p style=""font-size:50px; font-weight:bold;""
                            >happy</p>
                            <div style=""width:240px; margin: auto;"">
                                <img src=""images/map02_vanimo_scaleDef_orientMir_270.png"" style= ""width:200px""alt=""img"">
                            </div>
                        </div>",0.7675,"",0,"",NA,"","images/map02_vanimo_scaleDef_orientMir_270.png","happy",1,2,2,"vanimo","orientMir","scaleDef","270",NA,NA
"","","","","","html-slider-response",22,125060,"0.0-16.0","9df2e9v9t2",13,NA,"<div style=""width:500px;"">
                            <p style=""font-size:50px; font-weight:bold;""
                            >happy</p>
                            <div style=""width:240px; margin: auto;"">
                                <img src=""images/map15_YlGnBu_scaleDef_orientDef_270.png"" style= ""width:200px""alt=""img"">
                            </div>
                        </div>",0.76,"",0,"",NA,"","images/map15_YlGnBu_scaleDef_orientDef_270.png","happy",1,15,15,"YlGnBu","orientDef","scaleDef","270",NA,NA
"","","","","","html-slider-response",23,128009,"0.0-17.0","9df2e9v9t2",13,NA,"<div style=""width:500px;"">
                            <p style=""font-size:50px; font-weight:bold;""
                            >happy</p>
                            <div style=""width:240px; margin: auto;"">
                                <img src=""images/map05_viridis_scaleDef_orientMir_090.png"" style= ""width:200px""alt=""img"">
                            </div>
                        </div>",0.41,"",0,"",NA,"","images/map05_viridis_scaleDef_orientMir_090.png","happy",1,5,5,"viridis","orientMir","scaleDef","090",NA,NA
"","","","","","html-slider-response",24,130291,"0.0-18.0","9df2e9v9t2",13,NA,"<div style=""width:500px;"">
                            <p style=""font-size:50px; font-weight:bold;""
                            >happy</p>
                            <div style=""width:240px; margin: auto;"">
                                <img src=""images/map26_PuOr_scaleRev_orientDef_180.png"" style= ""width:200px""alt=""img"">
                            </div>
                        </div>",0.7725,"",0,"",NA,"","images/map26_PuOr_scaleRev_orientDef_180.png","happy",1,26,26,"PuOr","orientDef","scaleRev","180",NA,NA
"","","","","","html-slider-response",25,133492,"0.0-19.0","9df2e9v9t2",13,NA,"<div style=""width:500px;"">
                            <p style=""font-size:50px; font-weight:bold;""
                            >happy</p>
                            <div style=""width:240px; margin: auto;"">
                                <img src=""images/map12_Reds_scaleRev_orientDef_180.png"" style= ""width:200px""alt=""img"">
                            </div>
                        </div>",0.7675,"",0,"",NA,"","images/map12_Reds_scaleRev_orientDef_180.png","happy",1,12,12,"Reds","orientDef","scaleRev","180",NA,NA
"","","","","","html-slider-response",26,136409,"0.0-20.0","9df2e9v9t2",13,NA,"<div style=""width:500px;"">
                            <p style=""font-size:50px; font-weight:bold;""
                            >happy</p>
                            <div style=""width:240px; margin: auto;"">
                                <img src=""images/map05_plasma_scaleDef_orientMir_270.png"" style= ""width:200px""alt=""img"">
                            </div>
                        </div>",0.73,"",0,"",NA,"","images/map05_plasma_scaleDef_orientMir_270.png","happy",1,5,5,"plasma","orientMir","scaleDef","270",NA,NA
"","","","","","html-slider-response",27,140443,"0.0-21.0","9df2e9v9t2",13,NA,"<div style=""width:500px;"">
                            <p style=""font-size:50px; font-weight:bold;""
                            >happy</p>
                            <div style=""width:240px; margin: auto;"">
                                <img src=""images/map12_YlOrRd_scaleDef_orientMir_090.png"" style= ""width:200px""alt=""img"">
                            </div>
                        </div>",0.7975,"",0,"",NA,"","images/map12_YlOrRd_scaleDef_orientMir_090.png","happy",1,12,12,"YlOrRd","orientMir","scaleDef","090",NA,NA
"","","","","","html-slider-response",28,143693,"0.0-22.0","9df2e9v9t2",13,NA,"<div style=""width:500px;"">
                            <p style=""font-size:50px; font-weight:bold;""
                            >happy</p>
                            <div style=""width:240px; margin: auto;"">
                                <img src=""images/map07_plasma_scaleRev_orientDef_000.png"" style= ""width:200px""alt=""img"">
                            </div>
                        </div>",0.34,"",0,"",NA,"","images/map07_plasma_scaleRev_orientDef_000.png","happy",1,7,7,"plasma","orientDef","scaleRev","000",NA,NA
"","","","","","html-slider-response",29,145959,"0.0-23.0","9df2e9v9t2",13,NA,"<div style=""width:500px;"">
                            <p style=""font-size:50px; font-weight:bold;""
                            >happy</p>
                            <div style=""width:240px; margin: auto;"">
                                <img src=""images/map07_cividis_scaleDef_orientMir_090.png"" style= ""width:200px""alt=""img"">
                            </div>
                        </div>",0.06,"",0,"",NA,"","images/map07_cividis_scaleDef_orientMir_090.png","happy",1,7,7,"cividis","orientMir","scaleDef","090",NA,NA
"","","","","","html-slider-response",30,147860,"0.0-24.0","9df2e9v9t2",13,NA,"<div style=""width:500px;"">
                            <p style=""font-size:50px; font-weight:bold;""
                            >happy</p>
                            <div style=""width:240px; margin: auto;"">
                                <img src=""images/map13_GnBu_scaleDef_orientMir_270.png"" style= ""width:200px""alt=""img"">
                            </div>
                        </div>",0.765,"",0,"",NA,"","images/map13_GnBu_scaleDef_orientMir_270.png","happy",1,13,13,"GnBu","orientMir","scaleDef","270",NA,NA
"","","","","","html-slider-response",31,149825,"0.0-25.0","9df2e9v9t2",13,NA,"<div style=""width:500px;"">
                            <p style=""font-size:50px; font-weight:bold;""
                            >happy</p>
                            <div style=""width:240px; margin: auto;"">
                                <img src=""images/map13_PuRd_scaleDef_orientDef_090.png"" style= ""width:200px""alt=""img"">
                            </div>
                        </div>",1,"",0,"",NA,"","images/map13_PuRd_scaleDef_orientDef_090.png","happy",1,13,13,"PuRd","orientDef","scaleDef","090",NA,NA
"","","","","","html-slider-response",32,151925,"0.0-26.0","9df2e9v9t2",13,NA,"<div style=""width:500px;"">
                            <p style=""font-size:50px; font-weight:bold;""
                            >happy</p>
                            <div style=""width:240px; margin: auto;"">
                                <img src=""images/map12_YlOrBr_scaleRev_orientMir_000.png"" style= ""width:200px""alt=""img"">
                            </div>
                        </div>",0.235,"",0,"",NA,"","images/map12_YlOrBr_scaleRev_orientMir_000.png","happy",1,12,12,"YlOrBr","orientMir","scaleRev","000",NA,NA
"","","","","","html-slider-response",33,153860,"0.0-27.0","9df2e9v9t2",13,NA,"<div style=""width:500px;"">
                            <p style=""font-size:50px; font-weight:bold;""
                            >happy</p>
                            <div style=""width:240px; margin: auto;"">
                                <img src=""images/map27_Spectral_scaleRev_orientMir_000.png"" style= ""width:200px""alt=""img"">
                            </div>
                        </div>",0.365,"",0,"",NA,"","images/map27_Spectral_scaleRev_orientMir_000.png","happy",1,27,27,"Spectral","orientMir","scaleRev","000",NA,NA
"","","","","","html-slider-response",34,156760,"0.0-28.0","9df2e9v9t2",13,NA,"<div style=""width:500px;"">
                            <p style=""font-size:50px; font-weight:bold;""
                            >happy</p>
                            <div style=""width:240px; margin: auto;"">
                                <img src=""images/map13_PuRd_scaleRev_orientDef_180.png"" style= ""width:200px""alt=""img"">
                            </div>
                        </div>",0.915,"",0,"",NA,"","images/map13_PuRd_scaleRev_orientDef_180.png","happy",1,13,13,"PuRd","orientDef","scaleRev","180",NA,NA
"","","","","","html-slider-response",35,159141,"0.0-29.0","9df2e9v9t2",13,NA,"<div style=""width:500px;"">
                            <p style=""font-size:50px; font-weight:bold;""
                            >happy</p>
                            <div style=""width:240px; margin: auto;"">
                                <img src=""images/map07_Greys_scaleDef_orientMir_270.png"" style= ""width:200px""alt=""img"">
                            </div>
                        </div>",0,"",0,"",NA,"","images/map07_Greys_scaleDef_orientMir_270.png","happy",1,7,7,"Greys","orientMir","scaleDef","270",NA,NA
"","","","","","html-slider-response",36,163176,"0.0-30.0","9df2e9v9t2",13,NA,"<div style=""width:500px;"">
                            <p style=""font-size:50px; font-weight:bold;""
                            >happy</p>
                            <div style=""width:240px; margin: auto;"">
                                <img src=""images/map27_coolwarm_scaleRev_orientMir_180.png"" style= ""width:200px""alt=""img"">
                            </div>
                        </div>",0.395,"",0,"",NA,"","images/map27_coolwarm_scaleRev_orientMir_180.png","happy",1,27,27,"coolwarm","orientMir","scaleRev","180",NA,NA
"","","","","","html-slider-response",37,166808,"0.0-31.0","9df2e9v9t2",13,NA,"<div style=""width:500px;"">
                            <p style=""font-size:50px; font-weight:bold;""
                            >happy</p>
                            <div style=""width:240px; margin: auto;"">
                                <img src=""images/map23_PRGn_scaleDef_orientMir_090.png"" style= ""width:200px""alt=""img"">
                            </div>
                        </div>",0.3825,"",0,"",NA,"","images/map23_PRGn_scaleDef_orientMir_090.png","happy",1,23,23,"PRGn","orientMir","scaleDef","090",NA,NA
"","","","","","html-slider-response",38,168844,"0.0-32.0","9df2e9v9t2",13,NA,"<div style=""width:500px;"">
                            <p style=""font-size:50px; font-weight:bold;""
                            >happy</p>
                            <div style=""width:240px; margin: auto;"">
                                <img src=""images/map26_PuOr_scaleDef_orientDef_090.png"" style= ""width:200px""alt=""img"">
                            </div>
                        </div>",0.565,"",0,"",NA,"","images/map26_PuOr_scaleDef_orientDef_090.png","happy",1,26,26,"PuOr","orientDef","scaleDef","090",NA,NA
"","","","","","html-slider-response",39,170675,"0.0-33.0","9df2e9v9t2",13,NA,"<div style=""width:500px;"">
                            <p style=""font-size:50px; font-weight:bold;""
                            >happy</p>
                            <div style=""width:240px; margin: auto;"">
                                <img src=""images/map26_RdBu_scaleRev_orientMir_180.png"" style= ""width:200px""alt=""img"">
                            </div>
                        </div>",0.3675,"",0,"",NA,"","images/map26_RdBu_scaleRev_orientMir_180.png","happy",1,26,26,"RdBu","orientMir","scaleRev","180",NA,NA
"","","","","","html-slider-response",40,173276,"0.0-34.0","9df2e9v9t2",13,NA,"<div style=""width:500px;"">
                            <p style=""font-size:50px; font-weight:bold;""
                            >happy</p>
                            <div style=""width:240px; margin: auto;"">
                                <img src=""images/map07_magma_scaleDef_orientDef_270.png"" style= ""width:200px""alt=""img"">
                            </div>
                        </div>",0.2225,"",0,"",NA,"","images/map07_magma_scaleDef_orientDef_270.png","happy",1,7,7,"magma","orientDef","scaleDef","270",NA,NA
"","","","","","html-slider-response",41,177811,"0.0-35.0","9df2e9v9t2",13,NA,"<div style=""width:500px;"">
                            <p style=""font-size:50px; font-weight:bold;""
                            >happy</p>
                            <div style=""width:240px; margin: auto;"">
                                <img src=""images/map10_Purples_scaleRev_orientDef_180.png"" style= ""width:200px""alt=""img"">
                            </div>
                        </div>",0.3675,"",0,"",NA,"","images/map10_Purples_scaleRev_orientDef_180.png","happy",1,10,10,"Purples","orientDef","scaleRev","180",NA,NA
"","","","","","html-slider-response",42,180443,"0.0-36.0","9df2e9v9t2",13,NA,"<div style=""width:500px;"">
                            <p style=""font-size:50px; font-weight:bold;""
                            >happy</p>
                            <div style=""width:240px; margin: auto;"">
                                <img src=""images/map05_vanimo_scaleRev_orientDef_000.png"" style= ""width:200px""alt=""img"">
                            </div>
                        </div>",0,"",0,"",NA,"","images/map05_vanimo_scaleRev_orientDef_000.png","happy",1,5,5,"vanimo","orientDef","scaleRev","000",NA,NA
"","","","","","html-slider-response",43,182342,"0.0-37.0","9df2e9v9t2",13,NA,"<div style=""width:500px;"">
                            <p style=""font-size:50px; font-weight:bold;""
                            >happy</p>
                            <div style=""width:240px; margin: auto;"">
                                <img src=""images/map23_PiYG_scaleDef_orientDef_270.png"" style= ""width:200px""alt=""img"">
                            </div>
                        </div>",0.97,"",0,"",NA,"","images/map23_PiYG_scaleDef_orientDef_270.png","happy",1,23,23,"PiYG","orientDef","scaleDef","270",NA,NA
"","","","","","html-slider-response",44,184241,"0.0-38.0","9df2e9v9t2",13,NA,"<div style=""width:500px;"">
                            <p style=""font-size:50px; font-weight:bold;""
                            >happy</p>
                            <div style=""width:240px; margin: auto;"">
                                <img src=""images/map23_YlGn_scaleRev_orientDef_180.png"" style= ""width:200px""alt=""img"">
                            </div>
                        </div>",0.325,"",0,"",NA,"","images/map23_YlGn_scaleRev_orientDef_180.png","happy",1,23,23,"YlGn","orientDef","scaleRev","180",NA,NA
"","","","","","html-slider-response",45,186108,"0.0-39.0","9df2e9v9t2",13,NA,"<div style=""width:500px;"">
                            <p style=""font-size:50px; font-weight:bold;""
                            >happy</p>
                            <div style=""width:240px; margin: auto;"">
                                <img src=""images/map15_PuBu_scaleDef_orientDef_090.png"" style= ""width:200px""alt=""img"">
                            </div>
                        </div>",0.915,"",0,"",NA,"","images/map15_PuBu_scaleDef_orientDef_090.png","happy",1,15,15,"PuBu","orientDef","scaleDef","090",NA,NA
"","","","","","html-slider-response",46,187708,"0.0-40.0","9df2e9v9t2",13,NA,"<div style=""width:500px;"">
                            <p style=""font-size:50px; font-weight:bold;""
                            >happy</p>
                            <div style=""width:240px; margin: auto;"">
                                <img src=""images/map13_BuPu_scaleRev_orientMir_180.png"" style= ""width:200px""alt=""img"">
                            </div>
                        </div>",0.205,"",0,"",NA,"","images/map13_BuPu_scaleRev_orientMir_180.png","happy",1,13,13,"BuPu","orientMir","scaleRev","180",NA,NA
"","","","","","html-slider-response",47,191726,"0.0-41.0","9df2e9v9t2",13,NA,"<div style=""width:500px;"">
                            <p style=""font-size:50px; font-weight:bold;""
                            >happy</p>
                            <div style=""width:240px; margin: auto;"">
                                <img src=""images/map15_GnBu_scaleRev_orientDef_000.png"" style= ""width:200px""alt=""img"">
                            </div>
                        </div>",0.765,"",0,"",NA,"","images/map15_GnBu_scaleRev_orientDef_000.png","happy",1,15,15,"GnBu","orientDef","scaleRev","000",NA,NA
"","","","","","html-slider-response",48,197682,"0.0-42.0","9df2e9v9t2",13,NA,"<div style=""width:500px;"">
                            <p style=""font-size:50px; font-weight:bold;""
                            >happy</p>
                            <div style=""width:240px; margin: auto;"">
                                <img src=""images/map05_viridis_scaleRev_orientMir_180.png"" style= ""width:200px""alt=""img"">
                            </div>
                        </div>",0.2075,"",0,"",NA,"","images/map05_viridis_scaleRev_orientMir_180.png","happy",1,5,5,"viridis","orientMir","scaleRev","180",NA,NA
"","","","","","html-slider-response",49,252031,"0.0-43.0","9df2e9v9t2",13,NA,"<div style=""width:500px;"">
                            <p style=""font-size:50px; font-weight:bold;""
                            >happy</p>
                            <div style=""width:240px; margin: auto;"">
                                <img src=""images/map10_Oranges_scaleDef_orientMir_270.png"" style= ""width:200px""alt=""img"">
                            </div>
                        </div>",0.54,"",0,"",NA,"","images/map10_Oranges_scaleDef_orientMir_270.png","happy",1,10,10,"Oranges","orientMir","scaleDef","270",NA,NA
"","","","","","html-slider-response",50,254414,"0.0-44.0","9df2e9v9t2",13,NA,"<div style=""width:500px;"">
                            <p style=""font-size:50px; font-weight:bold;""
                            >happy</p>
                            <div style=""width:240px; margin: auto;"">
                                <img src=""images/map23_PRGn_scaleRev_orientMir_180.png"" style= ""width:200px""alt=""img"">
                            </div>
                        </div>",0.405,"",0,"",NA,"","images/map23_PRGn_scaleRev_orientMir_180.png","happy",1,23,23,"PRGn","orientMir","scaleRev","180",NA,NA
"","","","","","html-slider-response",51,256013,"0.0-45.0","9df2e9v9t2",13,NA,"<div style=""width:500px;"">
                            <p style=""font-size:50px; font-weight:bold;""
                            >happy</p>
                            <div style=""width:240px; margin: auto;"">
                                <img src=""images/map02_berlin_scaleDef_orientDef_270.png"" style= ""width:200px""alt=""img"">
                            </div>
                        </div>",0.065,"",0,"",NA,"","images/map02_berlin_scaleDef_orientDef_270.png","happy",1,2,2,"berlin","orientDef","scaleDef","270",NA,NA
"","","","","","html-slider-response",52,257714,"0.0-46.0","9df2e9v9t2",13,NA,"<div style=""width:500px;"">
                            <p style=""font-size:50px; font-weight:bold;""
                            >happy</p>
                            <div style=""width:240px; margin: auto;"">
                                <img src=""images/map27_coolwarm_scaleDef_orientMir_090.png"" style= ""width:200px""alt=""img"">
                            </div>
                        </div>",0.64,"",0,"",NA,"","images/map27_coolwarm_scaleDef_orientMir_090.png","happy",1,27,27,"coolwarm","orientMir","scaleDef","090",NA,NA
"","","","","","html-slider-response",53,259979,"0.0-47.0","9df2e9v9t2",13,NA,"<div style=""width:500px;"">
                            <p style=""font-size:50px; font-weight:bold;""
                            >happy</p>
                            <div style=""width:240px; margin: auto;"">
                                <img src=""images/map26_RdBu_scaleDef_orientMir_090.png"" style= ""width:200px""alt=""img"">
                            </div>
                        </div>",0.725,"",0,"",NA,"","images/map26_RdBu_scaleDef_orientMir_090.png","happy",1,26,26,"RdBu","orientMir","scaleDef","090",NA,NA
"","","","","","html-slider-response",54,261963,"0.0-48.0","9df2e9v9t2",13,NA,"<div style=""width:500px;"">
                            <p style=""font-size:50px; font-weight:bold;""
                            >happy</p>
                            <div style=""width:240px; margin: auto;"">
                                <img src=""images/map26_BrBG_scaleRev_orientDef_000.png"" style= ""width:200px""alt=""img"">
                            </div>
                        </div>",0.345,"",0,"",NA,"","images/map26_BrBG_scaleRev_orientDef_000.png","happy",1,26,26,"BrBG","orientDef","scaleRev","000",NA,NA
"","","","","","html-slider-response",55,264013,"0.0-49.0","9df2e9v9t2",13,NA,"<div style=""width:500px;"">
                            <p style=""font-size:50px; font-weight:bold;""
                            >happy</p>
                            <div style=""width:240px; margin: auto;"">
                                <img src=""images/map07_cividis_scaleRev_orientMir_180.png"" style= ""width:200px""alt=""img"">
                            </div>
                        </div>",0.1625,"",0,"",NA,"","images/map07_cividis_scaleRev_orientMir_180.png","happy",1,7,7,"cividis","orientMir","scaleRev","180",NA,NA
"","","","","","html-slider-response",56,266600,"0.0-50.0","9df2e9v9t2",13,NA,"<div style=""width:500px;"">
                            <p style=""font-size:50px; font-weight:bold;""
                            >happy</p>
                            <div style=""width:240px; margin: auto;"">
                                <img src=""images/map05_gist_earth_scaleDef_orientDef_090.png"" style= ""width:200px""alt=""img"">
                            </div>
                        </div>",0.255,"",0,"",NA,"","images/map05_gist_earth_scaleDef_orientDef_090.png","happy",1,5,5,"gist","scaleDef","earth","orientDef",NA,NA
"","","","","","html-slider-response",57,269680,"0.0-51.0","9df2e9v9t2",13,NA,"<div style=""width:500px;"">
                            <p style=""font-size:50px; font-weight:bold;""
                            >happy</p>
                            <div style=""width:240px; margin: auto;"">
                                <img src=""images/map13_OrRd_scaleRev_orientDef_000.png"" style= ""width:200px""alt=""img"">
                            </div>
                        </div>",0.685,"",0,"",NA,"","images/map13_OrRd_scaleRev_orientDef_000.png","happy",1,13,13,"OrRd","orientDef","scaleRev","000",NA,NA
"","","","","","html-slider-response",58,271514,"0.0-52.0","9df2e9v9t2",13,NA,"<div style=""width:500px;"">
                            <p style=""font-size:50px; font-weight:bold;""
                            >happy</p>
                            <div style=""width:240px; margin: auto;"">
                                <img src=""images/map07_inferno_scaleRev_orientDef_180.png"" style= ""width:200px""alt=""img"">
                            </div>
                        </div>",0.41,"",0,"",NA,"","images/map07_inferno_scaleRev_orientDef_180.png","happy",1,7,7,"inferno","orientDef","scaleRev","180",NA,NA
"","","","","","html-slider-response",59,273898,"0.0-53.0","9df2e9v9t2",13,NA,"<div style=""width:500px;"">
                            <p style=""font-size:50px; font-weight:bold;""
                            >happy</p>
                            <div style=""width:240px; margin: auto;"">
                                <img src=""images/map10_Purples_scaleDef_orientDef_090.png"" style= ""width:200px""alt=""img"">
                            </div>
                        </div>",0.2,"",0,"",NA,"","images/map10_Purples_scaleDef_orientDef_090.png","happy",1,10,10,"Purples","orientDef","scaleDef","090",NA,NA
"","","","","","html-button-response",60,278751,"0.0-54.0","9df2e9v9t2",13,4351,"<p>You are doing great!<br></br> You are halway done with the current block. When you are ready to continue, click the 'Continue' button.</p>",0.5,"",NA,"",NA,"","","",NA,NA,NA,"","","","",NA,NA
"","","","","","html-slider-response",61,280497,"0.0-55.0","9df2e9v9t2",13,NA,"<div style=""width:500px;"">
                            <p style=""font-size:50px; font-weight:bold;""
                            >happy</p>
                            <div style=""width:240px; margin: auto;"">
                                <img src=""images/map02_seismic_scaleDef_orientDef_090.png"" style= ""width:200px""alt=""img"">
                            </div>
                        </div>",0.325,"",0,"",NA,"","images/map02_seismic_scaleDef_orientDef_090.png","happy",1,2,2,"seismic","orientDef","scaleDef","090",NA,NA
"","","","","","html-slider-response",62,283481,"0.0-56.0","9df2e9v9t2",13,NA,"<div style=""width:500px;"">
                            <p style=""font-size:50px; font-weight:bold;""
                            >happy</p>
                            <div style=""width:240px; margin: auto;"">
                                <img src=""images/map07_magma_scaleRev_orientMir_000.png"" style= ""width:200px""alt=""img"">
                            </div>
                        </div>",0.145,"",0,"",NA,"","images/map07_magma_scaleRev_orientMir_000.png","happy",1,7,7,"magma","orientMir","scaleRev","000",NA,NA
"","","","","","html-slider-response",63,285530,"0.0-57.0","9df2e9v9t2",13,NA,"<div style=""width:500px;"">
                            <p style=""font-size:50px; font-weight:bold;""
                            >happy</p>
                            <div style=""width:240px; margin: auto;"">
                                <img src=""images/map05_gist_earth_scaleRev_orientDef_180.png"" style= ""width:200px""alt=""img"">
                            </div>
                        </div>",0.36,"",0,"",NA,"","images/map05_gist_earth_scaleRev_orientDef_180.png","happy",1,5,5,"gist","scaleRev","earth","orientDef",NA,NA
"","","","","","html-slider-response",64,287614,"0.0-58.0","9df2e9v9t2",13,NA,"<div style=""width:500px;"">
                            <p style=""font-size:50px; font-weight:bold;""
                            >happy</p>
                            <div style=""width:240px; margin: auto;"">
                                <img src=""images/map02_bwr_scaleRev_orientDef_000.png"" style= ""width:200px""alt=""img"">
                            </div>
                        </div>",0.6275,"",0,"",NA,"","images/map02_bwr_scaleRev_orientDef_000.png","happy",1,2,2,"bwr","orientDef","scaleRev","000",NA,NA
"","","","","","html-slider-response",65,289529,"0.0-59.0","9df2e9v9t2",13,NA,"<div style=""width:500px;"">
                            <p style=""font-size:50px; font-weight:bold;""
                            >happy</p>
                            <div style=""width:240px; margin: auto;"">
                                <img src=""images/map26_RdGy_scaleDef_orientDef_270.png"" style= ""width:200px""alt=""img"">
                            </div>
                        </div>",0.2875,"",0,"",NA,"","images/map26_RdGy_scaleDef_orientDef_270.png","happy",1,26,26,"RdGy","orientDef","scaleDef","270",NA,NA
"","","","","","html-slider-response",66,292016,"0.0-60.0","9df2e9v9t2",13,NA,"<div style=""width:500px;"">
                            <p style=""font-size:50px; font-weight:bold;""
                            >happy</p>
                            <div style=""width:240px; margin: auto;"">
                                <img src=""images/map15_PuBuGn_scaleRev_orientMir_180.png"" style= ""width:200px""alt=""img"">
                            </div>
                        </div>",0.675,"",0,"",NA,"","images/map15_PuBuGn_scaleRev_orientMir_180.png","happy",1,15,15,"PuBuGn","orientMir","scaleRev","180",NA,NA
"","","","","","html-slider-response",67,293730,"0.0-61.0","9df2e9v9t2",13,NA,"<div style=""width:500px;"">
                            <p style=""font-size:50px; font-weight:bold;""
                            >happy</p>
                            <div style=""width:240px; margin: auto;"">
                                <img src=""images/map07_inferno_scaleDef_orientDef_090.png"" style= ""width:200px""alt=""img"">
                            </div>
                        </div>",0.345,"",0,"",NA,"","images/map07_inferno_scaleDef_orientDef_090.png","happy",1,7,7,"inferno","orientDef","scaleDef","090",NA,NA
"","","","","","html-slider-response",68,296214,"0.0-62.0","9df2e9v9t2",13,NA,"<div style=""width:500px;"">
                            <p style=""font-size:50px; font-weight:bold;""
                            >happy</p>
                            <div style=""width:240px; margin: auto;"">
                                <img src=""images/map13_RdPu_scaleDef_orientDef_270.png"" style= ""width:200px""alt=""img"">
                            </div>
                        </div>",0.8725,"",0,"",NA,"","images/map13_RdPu_scaleDef_orientDef_270.png","happy",1,13,13,"RdPu","orientDef","scaleDef","270",NA,NA
"","","","","","html-slider-response",69,298012,"0.0-63.0","9df2e9v9t2",13,NA,"<div style=""width:500px;"">
                            <p style=""font-size:50px; font-weight:bold;""
                            >happy</p>
                            <div style=""width:240px; margin: auto;"">
                                <img src=""images/map15_YlGnBu_scaleRev_orientMir_000.png"" style= ""width:200px""alt=""img"">
                            </div>
                        </div>",0.765,"",0,"",NA,"","images/map15_YlGnBu_scaleRev_orientMir_000.png","happy",1,15,15,"YlGnBu","orientMir","scaleRev","000",NA,NA
"","","","","","html-slider-response",70,299714,"0.0-64.0","9df2e9v9t2",13,NA,"<div style=""width:500px;"">
                            <p style=""font-size:50px; font-weight:bold;""
                            >happy</p>
                            <div style=""width:240px; margin: auto;"">
                                <img src=""images/map27_Spectral_scaleDef_orientDef_270.png"" style= ""width:200px""alt=""img"">
                            </div>
                        </div>",0.5825,"",0,"",NA,"","images/map27_Spectral_scaleDef_orientDef_270.png","happy",1,27,27,"Spectral","orientDef","scaleDef","270",NA,NA
"","","","","","html-slider-response",71,301479,"0.0-65.0","9df2e9v9t2",13,NA,"<div style=""width:500px;"">
                            <p style=""font-size:50px; font-weight:bold;""
                            >happy</p>
                            <div style=""width:240px; margin: auto;"">
                                <img src=""images/map23_BrBG_scaleDef_orientMir_270.png"" style= ""width:200px""alt=""img"">
                            </div>
                        </div>",0.2075,"",0,"",NA,"","images/map23_BrBG_scaleDef_orientMir_270.png","happy",1,23,23,"BrBG","orientMir","scaleDef","270",NA,NA
"","","","","","html-slider-response",72,303545,"0.0-66.0","9df2e9v9t2",13,NA,"<div style=""width:500px;"">
                            <p style=""font-size:50px; font-weight:bold;""
                            >happy</p>
                            <div style=""width:240px; margin: auto;"">
                                <img src=""images/map12_YlOrBr_scaleDef_orientDef_270.png"" style= ""width:200px""alt=""img"">
                            </div>
                        </div>",0.6025,"",0,"",NA,"","images/map12_YlOrBr_scaleDef_orientDef_270.png","happy",1,12,12,"YlOrBr","orientDef","scaleDef","270",NA,NA
"","","","","","html-slider-response",73,305179,"0.0-67.0","9df2e9v9t2",13,NA,"<div style=""width:500px;"">
                            <p style=""font-size:50px; font-weight:bold;""
                            >happy</p>
                            <div style=""width:240px; margin: auto;"">
                                <img src=""images/map02_berlin_scaleRev_orientMir_000.png"" style= ""width:200px""alt=""img"">
                            </div>
                        </div>",0,"",0,"",NA,"","images/map02_berlin_scaleRev_orientMir_000.png","happy",1,2,2,"berlin","orientMir","scaleRev","000",NA,NA
"","","","","","html-slider-response",74,306965,"0.0-68.0","9df2e9v9t2",13,NA,"<div style=""width:500px;"">
                            <p style=""font-size:50px; font-weight:bold;""
                            >happy</p>
                            <div style=""width:240px; margin: auto;"">
                                <img src=""images/map10_Greys_scaleRev_orientDef_000.png"" style= ""width:200px""alt=""img"">
                            </div>
                        </div>",0,"",0,"",NA,"","images/map10_Greys_scaleRev_orientDef_000.png","happy",1,10,10,"Greys","orientDef","scaleRev","000",NA,NA
"","","","","","html-slider-response",75,309313,"0.0-69.0","9df2e9v9t2",13,NA,"<div style=""width:500px;"">
                            <p style=""font-size:50px; font-weight:bold;""
                            >happy</p>
                            <div style=""width:240px; margin: auto;"">
                                <img src=""images/map15_BuGn_scaleDef_orientMir_270.png"" style= ""width:200px""alt=""img"">
                            </div>
                        </div>",0.4,"",0,"",NA,"","images/map15_BuGn_scaleDef_orientMir_270.png","happy",1,15,15,"BuGn","orientMir","scaleDef","270",NA,NA
"","","","","","html-slider-response",76,311511,"0.0-70.0","9df2e9v9t2",13,NA,"<div style=""width:500px;"">
                            <p style=""font-size:50px; font-weight:bold;""
                            >happy</p>
                            <div style=""width:240px; margin: auto;"">
                                <img src=""images/map27_RdYlBu_scaleRev_orientDef_000.png"" style= ""width:200px""alt=""img"">
                            </div>
                        </div>",0.315,"",0,"",NA,"","images/map27_RdYlBu_scaleRev_orientDef_000.png","happy",1,27,27,"RdYlBu","orientDef","scaleRev","000",NA,NA
"","","","","","html-slider-response",77,315161,"0.0-71.0","9df2e9v9t2",13,NA,"<div style=""width:500px;"">
                            <p style=""font-size:50px; font-weight:bold;""
                            >happy</p>
                            <div style=""width:240px; margin: auto;"">
                                <img src=""images/map13_BuPu_scaleDef_orientMir_090.png"" style= ""width:200px""alt=""img"">
                            </div>
                        </div>",0.785,"",0,"",NA,"","images/map13_BuPu_scaleDef_orientMir_090.png","happy",1,13,13,"BuPu","orientMir","scaleDef","090",NA,NA
"","","","","","html-slider-response",78,317363,"0.0-72.0","9df2e9v9t2",13,NA,"<div style=""width:500px;"">
                            <p style=""font-size:50px; font-weight:bold;""
                            >happy</p>
                            <div style=""width:240px; margin: auto;"">
                                <img src=""images/map02_seismic_scaleRev_orientDef_180.png"" style= ""width:200px""alt=""img"">
                            </div>
                        </div>",0.3025,"",0,"",NA,"","images/map02_seismic_scaleRev_orientDef_180.png","happy",1,2,2,"seismic","orientDef","scaleRev","180",NA,NA
"","","","","","html-slider-response",79,321599,"0.0-73.0","9df2e9v9t2",13,NA,"<div style=""width:500px;"">
                            <p style=""font-size:50px; font-weight:bold;""
                            >happy</p>
                            <div style=""width:240px; margin: auto;"">
                                <img src=""images/map23_PiYG_scaleRev_orientMir_000.png"" style= ""width:200px""alt=""img"">
                            </div>
                        </div>",0.385,"",0,"",NA,"","images/map23_PiYG_scaleRev_orientMir_000.png","happy",1,23,23,"PiYG","orientMir","scaleRev","000",NA,NA
"","","","","","html-slider-response",80,323648,"0.0-74.0","9df2e9v9t2",13,NA,"<div style=""width:500px;"">
                            <p style=""font-size:50px; font-weight:bold;""
                            >happy</p>
                            <div style=""width:240px; margin: auto;"">
                                <img src=""images/map05_turbo_scaleRev_orientMir_000.png"" style= ""width:200px""alt=""img"">
                            </div>
                        </div>",0.98,"",0,"",NA,"","images/map05_turbo_scaleRev_orientMir_000.png","happy",1,5,5,"turbo","orientMir","scaleRev","000",NA,NA
"","","","","","html-slider-response",81,326462,"0.0-75.0","9df2e9v9t2",13,NA,"<div style=""width:500px;"">
                            <p style=""font-size:50px; font-weight:bold;""
                            >happy</p>
                            <div style=""width:240px; margin: auto;"">
                                <img src=""images/map27_RdYlGn_scaleRev_orientDef_180.png"" style= ""width:200px""alt=""img"">
                            </div>
                        </div>",0.355,"",0,"",NA,"","images/map27_RdYlGn_scaleRev_orientDef_180.png","happy",1,27,27,"RdYlGn","orientDef","scaleRev","180",NA,NA
"","","","","","html-slider-response",82,336296,"0.0-76.0","9df2e9v9t2",13,NA,"<div style=""width:500px;"">
                            <p style=""font-size:50px; font-weight:bold;""
                            >happy</p>
                            <div style=""width:240px; margin: auto;"">
                                <img src=""images/map15_PuBu_scaleRev_orientDef_180.png"" style= ""width:200px""alt=""img"">
                            </div>
                        </div>",0.0525,"",0,"",NA,"","images/map15_PuBu_scaleRev_orientDef_180.png","happy",1,15,15,"PuBu","orientDef","scaleRev","180",NA,NA
"","","","","","html-slider-response",83,338195,"0.0-77.0","9df2e9v9t2",13,NA,"<div style=""width:500px;"">
                            <p style=""font-size:50px; font-weight:bold;""
                            >happy</p>
                            <div style=""width:240px; margin: auto;"">
                                <img src=""images/map12_OrRd_scaleDef_orientMir_270.png"" style= ""width:200px""alt=""img"">
                            </div>
                        </div>",0.34,"",0,"",NA,"","images/map12_OrRd_scaleDef_orientMir_270.png","happy",1,12,12,"OrRd","orientMir","scaleDef","270",NA,NA
"","","","","","html-slider-response",84,339962,"0.0-78.0","9df2e9v9t2",13,NA,"<div style=""width:500px;"">
                            <p style=""font-size:50px; font-weight:bold;""
                            >happy</p>
                            <div style=""width:240px; margin: auto;"">
                                <img src=""images/map02_managua_scaleDef_orientMir_090.png"" style= ""width:200px""alt=""img"">
                            </div>
                        </div>",0,"",0,"",NA,"","images/map02_managua_scaleDef_orientMir_090.png","happy",1,2,2,"managua","orientMir","scaleDef","090",NA,NA
"","","","","","html-slider-response",85,342399,"0.0-79.0","9df2e9v9t2",13,NA,"<div style=""width:500px;"">
                            <p style=""font-size:50px; font-weight:bold;""
                            >happy</p>
                            <div style=""width:240px; margin: auto;"">
                                <img src=""images/map26_RdYlBu_scaleDef_orientMir_270.png"" style= ""width:200px""alt=""img"">
                            </div>
                        </div>",0.1325,"",0,"",NA,"","images/map26_RdYlBu_scaleDef_orientMir_270.png","happy",1,26,26,"RdYlBu","orientMir","scaleDef","270",NA,NA
"","","","","","html-slider-response",86,344114,"0.0-80.0","9df2e9v9t2",13,NA,"<div style=""width:500px;"">
                            <p style=""font-size:50px; font-weight:bold;""
                            >happy</p>
                            <div style=""width:240px; margin: auto;"">
                                <img src=""images/map02_managua_scaleRev_orientMir_180.png"" style= ""width:200px""alt=""img"">
                            </div>
                        </div>",0,"",0,"",NA,"","images/map02_managua_scaleRev_orientMir_180.png","happy",1,2,2,"managua","orientMir","scaleRev","180",NA,NA
"","","","","","html-slider-response",87,346279,"0.0-81.0","9df2e9v9t2",13,NA,"<div style=""width:500px;"">
                            <p style=""font-size:50px; font-weight:bold;""
                            >happy</p>
                            <div style=""width:240px; margin: auto;"">
                                <img src=""images/map12_Oranges_scaleRev_orientDef_000.png"" style= ""width:200px""alt=""img"">
                            </div>
                        </div>",0.69,"",0,"",NA,"","images/map12_Oranges_scaleRev_orientDef_000.png","happy",1,12,12,"Oranges","orientDef","scaleRev","000",NA,NA
"","","","","","html-slider-response",88,348480,"0.0-82.0","9df2e9v9t2",13,NA,"<div style=""width:500px;"">
                            <p style=""font-size:50px; font-weight:bold;""
                            >happy</p>
                            <div style=""width:240px; margin: auto;"">
                                <img src=""images/map10_Blues_scaleDef_orientDef_270.png"" style= ""width:200px""alt=""img"">
                            </div>
                        </div>",0.2975,"",0,"",NA,"","images/map10_Blues_scaleDef_orientDef_270.png","happy",1,10,10,"Blues","orientDef","scaleDef","270",NA,NA
"","","","","","html-slider-response",89,351197,"0.0-83.0","9df2e9v9t2",13,NA,"<div style=""width:500px;"">
                            <p style=""font-size:50px; font-weight:bold;""
                            >happy</p>
                            <div style=""width:240px; margin: auto;"">
                                <img src=""images/map27_RdYlGn_scaleDef_orientDef_090.png"" style= ""width:200px""alt=""img"">
                            </div>
                        </div>",0.32,"",0,"",NA,"","images/map27_RdYlGn_scaleDef_orientDef_090.png","happy",1,27,27,"RdYlGn","orientDef","scaleDef","090",NA,NA
"","","","","","html-slider-response",90,353865,"0.0-84.0","9df2e9v9t2",13,NA,"<div style=""width:500px;"">
                            <p style=""font-size:50px; font-weight:bold;""
                            >happy</p>
                            <div style=""width:240px; margin: auto;"">
                                <img src=""images/map10_Blues_scaleRev_orientMir_000.png"" style= ""width:200px""alt=""img"">
                            </div>
                        </div>",0.14,"",0,"",NA,"","images/map10_Blues_scaleRev_orientMir_000.png","happy",1,10,10,"Blues","orientMir","scaleRev","000",NA,NA
"","","","","","html-slider-response",91,358312,"0.0-85.0","9df2e9v9t2",13,NA,"<div style=""width:500px;"">
                            <p style=""font-size:50px; font-weight:bold;""
                            >happy</p>
                            <div style=""width:240px; margin: auto;"">
                                <img src=""images/map12_YlOrRd_scaleRev_orientMir_180.png"" style= ""width:200px""alt=""img"">
                            </div>
                        </div>",0.665,"",0,"",NA,"","images/map12_YlOrRd_scaleRev_orientMir_180.png","happy",1,12,12,"YlOrRd","orientMir","scaleRev","180",NA,NA
"","","","","","html-slider-response",92,362347,"0.0-86.0","9df2e9v9t2",13,NA,"<div style=""width:500px;"">
                            <p style=""font-size:50px; font-weight:bold;""
                            >happy</p>
                            <div style=""width:240px; margin: auto;"">
                                <img src=""images/map26_RdGy_scaleRev_orientMir_000.png"" style= ""width:200px""alt=""img"">
                            </div>
                        </div>",0,"",0,"",NA,"","images/map26_RdGy_scaleRev_orientMir_000.png","happy",1,26,26,"RdGy","orientMir","scaleRev","000",NA,NA
"","","","","","html-slider-response",93,365047,"0.0-87.0","9df2e9v9t2",13,NA,"<div style=""width:500px;"">
                            <p style=""font-size:50px; font-weight:bold;""
                            >happy</p>
                            <div style=""width:240px; margin: auto;"">
                                <img src=""images/map10_Greens_scaleDef_orientMir_090.png"" style= ""width:200px""alt=""img"">
                            </div>
                        </div>",0.585,"",0,"",NA,"","images/map10_Greens_scaleDef_orientMir_090.png","happy",1,10,10,"Greens","orientMir","scaleDef","090",NA,NA
"","","","","","html-slider-response",94,367296,"0.0-88.0","9df2e9v9t2",13,NA,"<div style=""width:500px;"">
                            <p style=""font-size:50px; font-weight:bold;""
                            >happy</p>
                            <div style=""width:240px; margin: auto;"">
                                <img src=""images/map23_BuGn_scaleRev_orientDef_000.png"" style= ""width:200px""alt=""img"">
                            </div>
                        </div>",0.69,"",0,"",NA,"","images/map23_BuGn_scaleRev_orientDef_000.png","happy",1,23,23,"BuGn","orientDef","scaleRev","000",NA,NA
"","","","","","html-slider-response",95,369747,"0.0-89.0","9df2e9v9t2",13,NA,"<div style=""width:500px;"">
                            <p style=""font-size:50px; font-weight:bold;""
                            >happy</p>
                            <div style=""width:240px; margin: auto;"">
                                <img src=""images/map05_turbo_scaleDef_orientDef_270.png"" style= ""width:200px""alt=""img"">
                            </div>
                        </div>",0.175,"",0,"",NA,"","images/map05_turbo_scaleDef_orientDef_270.png","happy",1,5,5,"turbo","orientDef","scaleDef","270",NA,NA
"","","","","","html-slider-response",96,373047,"0.0-90.0","9df2e9v9t2",13,NA,"<div style=""width:500px;"">
                            <p style=""font-size:50px; font-weight:bold;""
                            >happy</p>
                            <div style=""width:240px; margin: auto;"">
                                <img src=""images/map13_RdPu_scaleRev_orientMir_000.png"" style= ""width:200px""alt=""img"">
                            </div>
                        </div>",0.625,"",0,"",NA,"","images/map13_RdPu_scaleRev_orientMir_000.png","happy",1,13,13,"RdPu","orientMir","scaleRev","000",NA,NA
"","","","","","html-slider-response",97,374763,"0.0-91.0","9df2e9v9t2",13,NA,"<div style=""width:500px;"">
                            <p style=""font-size:50px; font-weight:bold;""
                            >happy</p>
                            <div style=""width:240px; margin: auto;"">
                                <img src=""images/map15_PuBuGn_scaleDef_orientMir_090.png"" style= ""width:200px""alt=""img"">
                            </div>
                        </div>",0.305,"",0,"",NA,"","images/map15_PuBuGn_scaleDef_orientMir_090.png","happy",1,15,15,"PuBuGn","orientMir","scaleDef","090",NA,NA
"","","","","","html-slider-response",98,376962,"0.0-92.0","9df2e9v9t2",13,NA,"<div style=""width:500px;"">
                            <p style=""font-size:50px; font-weight:bold;""
                            >happy</p>
                            <div style=""width:240px; margin: auto;"">
                                <img src=""images/map23_YlGn_scaleDef_orientDef_090.png"" style= ""width:200px""alt=""img"">
                            </div>
                        </div>",0.7025,"",0,"",NA,"","images/map23_YlGn_scaleDef_orientDef_090.png","happy",1,23,23,"YlGn","orientDef","scaleDef","090",NA,NA
"","","","","","html-slider-response",99,379714,"0.0-93.0","9df2e9v9t2",13,NA,"<div style=""width:500px;"">
                            <p style=""font-size:50px; font-weight:bold;""
                            >happy</p>
                            <div style=""width:240px; margin: auto;"">
                                <img src=""images/map27_bwr_scaleDef_orientMir_270.png"" style= ""width:200px""alt=""img"">
                            </div>
                        </div>",0.845,"",0,"",NA,"","images/map27_bwr_scaleDef_orientMir_270.png","happy",1,27,27,"bwr","orientMir","scaleDef","270",NA,NA
"","","","","","html-slider-response",100,382063,"0.0-94.0","9df2e9v9t2",13,NA,"<div style=""width:500px;"">
                            <p style=""font-size:50px; font-weight:bold;""
                            >happy</p>
                            <div style=""width:240px; margin: auto;"">
                                <img src=""images/map10_Greens_scaleRev_orientMir_180.png"" style= ""width:200px""alt=""img"">
                            </div>
                        </div>",0.5625,"",0,"",NA,"","images/map10_Greens_scaleRev_orientMir_180.png","happy",1,10,10,"Greens","orientMir","scaleRev","180",NA,NA
"","","","","","html-button-response",101,384752,"0.0-95.0","9df2e9v9t2",13,2187,"<p>Great Job! You've finished block 1.<br></br> You have 4 block(s) left to go.<br></br></p>",0.5,"",NA,"",NA,"","","",NA,NA,NA,"","","","",NA,NA
"","","","","","html-button-response",102,385717,"0.0-96.0","9df2e9v9t2",13,964,"<p>In this block of trials, you will be asked to rate how much you associate each map with:</p > <p style = 'font-size:150%; font-weight: bold'>angry</p><br></br>",0.5,"",NA,"",NA,"","","",NA,NA,NA,"","","","",NA,NA
"","","","","","html-slider-response",103,386962,"0.0-97.0","9df2e9v9t2",13,NA,"<div style=""width:500px;"">
                            <p style=""font-size:50px; font-weight:bold;""
                            >angry</p>
                            <div style=""width:240px; margin: auto;"">
                                <img src=""images/map12_YlOrBr_scaleRev_orientMir_000.png"" style= ""width:200px""alt=""img"">
                            </div>
                        </div>",0.685,"",0,"",NA,"","images/map12_YlOrBr_scaleRev_orientMir_000.png","angry",1,12,12,"YlOrBr","orientMir","scaleRev","000",NA,NA
"","","","","","html-slider-response",104,388663,"0.0-98.0","9df2e9v9t2",13,NA,"<div style=""width:500px;"">
                            <p style=""font-size:50px; font-weight:bold;""
                            >angry</p>
                            <div style=""width:240px; margin: auto;"">
                                <img src=""images/map05_turbo_scaleRev_orientMir_000.png"" style= ""width:200px""alt=""img"">
                            </div>
                        </div>",0.8575,"",0,"",NA,"","images/map05_turbo_scaleRev_orientMir_000.png","angry",1,5,5,"turbo","orientMir","scaleRev","000",NA,NA
"","","","","","html-slider-response",105,390229,"0.0-99.0","9df2e9v9t2",13,NA,"<div style=""width:500px;"">
                            <p style=""font-size:50px; font-weight:bold;""
                            >angry</p>
                            <div style=""width:240px; margin: auto;"">
                                <img src=""images/map15_PuBuGn_scaleDef_orientMir_090.png"" style= ""width:200px""alt=""img"">
                            </div>
                        </div>",0.4175,"",0,"",NA,"","images/map15_PuBuGn_scaleDef_orientMir_090.png","angry",1,15,15,"PuBuGn","orientMir","scaleDef","090",NA,NA
"","","","","","html-slider-response",106,391995,"0.0-100.0","9df2e9v9t2",13,NA,"<div style=""width:500px;"">
                            <p style=""font-size:50px; font-weight:bold;""
                            >angry</p>
                            <div style=""width:240px; margin: auto;"">
                                <img src=""images/map02_berlin_scaleDef_orientDef_270.png"" style= ""width:200px""alt=""img"">
                            </div>
                        </div>",0.8675,"",0,"",NA,"","images/map02_berlin_scaleDef_orientDef_270.png","angry",1,2,2,"berlin","orientDef","scaleDef","270",NA,NA
"","","","","","html-slider-response",107,393696,"0.0-101.0","9df2e9v9t2",13,NA,"<div style=""width:500px;"">
                            <p style=""font-size:50px; font-weight:bold;""
                            >angry</p>
                            <div style=""width:240px; margin: auto;"">
                                <img src=""images/map02_seismic_scaleRev_orientDef_180.png"" style= ""width:200px""alt=""img"">
                            </div>
                        </div>",1,"",0,"",NA,"","images/map02_seismic_scaleRev_orientDef_180.png","angry",1,2,2,"seismic","orientDef","scaleRev","180",NA,NA
"","","","","","html-slider-response",108,395429,"0.0-102.0","9df2e9v9t2",13,NA,"<div style=""width:500px;"">
                            <p style=""font-size:50px; font-weight:bold;""
                            >angry</p>
                            <div style=""width:240px; margin: auto;"">
                                <img src=""images/map15_YlGnBu_scaleDef_orientDef_270.png"" style= ""width:200px""alt=""img"">
                            </div>
                        </div>",0.3825,"",0,"",NA,"","images/map15_YlGnBu_scaleDef_orientDef_270.png","angry",1,15,15,"YlGnBu","orientDef","scaleDef","270",NA,NA
"","","","","","html-slider-response",109,397113,"0.0-103.0","9df2e9v9t2",13,NA,"<div style=""width:500px;"">
                            <p style=""font-size:50px; font-weight:bold;""
                            >angry</p>
                            <div style=""width:240px; margin: auto;"">
                                <img src=""images/map27_RdYlBu_scaleRev_orientDef_000.png"" style= ""width:200px""alt=""img"">
                            </div>
                        </div>",0.675,"",0,"",NA,"","images/map27_RdYlBu_scaleRev_orientDef_000.png","angry",1,27,27,"RdYlBu","orientDef","scaleRev","000",NA,NA
"","","","","","html-slider-response",110,399429,"0.0-104.0","9df2e9v9t2",13,NA,"<div style=""width:500px;"">
                            <p style=""font-size:50px; font-weight:bold;""
                            >angry</p>
                            <div style=""width:240px; margin: auto;"">
                                <img src=""images/map07_cividis_scaleDef_orientMir_090.png"" style= ""width:200px""alt=""img"">
                            </div>
                        </div>",0.5625,"",0,"",NA,"","images/map07_cividis_scaleDef_orientMir_090.png","angry",1,7,7,"cividis","orientMir","scaleDef","090",NA,NA
"","","","","","html-slider-response",111,401230,"0.0-105.0","9df2e9v9t2",13,NA,"<div style=""width:500px;"">
                            <p style=""font-size:50px; font-weight:bold;""
                            >angry</p>
                            <div style=""width:240px; margin: auto;"">
                                <img src=""images/map02_seismic_scaleDef_orientDef_090.png"" style= ""width:200px""alt=""img"">
                            </div>
                        </div>",0.955,"",0,"",NA,"","images/map02_seismic_scaleDef_orientDef_090.png","angry",1,2,2,"seismic","orientDef","scaleDef","090",NA,NA
"","","","","","html-slider-response",112,402813,"0.0-106.0","9df2e9v9t2",13,NA,"<div style=""width:500px;"">
                            <p style=""font-size:50px; font-weight:bold;""
                            >angry</p>
                            <div style=""width:240px; margin: auto;"">
                                <img src=""images/map15_PuBuGn_scaleRev_orientMir_180.png"" style= ""width:200px""alt=""img"">
                            </div>
                        </div>",0.36,"",0,"",NA,"","images/map15_PuBuGn_scaleRev_orientMir_180.png","angry",1,15,15,"PuBuGn","orientMir","scaleRev","180",NA,NA
"","","","","","html-slider-response",113,404329,"0.0-107.0","9df2e9v9t2",13,NA,"<div style=""width:500px;"">
                            <p style=""font-size:50px; font-weight:bold;""
                            >angry</p>
                            <div style=""width:240px; margin: auto;"">
                                <img src=""images/map27_bwr_scaleDef_orientMir_270.png"" style= ""width:200px""alt=""img"">
                            </div>
                        </div>",0.795,"",0,"",NA,"","images/map27_bwr_scaleDef_orientMir_270.png","angry",1,27,27,"bwr","orientMir","scaleDef","270",NA,NA
"","","","","","html-slider-response",114,406812,"0.0-108.0","9df2e9v9t2",13,NA,"<div style=""width:500px;"">
                            <p style=""font-size:50px; font-weight:bold;""
                            >angry</p>
                            <div style=""width:240px; margin: auto;"">
                                <img src=""images/map02_bwr_scaleRev_orientDef_000.png"" style= ""width:200px""alt=""img"">
                            </div>
                        </div>",0.9575,"",0,"",NA,"","images/map02_bwr_scaleRev_orientDef_000.png","angry",1,2,2,"bwr","orientDef","scaleRev","000",NA,NA
"","","","","","html-slider-response",115,409096,"0.0-109.0","9df2e9v9t2",13,NA,"<div style=""width:500px;"">
                            <p style=""font-size:50px; font-weight:bold;""
                            >angry</p>
                            <div style=""width:240px; margin: auto;"">
                                <img src=""images/map27_RdYlGn_scaleDef_orientDef_090.png"" style= ""width:200px""alt=""img"">
                            </div>
                        </div>",0.695,"",0,"",NA,"","images/map27_RdYlGn_scaleDef_orientDef_090.png","angry",1,27,27,"RdYlGn","orientDef","scaleDef","090",NA,NA
"","","","","","html-slider-response",116,411113,"0.0-110.0","9df2e9v9t2",13,NA,"<div style=""width:500px;"">
                            <p style=""font-size:50px; font-weight:bold;""
                            >angry</p>
                            <div style=""width:240px; margin: auto;"">
                                <img src=""images/map10_Purples_scaleRev_orientDef_180.png"" style= ""width:200px""alt=""img"">
                            </div>
                        </div>",0.605,"",0,"",NA,"","images/map10_Purples_scaleRev_orientDef_180.png","angry",1,10,10,"Purples","orientDef","scaleRev","180",NA,NA
"","","","","","html-slider-response",117,412513,"0.0-111.0","9df2e9v9t2",13,NA,"<div style=""width:500px;"">
                            <p style=""font-size:50px; font-weight:bold;""
                            >angry</p>
                            <div style=""width:240px; margin: auto;"">
                                <img src=""images/map23_PiYG_scaleRev_orientMir_000.png"" style= ""width:200px""alt=""img"">
                            </div>
                        </div>",0.435,"",0,"",NA,"","images/map23_PiYG_scaleRev_orientMir_000.png","angry",1,23,23,"PiYG","orientMir","scaleRev","000",NA,NA
"","","","","","html-slider-response",118,414265,"0.0-112.0","9df2e9v9t2",13,NA,"<div style=""width:500px;"">
                            <p style=""font-size:50px; font-weight:bold;""
                            >angry</p>
                            <div style=""width:240px; margin: auto;"">
                                <img src=""images/map12_YlOrRd_scaleDef_orientMir_090.png"" style= ""width:200px""alt=""img"">
                            </div>
                        </div>",0.625,"",0,"",NA,"","images/map12_YlOrRd_scaleDef_orientMir_090.png","angry",1,12,12,"YlOrRd","orientMir","scaleDef","090",NA,NA
"","","","","","html-slider-response",119,415997,"0.0-113.0","9df2e9v9t2",13,NA,"<div style=""width:500px;"">
                            <p style=""font-size:50px; font-weight:bold;""
                            >angry</p>
                            <div style=""width:240px; margin: auto;"">
                                <img src=""images/map05_plasma_scaleDef_orientMir_270.png"" style= ""width:200px""alt=""img"">
                            </div>
                        </div>",0.665,"",0,"",NA,"","images/map05_plasma_scaleDef_orientMir_270.png","angry",1,5,5,"plasma","orientMir","scaleDef","270",NA,NA
"","","","","","html-slider-response",120,419796,"0.0-114.0","9df2e9v9t2",13,NA,"<div style=""width:500px;"">
                            <p style=""font-size:50px; font-weight:bold;""
                            >angry</p>
                            <div style=""width:240px; margin: auto;"">
                                <img src=""images/map05_turbo_scaleDef_orientDef_270.png"" style= ""width:200px""alt=""img"">
                            </div>
                        </div>",0.8175,"",0,"",NA,"","images/map05_turbo_scaleDef_orientDef_270.png","angry",1,5,5,"turbo","orientDef","scaleDef","270",NA,NA
"","","","","","html-slider-response",121,422696,"0.0-115.0","9df2e9v9t2",13,NA,"<div style=""width:500px;"">
                            <p style=""font-size:50px; font-weight:bold;""
                            >angry</p>
                            <div style=""width:240px; margin: auto;"">
                                <img src=""images/map10_Purples_scaleDef_orientDef_090.png"" style= ""width:200px""alt=""img"">
                            </div>
                        </div>",0.305,"",0,"",NA,"","images/map10_Purples_scaleDef_orientDef_090.png","angry",1,10,10,"Purples","orientDef","scaleDef","090",NA,NA
"","","","","","html-slider-response",122,425631,"0.0-116.0","9df2e9v9t2",13,NA,"<div style=""width:500px;"">
                            <p style=""font-size:50px; font-weight:bold;""
                            >angry</p>
                            <div style=""width:240px; margin: auto;"">
                                <img src=""images/map23_BrBG_scaleDef_orientMir_270.png"" style= ""width:200px""alt=""img"">
                            </div>
                        </div>",0.43,"",0,"",NA,"","images/map23_BrBG_scaleDef_orientMir_270.png","angry",1,23,23,"BrBG","orientMir","scaleDef","270",NA,NA
"","","","","","html-slider-response",123,427364,"0.0-117.0","9df2e9v9t2",13,NA,"<div style=""width:500px;"">
                            <p style=""font-size:50px; font-weight:bold;""
                            >angry</p>
                            <div style=""width:240px; margin: auto;"">
                                <img src=""images/map26_RdBu_scaleDef_orientMir_090.png"" style= ""width:200px""alt=""img"">
                            </div>
                        </div>",0.7975,"",0,"",NA,"","images/map26_RdBu_scaleDef_orientMir_090.png","angry",1,26,26,"RdBu","orientMir","scaleDef","090",NA,NA
"","","","","","html-slider-response",124,430180,"0.0-118.0","9df2e9v9t2",13,NA,"<div style=""width:500px;"">
                            <p style=""font-size:50px; font-weight:bold;""
                            >angry</p>
                            <div style=""width:240px; margin: auto;"">
                                <img src=""images/map05_gist_earth_scaleDef_orientDef_090.png"" style= ""width:200px""alt=""img"">
                            </div>
                        </div>",0.6,"",0,"",NA,"","images/map05_gist_earth_scaleDef_orientDef_090.png","angry",1,5,5,"gist","scaleDef","earth","orientDef",NA,NA
"","","","","","html-slider-response",125,432797,"0.0-119.0","9df2e9v9t2",13,NA,"<div style=""width:500px;"">
                            <p style=""font-size:50px; font-weight:bold;""
                            >angry</p>
                            <div style=""width:240px; margin: auto;"">
                                <img src=""images/map27_Spectral_scaleDef_orientDef_270.png"" style= ""width:200px""alt=""img"">
                            </div>
                        </div>",0.385,"",0,"",NA,"","images/map27_Spectral_scaleDef_orientDef_270.png","angry",1,27,27,"Spectral","orientDef","scaleDef","270",NA,NA
"","","","","","html-slider-response",126,434547,"0.0-120.0","9df2e9v9t2",13,NA,"<div style=""width:500px;"">
                            <p style=""font-size:50px; font-weight:bold;""
                            >angry</p>
                            <div style=""width:240px; margin: auto;"">
                                <img src=""images/map23_YlGn_scaleRev_orientDef_180.png"" style= ""width:200px""alt=""img"">
                            </div>
                        </div>",0.7425,"",0,"",NA,"","images/map23_YlGn_scaleRev_orientDef_180.png","angry",1,23,23,"YlGn","orientDef","scaleRev","180",NA,NA
"","","","","","html-slider-response",127,438464,"0.0-121.0","9df2e9v9t2",13,NA,"<div style=""width:500px;"">
                            <p style=""font-size:50px; font-weight:bold;""
                            >angry</p>
                            <div style=""width:240px; margin: auto;"">
                                <img src=""images/map26_RdGy_scaleRev_orientMir_000.png"" style= ""width:200px""alt=""img"">
                            </div>
                        </div>",1,"",0,"",NA,"","images/map26_RdGy_scaleRev_orientMir_000.png","angry",1,26,26,"RdGy","orientMir","scaleRev","000",NA,NA
"","","","","","html-slider-response",128,441415,"0.0-122.0","9df2e9v9t2",13,NA,"<div style=""width:500px;"">
                            <p style=""font-size:50px; font-weight:bold;""
                            >angry</p>
                            <div style=""width:240px; margin: auto;"">
                                <img src=""images/map23_YlGn_scaleDef_orientDef_090.png"" style= ""width:200px""alt=""img"">
                            </div>
                        </div>",0.315,"",0,"",NA,"","images/map23_YlGn_scaleDef_orientDef_090.png","angry",1,23,23,"YlGn","orientDef","scaleDef","090",NA,NA
"","","","","","html-slider-response",129,448428,"0.0-123.0","9df2e9v9t2",13,NA,"<div style=""width:500px;"">
                            <p style=""font-size:50px; font-weight:bold;""
                            >angry</p>
                            <div style=""width:240px; margin: auto;"">
                                <img src=""images/map12_YlOrBr_scaleDef_orientDef_270.png"" style= ""width:200px""alt=""img"">
                            </div>
                        </div>",0.705,"",0,"",NA,"","images/map12_YlOrBr_scaleDef_orientDef_270.png","angry",1,12,12,"YlOrBr","orientDef","scaleDef","270",NA,NA
"","","","","","html-slider-response",130,450597,"0.0-124.0","9df2e9v9t2",13,NA,"<div style=""width:500px;"">
                            <p style=""font-size:50px; font-weight:bold;""
                            >angry</p>
                            <div style=""width:240px; margin: auto;"">
                                <img src=""images/map13_BuPu_scaleDef_orientMir_090.png"" style= ""width:200px""alt=""img"">
                            </div>
                        </div>",0.3475,"",0,"",NA,"","images/map13_BuPu_scaleDef_orientMir_090.png","angry",1,13,13,"BuPu","orientMir","scaleDef","090",NA,NA
"","","","","","html-slider-response",131,454080,"0.0-125.0","9df2e9v9t2",13,NA,"<div style=""width:500px;"">
                            <p style=""font-size:50px; font-weight:bold;""
                            >angry</p>
                            <div style=""width:240px; margin: auto;"">
                                <img src=""images/map13_RdPu_scaleDef_orientDef_270.png"" style= ""width:200px""alt=""img"">
                            </div>
                        </div>",0.725,"",0,"",NA,"","images/map13_RdPu_scaleDef_orientDef_270.png","angry",1,13,13,"RdPu","orientDef","scaleDef","270",NA,NA
"","","","","","html-slider-response",132,457063,"0.0-126.0","9df2e9v9t2",13,NA,"<div style=""width:500px;"">
                            <p style=""font-size:50px; font-weight:bold;""
                            >angry</p>
                            <div style=""width:240px; margin: auto;"">
                                <img src=""images/map07_magma_scaleRev_orientMir_000.png"" style= ""width:200px""alt=""img"">
                            </div>
                        </div>",0.9775,"",0,"",NA,"","images/map07_magma_scaleRev_orientMir_000.png","angry",1,7,7,"magma","orientMir","scaleRev","000",NA,NA
"","","","","","html-slider-response",133,459816,"0.0-127.0","9df2e9v9t2",13,NA,"<div style=""width:500px;"">
                            <p style=""font-size:50px; font-weight:bold;""
                            >angry</p>
                            <div style=""width:240px; margin: auto;"">
                                <img src=""images/map15_PuBu_scaleRev_orientDef_180.png"" style= ""width:200px""alt=""img"">
                            </div>
                        </div>",0.3975,"",0,"",NA,"","images/map15_PuBu_scaleRev_orientDef_180.png","angry",1,15,15,"PuBu","orientDef","scaleRev","180",NA,NA
"","","","","","html-slider-response",134,461733,"0.0-128.0","9df2e9v9t2",13,NA,"<div style=""width:500px;"">
                            <p style=""font-size:50px; font-weight:bold;""
                            >angry</p>
                            <div style=""width:240px; margin: auto;"">
                                <img src=""images/map05_gist_earth_scaleRev_orientDef_180.png"" style= ""width:200px""alt=""img"">
                            </div>
                        </div>",0.395,"",0,"",NA,"","images/map05_gist_earth_scaleRev_orientDef_180.png","angry",1,5,5,"gist","scaleRev","earth","orientDef",NA,NA
"","","","","","html-slider-response",135,463195,"0.0-129.0","9df2e9v9t2",13,NA,"<div style=""width:500px;"">
                            <p style=""font-size:50px; font-weight:bold;""
                            >angry</p>
                            <div style=""width:240px; margin: auto;"">
                                <img src=""images/map02_berlin_scaleRev_orientMir_000.png"" style= ""width:200px""alt=""img"">
                            </div>
                        </div>",0.785,"",0,"",NA,"","images/map02_berlin_scaleRev_orientMir_000.png","angry",1,2,2,"berlin","orientMir","scaleRev","000",NA,NA
"","","","","","html-slider-response",136,465597,"0.0-130.0","9df2e9v9t2",13,NA,"<div style=""width:500px;"">
                            <p style=""font-size:50px; font-weight:bold;""
                            >angry</p>
                            <div style=""width:240px; margin: auto;"">
                                <img src=""images/map12_Reds_scaleDef_orientDef_090.png"" style= ""width:200px""alt=""img"">
                            </div>
                        </div>",1,"",0,"",NA,"","images/map12_Reds_scaleDef_orientDef_090.png","angry",1,12,12,"Reds","orientDef","scaleDef","090",NA,NA
"","","","","","html-slider-response",137,467662,"0.0-131.0","9df2e9v9t2",13,NA,"<div style=""width:500px;"">
                            <p style=""font-size:50px; font-weight:bold;""
                            >angry</p>
                            <div style=""width:240px; margin: auto;"">
                                <img src=""images/map23_PRGn_scaleDef_orientMir_090.png"" style= ""width:200px""alt=""img"">
                            </div>
                        </div>",0.375,"",0,"",NA,"","images/map23_PRGn_scaleDef_orientMir_090.png","angry",1,23,23,"PRGn","orientMir","scaleDef","090",NA,NA
"","","","","","html-slider-response",138,469746,"0.0-132.0","9df2e9v9t2",13,NA,"<div style=""width:500px;"">
                            <p style=""font-size:50px; font-weight:bold;""
                            >angry</p>
                            <div style=""width:240px; margin: auto;"">
                                <img src=""images/map27_coolwarm_scaleRev_orientMir_180.png"" style= ""width:200px""alt=""img"">
                            </div>
                        </div>",0.6275,"",0,"",NA,"","images/map27_coolwarm_scaleRev_orientMir_180.png","angry",1,27,27,"coolwarm","orientMir","scaleRev","180",NA,NA
"","","","","","html-slider-response",139,471378,"0.0-133.0","9df2e9v9t2",13,NA,"<div style=""width:500px;"">
                            <p style=""font-size:50px; font-weight:bold;""
                            >angry</p>
                            <div style=""width:240px; margin: auto;"">
                                <img src=""images/map26_RdBu_scaleRev_orientMir_180.png"" style= ""width:200px""alt=""img"">
                            </div>
                        </div>",0.73,"",0,"",NA,"","images/map26_RdBu_scaleRev_orientMir_180.png","angry",1,26,26,"RdBu","orientMir","scaleRev","180",NA,NA
"","","","","","html-slider-response",140,473061,"0.0-134.0","9df2e9v9t2",13,NA,"<div style=""width:500px;"">
                            <p style=""font-size:50px; font-weight:bold;""
                            >angry</p>
                            <div style=""width:240px; margin: auto;"">
                                <img src=""images/map23_BuGn_scaleRev_orientDef_000.png"" style= ""width:200px""alt=""img"">
                            </div>
                        </div>",0.4175,"",0,"",NA,"","images/map23_BuGn_scaleRev_orientDef_000.png","angry",1,23,23,"BuGn","orientDef","scaleRev","000",NA,NA
"","","","","","html-slider-response",141,474564,"0.0-135.0","9df2e9v9t2",13,NA,"<div style=""width:500px;"">
                            <p style=""font-size:50px; font-weight:bold;""
                            >angry</p>
                            <div style=""width:240px; margin: auto;"">
                                <img src=""images/map05_viridis_scaleRev_orientMir_180.png"" style= ""width:200px""alt=""img"">
                            </div>
                        </div>",0.735,"",0,"",NA,"","images/map05_viridis_scaleRev_orientMir_180.png","angry",1,5,5,"viridis","orientMir","scaleRev","180",NA,NA
"","","","","","html-slider-response",142,476430,"0.0-136.0","9df2e9v9t2",13,NA,"<div style=""width:500px;"">
                            <p style=""font-size:50px; font-weight:bold;""
                            >angry</p>
                            <div style=""width:240px; margin: auto;"">
                                <img src=""images/map12_YlOrRd_scaleRev_orientMir_180.png"" style= ""width:200px""alt=""img"">
                            </div>
                        </div>",0.895,"",0,"",NA,"","images/map12_YlOrRd_scaleRev_orientMir_180.png","angry",1,12,12,"YlOrRd","orientMir","scaleRev","180",NA,NA
"","","","","","html-button-response",143,479085,"0.0-137.0","9df2e9v9t2",13,2152,"<p>You are doing great!<br></br> You are halway done with the current block. When you are ready to continue, click the 'Continue' button.</p>",0.5,"",NA,"",NA,"","","",NA,NA,NA,"","","","",NA,NA
"","","","","","html-slider-response",144,480481,"0.0-138.0","9df2e9v9t2",13,NA,"<div style=""width:500px;"">
                            <p style=""font-size:50px; font-weight:bold;""
                            >angry</p>
                            <div style=""width:240px; margin: auto;"">
                                <img src=""images/map12_Reds_scaleRev_orientDef_180.png"" style= ""width:200px""alt=""img"">
                            </div>
                        </div>",1,"",0,"",NA,"","images/map12_Reds_scaleRev_orientDef_180.png","angry",1,12,12,"Reds","orientDef","scaleRev","180",NA,NA
"","","","","","html-slider-response",145,482295,"0.0-139.0","9df2e9v9t2",13,NA,"<div style=""width:500px;"">
                            <p style=""font-size:50px; font-weight:bold;""
                            >angry</p>
                            <div style=""width:240px; margin: auto;"">
                                <img src=""images/map12_OrRd_scaleDef_orientMir_270.png"" style= ""width:200px""alt=""img"">
                            </div>
                        </div>",1,"",0,"",NA,"","images/map12_OrRd_scaleDef_orientMir_270.png","angry",1,12,12,"OrRd","orientMir","scaleDef","270",NA,NA
"","","","","","html-slider-response",146,484045,"0.0-140.0","9df2e9v9t2",13,NA,"<div style=""width:500px;"">
                            <p style=""font-size:50px; font-weight:bold;""
                            >angry</p>
                            <div style=""width:240px; margin: auto;"">
                                <img src=""images/map23_PRGn_scaleRev_orientMir_180.png"" style= ""width:200px""alt=""img"">
                            </div>
                        </div>",0.725,"",0,"",NA,"","images/map23_PRGn_scaleRev_orientMir_180.png","angry",1,23,23,"PRGn","orientMir","scaleRev","180",NA,NA
"","","","","","html-slider-response",147,485530,"0.0-141.0","9df2e9v9t2",13,NA,"<div style=""width:500px;"">
                            <p style=""font-size:50px; font-weight:bold;""
                            >angry</p>
                            <div style=""width:240px; margin: auto;"">
                                <img src=""images/map07_inferno_scaleDef_orientDef_090.png"" style= ""width:200px""alt=""img"">
                            </div>
                        </div>",1,"",0,"",NA,"","images/map07_inferno_scaleDef_orientDef_090.png","angry",1,7,7,"inferno","orientDef","scaleDef","090",NA,NA
"","","","","","html-slider-response",148,487196,"0.0-142.0","9df2e9v9t2",13,NA,"<div style=""width:500px;"">
                            <p style=""font-size:50px; font-weight:bold;""
                            >angry</p>
                            <div style=""width:240px; margin: auto;"">
                                <img src=""images/map27_RdYlGn_scaleRev_orientDef_180.png"" style= ""width:200px""alt=""img"">
                            </div>
                        </div>",0.785,"",0,"",NA,"","images/map27_RdYlGn_scaleRev_orientDef_180.png","angry",1,27,27,"RdYlGn","orientDef","scaleRev","180",NA,NA
"","","","","","html-slider-response",149,488697,"0.0-143.0","9df2e9v9t2",13,NA,"<div style=""width:500px;"">
                            <p style=""font-size:50px; font-weight:bold;""
                            >angry</p>
                            <div style=""width:240px; margin: auto;"">
                                <img src=""images/map15_BuGn_scaleDef_orientMir_270.png"" style= ""width:200px""alt=""img"">
                            </div>
                        </div>",0.3375,"",0,"",NA,"","images/map15_BuGn_scaleDef_orientMir_270.png","angry",1,15,15,"BuGn","orientMir","scaleDef","270",NA,NA
"","","","","","html-slider-response",150,490215,"0.0-144.0","9df2e9v9t2",13,NA,"<div style=""width:500px;"">
                            <p style=""font-size:50px; font-weight:bold;""
                            >angry</p>
                            <div style=""width:240px; margin: auto;"">
                                <img src=""images/map15_PuBu_scaleDef_orientDef_090.png"" style= ""width:200px""alt=""img"">
                            </div>
                        </div>",0.395,"",0,"",NA,"","images/map15_PuBu_scaleDef_orientDef_090.png","angry",1,15,15,"PuBu","orientDef","scaleDef","090",NA,NA
"","","","","","html-slider-response",151,491848,"0.0-145.0","9df2e9v9t2",13,NA,"<div style=""width:500px;"">
                            <p style=""font-size:50px; font-weight:bold;""
                            >angry</p>
                            <div style=""width:240px; margin: auto;"">
                                <img src=""images/map05_vanimo_scaleRev_orientDef_000.png"" style= ""width:200px""alt=""img"">
                            </div>
                        </div>",1,"",0,"",NA,"","images/map05_vanimo_scaleRev_orientDef_000.png","angry",1,5,5,"vanimo","orientDef","scaleRev","000",NA,NA
"","","","","","html-slider-response",152,493929,"0.0-146.0","9df2e9v9t2",13,NA,"<div style=""width:500px;"">
                            <p style=""font-size:50px; font-weight:bold;""
                            >angry</p>
                            <div style=""width:240px; margin: auto;"">
                                <img src=""images/map10_Blues_scaleDef_orientDef_270.png"" style= ""width:200px""alt=""img"">
                            </div>
                        </div>",0.1025,"",0,"",NA,"","images/map10_Blues_scaleDef_orientDef_270.png","angry",1,10,10,"Blues","orientDef","scaleDef","270",NA,NA
"","","","","","html-slider-response",153,495596,"0.0-147.0","9df2e9v9t2",13,NA,"<div style=""width:500px;"">
                            <p style=""font-size:50px; font-weight:bold;""
                            >angry</p>
                            <div style=""width:240px; margin: auto;"">
                                <img src=""images/map15_GnBu_scaleRev_orientDef_000.png"" style= ""width:200px""alt=""img"">
                            </div>
                        </div>",0.0775,"",0,"",NA,"","images/map15_GnBu_scaleRev_orientDef_000.png","angry",1,15,15,"GnBu","orientDef","scaleRev","000",NA,NA
"","","","","","html-slider-response",154,497130,"0.0-148.0","9df2e9v9t2",13,NA,"<div style=""width:500px;"">
                            <p style=""font-size:50px; font-weight:bold;""
                            >angry</p>
                            <div style=""width:240px; margin: auto;"">
                                <img src=""images/map07_cividis_scaleRev_orientMir_180.png"" style= ""width:200px""alt=""img"">
                            </div>
                        </div>",0.615,"",0,"",NA,"","images/map07_cividis_scaleRev_orientMir_180.png","angry",1,7,7,"cividis","orientMir","scaleRev","180",NA,NA
"","","","","","html-slider-response",155,498628,"0.0-149.0","9df2e9v9t2",13,NA,"<div style=""width:500px;"">
                            <p style=""font-size:50px; font-weight:bold;""
                            >angry</p>
                            <div style=""width:240px; margin: auto;"">
                                <img src=""images/map13_BuPu_scaleRev_orientMir_180.png"" style= ""width:200px""alt=""img"">
                            </div>
                        </div>",1,"",0,"",NA,"","images/map13_BuPu_scaleRev_orientMir_180.png","angry",1,13,13,"BuPu","orientMir","scaleRev","180",NA,NA
"","","","","","html-slider-response",156,500462,"0.0-150.0","9df2e9v9t2",13,NA,"<div style=""width:500px;"">
                            <p style=""font-size:50px; font-weight:bold;""
                            >angry</p>
                            <div style=""width:240px; margin: auto;"">
                                <img src=""images/map27_coolwarm_scaleDef_orientMir_090.png"" style= ""width:200px""alt=""img"">
                            </div>
                        </div>",0.8125,"",0,"",NA,"","images/map27_coolwarm_scaleDef_orientMir_090.png","angry",1,27,27,"coolwarm","orientMir","scaleDef","090",NA,NA
"","","","","","html-slider-response",157,502446,"0.0-151.0","9df2e9v9t2",13,NA,"<div style=""width:500px;"">
                            <p style=""font-size:50px; font-weight:bold;""
                            >angry</p>
                            <div style=""width:240px; margin: auto;"">
                                <img src=""images/map23_PiYG_scaleDef_orientDef_270.png"" style= ""width:200px""alt=""img"">
                            </div>
                        </div>",0.35,"",0,"",NA,"","images/map23_PiYG_scaleDef_orientDef_270.png","angry",1,23,23,"PiYG","orientDef","scaleDef","270",NA,NA
"","","","","","html-slider-response",158,503914,"0.0-152.0","9df2e9v9t2",13,NA,"<div style=""width:500px;"">
                            <p style=""font-size:50px; font-weight:bold;""
                            >angry</p>
                            <div style=""width:240px; margin: auto;"">
                                <img src=""images/map27_Spectral_scaleRev_orientMir_000.png"" style= ""width:200px""alt=""img"">
                            </div>
                        </div>",0.7025,"",0,"",NA,"","images/map27_Spectral_scaleRev_orientMir_000.png","angry",1,27,27,"Spectral","orientMir","scaleRev","000",NA,NA
"","","","","","html-slider-response",159,505398,"0.0-153.0","9df2e9v9t2",13,NA,"<div style=""width:500px;"">
                            <p style=""font-size:50px; font-weight:bold;""
                            >angry</p>
                            <div style=""width:240px; margin: auto;"">
                                <img src=""images/map26_BrBG_scaleRev_orientDef_000.png"" style= ""width:200px""alt=""img"">
                            </div>
                        </div>",0.6275,"",0,"",NA,"","images/map26_BrBG_scaleRev_orientDef_000.png","angry",1,26,26,"BrBG","orientDef","scaleRev","000",NA,NA
"","","","","","html-slider-response",160,506828,"0.0-154.0","9df2e9v9t2",13,NA,"<div style=""width:500px;"">
                            <p style=""font-size:50px; font-weight:bold;""
                            >angry</p>
                            <div style=""width:240px; margin: auto;"">
                                <img src=""images/map13_PuRd_scaleRev_orientDef_180.png"" style= ""width:200px""alt=""img"">
                            </div>
                        </div>",0.405,"",0,"",NA,"","images/map13_PuRd_scaleRev_orientDef_180.png","angry",1,13,13,"PuRd","orientDef","scaleRev","180",NA,NA
"","","","","","html-slider-response",161,508266,"0.0-155.0","9df2e9v9t2",13,NA,"<div style=""width:500px;"">
                            <p style=""font-size:50px; font-weight:bold;""
                            >angry</p>
                            <div style=""width:240px; margin: auto;"">
                                <img src=""images/map02_managua_scaleRev_orientMir_180.png"" style= ""width:200px""alt=""img"">
                            </div>
                        </div>",0.6125,"",0,"",NA,"","images/map02_managua_scaleRev_orientMir_180.png","angry",1,2,2,"managua","orientMir","scaleRev","180",NA,NA
"","","","","","html-slider-response",162,509479,"0.0-156.0","9df2e9v9t2",13,NA,"<div style=""width:500px;"">
                            <p style=""font-size:50px; font-weight:bold;""
                            >angry</p>
                            <div style=""width:240px; margin: auto;"">
                                <img src=""images/map10_Greens_scaleRev_orientMir_180.png"" style= ""width:200px""alt=""img"">
                            </div>
                        </div>",0.4225,"",0,"",NA,"","images/map10_Greens_scaleRev_orientMir_180.png","angry",1,10,10,"Greens","orientMir","scaleRev","180",NA,NA
"","","","","","html-slider-response",163,510930,"0.0-157.0","9df2e9v9t2",13,NA,"<div style=""width:500px;"">
                            <p style=""font-size:50px; font-weight:bold;""
                            >angry</p>
                            <div style=""width:240px; margin: auto;"">
                                <img src=""images/map12_Oranges_scaleRev_orientDef_000.png"" style= ""width:200px""alt=""img"">
                            </div>
