"success","timeout","failed_images","failed_audio","failed_video","trial_type","trial_index","time_elapsed","internal_node_id","subject_id","condition_num","rt","stimulus","response","question_order","slider_start","practiceTrial","practiceTrialNum","correct","image_path","concept","repetition","map_id","map_num","scale_name","orientation_code","mapping_code","rotation_code","ishihara_plate","correct_response"
"true","false","[]","[]","[]","preload",0,960,"0.0-0.0","xdz4xvy3x2",44,NA,"",NA,"",NA,"",NA,"","","",NA,NA,NA,"","","","",NA,NA
"","","","","","html-button-response",1,119787,"0.0-1.0","xdz4xvy3x2",44,118826,"Welcome to our experiment!<p>At the bottom of this screen, you will see a button that says ""Begin Experiment"".<br>Please only click that button when you are ready to complete the 30 minute experiment in one sitting.</p><p> Once you click that button, it will not be possible to restart the experiment.",0.5,"",NA,"",NA,"","","",NA,NA,NA,"","","","",NA,NA
"true","","","","","fullscreen",2,122191,"0.0-2.0","xdz4xvy3x2",44,1398,"",NA,"",NA,"",NA,"","","",NA,NA,NA,"","","","",NA,NA
"","","","","","survey-multi-select",3,139544,"0.0-3.0","xdz4xvy3x2",44,17348,"",NA,"[0]",NA,"",NA,"","","",NA,NA,NA,"","","","",NA,NA
"","","","","","html-button-response",4,140654,"0.0-4.0","xdz4xvy3x2",44,1107,"Welcome! <p> This experiment involves two parts: demographic information, followed by the experimental task.<p> It will take about 30 minutes to complete both parts.",0.5,"",NA,"",NA,"","","",NA,NA,NA,"","","","",NA,NA
"","","","","","survey-text",5,153208,"0.0-5.0","xdz4xvy3x2",44,12531,"",NA,"",NA,"",NA,"","","",NA,NA,NA,"","","","",NA,NA
"","","","","","html-slider-response",6,174722,"0.0-6.0","xdz4xvy3x2",44,21506,"<div style='text-align:left; font-size:20px; line-height:25px; width: 1000px;'>
                                During this experiment you will be asked to rate how much you associate maps with                    different concepts.<br> Below, you can see some examples of the maps you will be asked to rate. Above the maps
                    is the list of concepts.<br>You will be asked                    to rate how much you associate each map with each concept on a scale from 'not at all' to 'very much' like the
                    one below. <br><br>
                    Now, please look at the list of concepts and maps. For each concept, think about the map you associate 'very
                    much' with the concept.<br>                     When you see that map during the experiment, please rate it near the 'very much' endpoint of the
                    scale.<br>Now, please think about which map you associate 'not at all'                     with each concept. When you see that map during the experiment, please rate it near the 'not at all' endpoint
                    of the scale.<br>
                    Please use the full range of the scale. That is, if a map is somewhat associated with the concept, you would
                    click partway between the middle point and right side of the scale.                    You will be asked to rate each map for a given concept before moving on to the next concept.<br>Press the
                    'Continue' button for instructions on how to use the slider.                    <br>
                </div>

                <div style=""width: 500px; margin: 0 auto;"">
                    <!-- Centered text paragraphs -->
                    <div style=""text-align: center; width: 500px;"">
                        <p style=""font-size:25px; line-height:15px;"">
                            sad&nbsp;&nbsp;&nbsp;&nbsp;
                            angry&nbsp;&nbsp;&nbsp;&nbsp;
                            fearful&nbsp;&nbsp;&nbsp;&nbsp;
                            disgust&nbsp;&nbsp;&nbsp;&nbsp;
                            happy
                        </p>
                        <!-- <p style=""font-size:20px; line-height:15px;"">angry</p>
                        <p style=""font-size:20px;line-height:15px;"">fearful</p>
                        <p style=""font-size:20px;line-height:15px;"">disgust</p>
                        <p style=""font-size:20px;line-height:15px;"">happy</p> -->
                    </div>
            

                    <!-- Grid section -->
                   <div style=""display: flex; justify-content: center; padding-top: 15px;"">
                    <div style=""display: grid; grid-template-columns: repeat(10, 55px); grid-gap: 5px; width: auto;"">
                        <img src=""images/map26_YlOrBr_scaleRev_orientDef_270.png"" alt=""map"" style=""width: 100%;""><img src=""images/map26_OrRd_scaleRev_orientMir_270.png"" alt=""map"" style=""width: 100%;""><img src=""images/map15_magma_scaleRev_orientDef_270.png"" alt=""map"" style=""width: 100%;""><img src=""images/map23_Greens_scaleDef_orientMir_000.png"" alt=""map"" style=""width: 100%;""><img src=""images/map23_Blues_scaleRev_orientDef_270.png"" alt=""map"" style=""width: 100%;""><img src=""images/map07_RdYlBu_scaleRev_orientMir_270.png"" alt=""map"" style=""width: 100%;""><img src=""images/map02_PuBu_scaleDef_orientDef_000.png"" alt=""map"" style=""width: 100%;""><img src=""images/map05_PiYG_scaleRev_orientDef_270.png"" alt=""map"" style=""width: 100%;""><img src=""images/map05_BrBG_scaleDef_orientMir_180.png"" alt=""map"" style=""width: 100%;""><img src=""images/map10_Spectral_scaleRev_orientDef_270.png"" alt=""map"" style=""width: 100%;""><img src=""images/map05_YlGn_scaleDef_orientDef_000.png"" alt=""map"" style=""width: 100%;""><img src=""images/map02_PuBuGn_scaleDef_orientMir_000.png"" alt=""map"" style=""width: 100%;""><img src=""images/map13_plasma_scaleRev_orientMir_270.png"" alt=""map"" style=""width: 100%;""><img src=""images/map27_RdPu_scaleDef_orientDef_180.png"" alt=""map"" style=""width: 100%;""><img src=""images/map12_berlin_scaleDef_orientDef_180.png"" alt=""map"" style=""width: 100%;""><img src=""images/map27_BuPu_scaleDef_orientMir_000.png"" alt=""map"" style=""width: 100%;""><img src=""images/map27_PuRd_scaleDef_orientDef_000.png"" alt=""map"" style=""width: 100%;""><img src=""images/map02_YlGnBu_scaleRev_orientDef_270.png"" alt=""map"" style=""width: 100%;""><img src=""images/map02_BuGn_scaleRev_orientMir_270.png"" alt=""map"" style=""width: 100%;""><img src=""images/map10_bwr_scaleRev_orientMir_270.png"" alt=""map"" style=""width: 100%;""><img src=""images/map15_cividis_scaleDef_orientMir_000.png"" alt=""map"" style=""width: 100%;""><img src=""images/map05_PRGn_scaleDef_orientMir_000.png"" alt=""map"" style=""width: 100%;""><img src=""images/map13_turbo_scaleRev_orientDef_270.png"" alt=""map"" style=""width: 100%;""><img src=""images/map07_PuOr_scaleRev_orientDef_090.png"" alt=""map"" style=""width: 100%;""><img src=""images/map07_RdBu_scaleDef_orientMir_000.png"" alt=""map"" style=""width: 100%;""><img src=""images/map27_GnBu_scaleRev_orientMir_270.png"" alt=""map"" style=""width: 100%;""><img src=""images/map23_Purples_scaleDef_orientDef_000.png"" alt=""map"" style=""width: 100%;""><img src=""images/map26_YlOrRd_scaleRev_orientMir_090.png"" alt=""map"" style=""width: 100%;""><img src=""images/map13_gist_earth_scaleDef_orientDef_000.png"" alt=""map"" style=""width: 100%;""><img src=""images/map15_Greys_scaleRev_orientMir_270.png"" alt=""map"" style=""width: 100%;""><img src=""images/map13_viridis_scaleRev_orientMir_090.png"" alt=""map"" style=""width: 100%;""><img src=""images/map26_Reds_scaleRev_orientDef_090.png"" alt=""map"" style=""width: 100%;""><img src=""images/map10_RdYlGn_scaleRev_orientDef_090.png"" alt=""map"" style=""width: 100%;""><img src=""images/map12_vanimo_scaleDef_orientMir_180.png"" alt=""map"" style=""width: 100%;""><img src=""images/map07_RdGy_scaleRev_orientDef_270.png"" alt=""map"" style=""width: 100%;""><img src=""images/map10_coolwarm_scaleRev_orientMir_090.png"" alt=""map"" style=""width: 100%;""><img src=""images/map12_seismic_scaleDef_orientDef_000.png"" alt=""map"" style=""width: 100%;""><img src=""images/map15_inferno_scaleDef_orientDef_000.png"" alt=""map"" style=""width: 100%;""><img src=""images/map12_managua_scaleDef_orientMir_000.png"" alt=""map"" style=""width: 100%;""><img src=""images/map23_Oranges_scaleRev_orientMir_270.png"" alt=""map"" style=""width: 100%;"">
                    </div>
                </div>

                    <!-- Clear floats -->
                    <div style=""clear: both;""></div>
                </div>
                            ",NA,"",0,"true",NA,"","","",NA,NA,NA,"","","","",NA,NA
"","","","","","html-button-response",7,178222,"0.0-7.0","xdz4xvy3x2",44,3499,"<div style=""width:800px;""><p style=""text-align:left"">To move the slider, click and drag your cursor to the location of the scale where you would like to make your rating and then let go. When you let go of the slider, your response will be recorded and the next trial will begin. <br>
                    We are interested in your initial impressions of each map for the given concept, so please go with your first intuition. <br>
                    Before you begin the experiment, there will be four training trials for you to practice using the scale. <br>
                     When you are ready to start the training trials, please click ""Continue"".</p><br></div>",0.5,"",NA,"",NA,"","","",NA,NA,NA,"","","","",NA,NA
"","","","","","html-slider-response",8,182134,"0.0-8.0-0.0","xdz4xvy3x2",44,NA,"<div style=""width:500px;"">
                                    <p style=""font-size:25px;"">Please move the slider all the way to the <br> right endpoint of the scale</p>

                                    </div>
                                </div>",1,"",0,"true",0,"true","","",NA,NA,NA,"","","","",NA,NA
"","","","","","html-button-response",9,183370,"0.0-8.0-1.0","xdz4xvy3x2",44,735,"<p align='center'><b>Good job!</b> Click on 'Continue' to proceed.</p>",0.5,"",NA,"",NA,"","","",NA,NA,NA,"","","","",NA,NA
"","","","","","html-slider-response",10,184584,"0.0-9.0-0.0","xdz4xvy3x2",44,NA,"<div style=""width:500px;"">
                                    <p style=""font-size:25px;"">Please move the slider all the way to the <br> left endpoint of the scale</p>

                                    </div>
                                </div>",0,"",0,"true",1,"true","","",NA,NA,NA,"","","","",NA,NA
"","","","","","html-button-response",11,185588,"0.0-9.0-1.0","xdz4xvy3x2",44,503,"<p align='center'><b>Good job!</b> Click on 'Continue' to proceed.</p>",0.5,"",NA,"",NA,"","","",NA,NA,NA,"","","","",NA,NA
"","","","","","html-slider-response",12,190564,"0.0-10.0-0.0","xdz4xvy3x2",44,NA,"<div style=""width:500px;"">
                                    <p style=""font-size:25px;"">Please move the slider halfway between the center and right endpoint of the scale</p>

                                    </div>
                                </div>",0.765,"",0,"true",2,"true","","",NA,NA,NA,"","","","",NA,NA
"","","","","","html-button-response",13,191771,"0.0-10.0-1.0","xdz4xvy3x2",44,705,"<p align='center'><b>Good job!</b> Click on 'Continue' to proceed.</p>",0.5,"",NA,"",NA,"","","",NA,NA,NA,"","","","",NA,NA
"","","","","","html-slider-response",14,194182,"0.0-11.0-0.0","xdz4xvy3x2",44,NA,"<div style=""width:500px;"">
                                    <p style=""font-size:25px;"">Please move the slider halfway between the center and left endpoint of the scale</p>

                                    </div>
                                </div>",0.2275,"",0,"true",3,"true","","",NA,NA,NA,"","","","",NA,NA
"","","","","","html-button-response",15,195137,"0.0-11.0-1.0","xdz4xvy3x2",44,453,"<p align='center'><b>Good job!</b> Click on 'Continue' to proceed.</p>",0.5,"",NA,"",NA,"","","",NA,NA,NA,"","","","",NA,NA
"","","","","","html-button-response",16,196370,"0.0-12.0","xdz4xvy3x2",44,1232,"<p>Great job! You've completed the practice trials. Now you will begin the main task.</p>",0.5,"",NA,"",NA,"","","",NA,NA,NA,"","","","",NA,NA
"","","","","","html-button-response",17,198371,"0.0-13.0","xdz4xvy3x2",44,1999,"<p>In this block of trials, you will be asked to rate how much you associate each map with:</p > <p style = 'font-size:150%; font-weight: bold'>sad</p><br></br>",0.5,"",NA,"",NA,"","","",NA,NA,NA,"","","","",NA,NA
"","","","","","html-slider-response",18,209714,"0.0-14.0","xdz4xvy3x2",44,NA,"<div style=""width:500px;"">
                            <p style=""font-size:50px; font-weight:bold;""
                            >sad</p>
                            <div style=""width:240px; margin: auto;"">
                                <img src=""images/map07_RdBu_scaleRev_orientMir_090.png"" style= ""width:200px""alt=""img"">
                            </div>
                        </div>",0.4975,"",0,"",NA,"","images/map07_RdBu_scaleRev_orientMir_090.png","sad",1,7,7,"RdBu","orientMir","scaleRev","090",NA,NA
"","","","","","html-slider-response",19,248849,"0.0-15.0","xdz4xvy3x2",44,NA,"<div style=""width:500px;"">
                            <p style=""font-size:50px; font-weight:bold;""
                            >sad</p>
                            <div style=""width:240px; margin: auto;"">
                                <img src=""images/map10_Spectral_scaleDef_orientDef_180.png"" style= ""width:200px""alt=""img"">
                            </div>
                        </div>",0.1175,"",0,"",NA,"","images/map10_Spectral_scaleDef_orientDef_180.png","sad",1,10,10,"Spectral","orientDef","scaleDef","180",NA,NA
"","","","","","html-slider-response",20,251198,"0.0-16.0","xdz4xvy3x2",44,NA,"<div style=""width:500px;"">
                            <p style=""font-size:50px; font-weight:bold;""
                            >sad</p>
                            <div style=""width:240px; margin: auto;"">
                                <img src=""images/map12_berlin_scaleDef_orientDef_180.png"" style= ""width:200px""alt=""img"">
                            </div>
                        </div>",0.615,"",0,"",NA,"","images/map12_berlin_scaleDef_orientDef_180.png","sad",1,12,12,"berlin","orientDef","scaleDef","180",NA,NA
"","","","","","html-slider-response",21,252981,"0.0-17.0","xdz4xvy3x2",44,NA,"<div style=""width:500px;"">
                            <p style=""font-size:50px; font-weight:bold;""
                            >sad</p>
                            <div style=""width:240px; margin: auto;"">
                                <img src=""images/map26_Reds_scaleDef_orientDef_000.png"" style= ""width:200px""alt=""img"">
                            </div>
                        </div>",0.605,"",0,"",NA,"","images/map26_Reds_scaleDef_orientDef_000.png","sad",1,26,26,"Reds","orientDef","scaleDef","000",NA,NA
"","","","","","html-slider-response",22,267131,"0.0-18.0","xdz4xvy3x2",44,NA,"<div style=""width:500px;"">
                            <p style=""font-size:50px; font-weight:bold;""
                            >sad</p>
                            <div style=""width:240px; margin: auto;"">
                                <img src=""images/map23_Blues_scaleRev_orientDef_270.png"" style= ""width:200px""alt=""img"">
                            </div>
                        </div>",0.7525,"",0,"",NA,"","images/map23_Blues_scaleRev_orientDef_270.png","sad",1,23,23,"Blues","orientDef","scaleRev","270",NA,NA
"","","","","","html-slider-response",23,269783,"0.0-19.0","xdz4xvy3x2",44,NA,"<div style=""width:500px;"">
                            <p style=""font-size:50px; font-weight:bold;""
                            >sad</p>
                            <div style=""width:240px; margin: auto;"">
                                <img src=""images/map10_coolwarm_scaleDef_orientMir_000.png"" style= ""width:200px""alt=""img"">
                            </div>
                        </div>",0.4675,"",0,"",NA,"","images/map10_coolwarm_scaleDef_orientMir_000.png","sad",1,10,10,"coolwarm","orientMir","scaleDef","000",NA,NA
"","","","","","html-slider-response",24,271917,"0.0-20.0","xdz4xvy3x2",44,NA,"<div style=""width:500px;"">
                            <p style=""font-size:50px; font-weight:bold;""
                            >sad</p>
                            <div style=""width:240px; margin: auto;"">
                                <img src=""images/map15_inferno_scaleRev_orientDef_090.png"" style= ""width:200px""alt=""img"">
                            </div>
                        </div>",0.69,"",0,"",NA,"","images/map15_inferno_scaleRev_orientDef_090.png","sad",1,15,15,"inferno","orientDef","scaleRev","090",NA,NA
"","","","","","html-slider-response",25,273350,"0.0-21.0","xdz4xvy3x2",44,NA,"<div style=""width:500px;"">
                            <p style=""font-size:50px; font-weight:bold;""
                            >sad</p>
                            <div style=""width:240px; margin: auto;"">
                                <img src=""images/map07_RdBu_scaleDef_orientMir_000.png"" style= ""width:200px""alt=""img"">
                            </div>
                        </div>",0.6625,"",0,"",NA,"","images/map07_RdBu_scaleDef_orientMir_000.png","sad",1,7,7,"RdBu","orientMir","scaleDef","000",NA,NA
"","","","","","html-slider-response",26,274898,"0.0-22.0","xdz4xvy3x2",44,NA,"<div style=""width:500px;"">
                            <p style=""font-size:50px; font-weight:bold;""
                            >sad</p>
                            <div style=""width:240px; margin: auto;"">
                                <img src=""images/map10_coolwarm_scaleRev_orientMir_090.png"" style= ""width:200px""alt=""img"">
                            </div>
                        </div>",0.685,"",0,"",NA,"","images/map10_coolwarm_scaleRev_orientMir_090.png","sad",1,10,10,"coolwarm","orientMir","scaleRev","090",NA,NA
"","","","","","html-slider-response",27,276498,"0.0-23.0","xdz4xvy3x2",44,NA,"<div style=""width:500px;"">
                            <p style=""font-size:50px; font-weight:bold;""
                            >sad</p>
                            <div style=""width:240px; margin: auto;"">
                                <img src=""images/map02_YlGnBu_scaleDef_orientDef_180.png"" style= ""width:200px""alt=""img"">
                            </div>
                        </div>",0.4025,"",0,"",NA,"","images/map02_YlGnBu_scaleDef_orientDef_180.png","sad",1,2,2,"YlGnBu","orientDef","scaleDef","180",NA,NA
"","","","","","html-slider-response",28,278215,"0.0-24.0","xdz4xvy3x2",44,NA,"<div style=""width:500px;"">
                            <p style=""font-size:50px; font-weight:bold;""
                            >sad</p>
                            <div style=""width:240px; margin: auto;"">
                                <img src=""images/map02_PuBuGn_scaleDef_orientMir_000.png"" style= ""width:200px""alt=""img"">
                            </div>
                        </div>",0.3575,"",0,"",NA,"","images/map02_PuBuGn_scaleDef_orientMir_000.png","sad",1,2,2,"PuBuGn","orientMir","scaleDef","000",NA,NA
"","","","","","html-slider-response",29,279848,"0.0-25.0","xdz4xvy3x2",44,NA,"<div style=""width:500px;"">
                            <p style=""font-size:50px; font-weight:bold;""
                            >sad</p>
                            <div style=""width:240px; margin: auto;"">
                                <img src=""images/map12_seismic_scaleRev_orientDef_090.png"" style= ""width:200px""alt=""img"">
                            </div>
                        </div>",0.715,"",0,"",NA,"","images/map12_seismic_scaleRev_orientDef_090.png","sad",1,12,12,"seismic","orientDef","scaleRev","090",NA,NA
"","","","","","html-slider-response",30,281515,"0.0-26.0","xdz4xvy3x2",44,NA,"<div style=""width:500px;"">
                            <p style=""font-size:50px; font-weight:bold;""
                            >sad</p>
                            <div style=""width:240px; margin: auto;"">
                                <img src=""images/map12_berlin_scaleRev_orientDef_270.png"" style= ""width:200px""alt=""img"">
                            </div>
                        </div>",0.745,"",0,"",NA,"","images/map12_berlin_scaleRev_orientDef_270.png","sad",1,12,12,"berlin","orientDef","scaleRev","270",NA,NA
"","","","","","html-slider-response",31,283248,"0.0-27.0","xdz4xvy3x2",44,NA,"<div style=""width:500px;"">
                            <p style=""font-size:50px; font-weight:bold;""
                            >sad</p>
                            <div style=""width:240px; margin: auto;"">
                                <img src=""images/map27_GnBu_scaleRev_orientMir_270.png"" style= ""width:200px""alt=""img"">
                            </div>
                        </div>",0.3525,"",0,"",NA,"","images/map27_GnBu_scaleRev_orientMir_270.png","sad",1,27,27,"GnBu","orientMir","scaleRev","270",NA,NA
"","","","","","html-slider-response",32,284782,"0.0-28.0","xdz4xvy3x2",44,NA,"<div style=""width:500px;"">
                            <p style=""font-size:50px; font-weight:bold;""
                            >sad</p>
                            <div style=""width:240px; margin: auto;"">
                                <img src=""images/map27_PuRd_scaleRev_orientDef_090.png"" style= ""width:200px""alt=""img"">
                            </div>
                        </div>",0.6675,"",0,"",NA,"","images/map27_PuRd_scaleRev_orientDef_090.png","sad",1,27,27,"PuRd","orientDef","scaleRev","090",NA,NA
"","","","","","html-slider-response",33,286198,"0.0-29.0","xdz4xvy3x2",44,NA,"<div style=""width:500px;"">
                            <p style=""font-size:50px; font-weight:bold;""
                            >sad</p>
                            <div style=""width:240px; margin: auto;"">
                                <img src=""images/map07_RdYlBu_scaleDef_orientMir_180.png"" style= ""width:200px""alt=""img"">
                            </div>
                        </div>",0.33,"",0,"",NA,"","images/map07_RdYlBu_scaleDef_orientMir_180.png","sad",1,7,7,"RdYlBu","orientMir","scaleDef","180",NA,NA
"","","","","","html-slider-response",34,287816,"0.0-30.0","xdz4xvy3x2",44,NA,"<div style=""width:500px;"">
                            <p style=""font-size:50px; font-weight:bold;""
                            >sad</p>
                            <div style=""width:240px; margin: auto;"">
                                <img src=""images/map23_Greens_scaleDef_orientMir_000.png"" style= ""width:200px""alt=""img"">
                            </div>
                        </div>",0.665,"",0,"",NA,"","images/map23_Greens_scaleDef_orientMir_000.png","sad",1,23,23,"Greens","orientMir","scaleDef","000",NA,NA
"","","","","","html-slider-response",35,289282,"0.0-31.0","xdz4xvy3x2",44,NA,"<div style=""width:500px;"">
                            <p style=""font-size:50px; font-weight:bold;""
                            >sad</p>
                            <div style=""width:240px; margin: auto;"">
                                <img src=""images/map27_BuPu_scaleDef_orientMir_000.png"" style= ""width:200px""alt=""img"">
                            </div>
                        </div>",0.6825,"",0,"",NA,"","images/map27_BuPu_scaleDef_orientMir_000.png","sad",1,27,27,"BuPu","orientMir","scaleDef","000",NA,NA
"","","","","","html-slider-response",36,290932,"0.0-32.0","xdz4xvy3x2",44,NA,"<div style=""width:500px;"">
                            <p style=""font-size:50px; font-weight:bold;""
                            >sad</p>
                            <div style=""width:240px; margin: auto;"">
                                <img src=""images/map02_BuGn_scaleDef_orientMir_180.png"" style= ""width:200px""alt=""img"">
                            </div>
                        </div>",0.385,"",0,"",NA,"","images/map02_BuGn_scaleDef_orientMir_180.png","sad",1,2,2,"BuGn","orientMir","scaleDef","180",NA,NA
"","","","","","html-slider-response",37,293382,"0.0-33.0","xdz4xvy3x2",44,NA,"<div style=""width:500px;"">
                            <p style=""font-size:50px; font-weight:bold;""
                            >sad</p>
                            <div style=""width:240px; margin: auto;"">
                                <img src=""images/map05_PRGn_scaleRev_orientMir_090.png"" style= ""width:200px""alt=""img"">
                            </div>
                        </div>",0.365,"",0,"",NA,"","images/map05_PRGn_scaleRev_orientMir_090.png","sad",1,5,5,"PRGn","orientMir","scaleRev","090",NA,NA
"","","","","","html-slider-response",38,294965,"0.0-34.0","xdz4xvy3x2",44,NA,"<div style=""width:500px;"">
                            <p style=""font-size:50px; font-weight:bold;""
                            >sad</p>
                            <div style=""width:240px; margin: auto;"">
                                <img src=""images/map27_BuPu_scaleRev_orientMir_090.png"" style= ""width:200px""alt=""img"">
                            </div>
                        </div>",0.61,"",0,"",NA,"","images/map27_BuPu_scaleRev_orientMir_090.png","sad",1,27,27,"BuPu","orientMir","scaleRev","090",NA,NA
"","","","","","html-slider-response",39,296298,"0.0-35.0","xdz4xvy3x2",44,NA,"<div style=""width:500px;"">
                            <p style=""font-size:50px; font-weight:bold;""
                            >sad</p>
                            <div style=""width:240px; margin: auto;"">
                                <img src=""images/map10_RdYlGn_scaleRev_orientDef_090.png"" style= ""width:200px""alt=""img"">
                            </div>
                        </div>",0.615,"",0,"",NA,"","images/map10_RdYlGn_scaleRev_orientDef_090.png","sad",1,10,10,"RdYlGn","orientDef","scaleRev","090",NA,NA
"","","","","","html-slider-response",40,298215,"0.0-36.0","xdz4xvy3x2",44,NA,"<div style=""width:500px;"">
                            <p style=""font-size:50px; font-weight:bold;""
                            >sad</p>
                            <div style=""width:240px; margin: auto;"">
                                <img src=""images/map12_vanimo_scaleRev_orientMir_270.png"" style= ""width:200px""alt=""img"">
                            </div>
                        </div>",0.725,"",0,"",NA,"","images/map12_vanimo_scaleRev_orientMir_270.png","sad",1,12,12,"vanimo","orientMir","scaleRev","270",NA,NA
"","","","","","html-slider-response",41,299815,"0.0-37.0","xdz4xvy3x2",44,NA,"<div style=""width:500px;"">
                            <p style=""font-size:50px; font-weight:bold;""
                            >sad</p>
                            <div style=""width:240px; margin: auto;"">
                                <img src=""images/map07_RdYlBu_scaleRev_orientMir_270.png"" style= ""width:200px""alt=""img"">
                            </div>
                        </div>",0.785,"",0,"",NA,"","images/map07_RdYlBu_scaleRev_orientMir_270.png","sad",1,7,7,"RdYlBu","orientMir","scaleRev","270",NA,NA
"","","","","","html-slider-response",42,301882,"0.0-38.0","xdz4xvy3x2",44,NA,"<div style=""width:500px;"">
                            <p style=""font-size:50px; font-weight:bold;""
                            >sad</p>
                            <div style=""width:240px; margin: auto;"">
                                <img src=""images/map15_Greys_scaleRev_orientMir_270.png"" style= ""width:200px""alt=""img"">
                            </div>
                        </div>",0.4675,"",0,"",NA,"","images/map15_Greys_scaleRev_orientMir_270.png","sad",1,15,15,"Greys","orientMir","scaleRev","270",NA,NA
"","","","","","html-slider-response",43,303300,"0.0-39.0","xdz4xvy3x2",44,NA,"<div style=""width:500px;"">
                            <p style=""font-size:50px; font-weight:bold;""
                            >sad</p>
                            <div style=""width:240px; margin: auto;"">
                                <img src=""images/map26_YlOrBr_scaleRev_orientDef_270.png"" style= ""width:200px""alt=""img"">
                            </div>
                        </div>",0.74,"",0,"",NA,"","images/map26_YlOrBr_scaleRev_orientDef_270.png","sad",1,26,26,"YlOrBr","orientDef","scaleRev","270",NA,NA
"","","","","","html-slider-response",44,304865,"0.0-40.0","xdz4xvy3x2",44,NA,"<div style=""width:500px;"">
                            <p style=""font-size:50px; font-weight:bold;""
                            >sad</p>
                            <div style=""width:240px; margin: auto;"">
                                <img src=""images/map13_gist_earth_scaleRev_orientDef_090.png"" style= ""width:200px""alt=""img"">
                            </div>
                        </div>",0.455,"",0,"",NA,"","images/map13_gist_earth_scaleRev_orientDef_090.png","sad",1,13,13,"gist","scaleRev","earth","orientDef",NA,NA
"","","","","","html-slider-response",45,315365,"0.0-41.0","xdz4xvy3x2",44,NA,"<div style=""width:500px;"">
                            <p style=""font-size:50px; font-weight:bold;""
                            >sad</p>
                            <div style=""width:240px; margin: auto;"">
                                <img src=""images/map05_BrBG_scaleDef_orientMir_180.png"" style= ""width:200px""alt=""img"">
                            </div>
                        </div>",0.4225,"",0,"",NA,"","images/map05_BrBG_scaleDef_orientMir_180.png","sad",1,5,5,"BrBG","orientMir","scaleDef","180",NA,NA
"","","","","","html-slider-response",46,320500,"0.0-42.0","xdz4xvy3x2",44,NA,"<div style=""width:500px;"">
                            <p style=""font-size:50px; font-weight:bold;""
                            >sad</p>
                            <div style=""width:240px; margin: auto;"">
                                <img src=""images/map07_RdGy_scaleRev_orientDef_270.png"" style= ""width:200px""alt=""img"">
                            </div>
                        </div>",0.63,"",0,"",NA,"","images/map07_RdGy_scaleRev_orientDef_270.png","sad",1,7,7,"RdGy","orientDef","scaleRev","270",NA,NA
"","","","","","html-slider-response",47,322648,"0.0-43.0","xdz4xvy3x2",44,NA,"<div style=""width:500px;"">
                            <p style=""font-size:50px; font-weight:bold;""
                            >sad</p>
                            <div style=""width:240px; margin: auto;"">
                                <img src=""images/map15_inferno_scaleDef_orientDef_000.png"" style= ""width:200px""alt=""img"">
                            </div>
                        </div>",0.865,"",0,"",NA,"","images/map15_inferno_scaleDef_orientDef_000.png","sad",1,15,15,"inferno","orientDef","scaleDef","000",NA,NA
"","","","","","html-slider-response",48,324583,"0.0-44.0","xdz4xvy3x2",44,NA,"<div style=""width:500px;"">
                            <p style=""font-size:50px; font-weight:bold;""
                            >sad</p>
                            <div style=""width:240px; margin: auto;"">
                                <img src=""images/map13_turbo_scaleRev_orientDef_270.png"" style= ""width:200px""alt=""img"">
                            </div>
                        </div>",0.695,"",0,"",NA,"","images/map13_turbo_scaleRev_orientDef_270.png","sad",1,13,13,"turbo","orientDef","scaleRev","270",NA,NA
"","","","","","html-slider-response",49,326118,"0.0-45.0","xdz4xvy3x2",44,NA,"<div style=""width:500px;"">
                            <p style=""font-size:50px; font-weight:bold;""
                            >sad</p>
                            <div style=""width:240px; margin: auto;"">
                                <img src=""images/map05_YlGn_scaleRev_orientDef_090.png"" style= ""width:200px""alt=""img"">
                            </div>
                        </div>",0.3275,"",0,"",NA,"","images/map05_YlGn_scaleRev_orientDef_090.png","sad",1,5,5,"YlGn","orientDef","scaleRev","090",NA,NA
"","","","","","html-slider-response",50,327715,"0.0-46.0","xdz4xvy3x2",44,NA,"<div style=""width:500px;"">
                            <p style=""font-size:50px; font-weight:bold;""
                            >sad</p>
                            <div style=""width:240px; margin: auto;"">
                                <img src=""images/map12_vanimo_scaleDef_orientMir_180.png"" style= ""width:200px""alt=""img"">
                            </div>
                        </div>",0.26,"",0,"",NA,"","images/map12_vanimo_scaleDef_orientMir_180.png","sad",1,12,12,"vanimo","orientMir","scaleDef","180",NA,NA
"","","","","","html-slider-response",51,329198,"0.0-47.0","xdz4xvy3x2",44,NA,"<div style=""width:500px;"">
                            <p style=""font-size:50px; font-weight:bold;""
                            >sad</p>
                            <div style=""width:240px; margin: auto;"">
                                <img src=""images/map26_YlOrRd_scaleDef_orientMir_000.png"" style= ""width:200px""alt=""img"">
                            </div>
                        </div>",0.735,"",0,"",NA,"","images/map26_YlOrRd_scaleDef_orientMir_000.png","sad",1,26,26,"YlOrRd","orientMir","scaleDef","000",NA,NA
"","","","","","html-slider-response",52,330715,"0.0-48.0","xdz4xvy3x2",44,NA,"<div style=""width:500px;"">
                            <p style=""font-size:50px; font-weight:bold;""
                            >sad</p>
                            <div style=""width:240px; margin: auto;"">
                                <img src=""images/map12_managua_scaleDef_orientMir_000.png"" style= ""width:200px""alt=""img"">
                            </div>
                        </div>",0.685,"",0,"",NA,"","images/map12_managua_scaleDef_orientMir_000.png","sad",1,12,12,"managua","orientMir","scaleDef","000",NA,NA
"","","","","","html-slider-response",53,332632,"0.0-49.0","xdz4xvy3x2",44,NA,"<div style=""width:500px;"">
                            <p style=""font-size:50px; font-weight:bold;""
                            >sad</p>
                            <div style=""width:240px; margin: auto;"">
                                <img src=""images/map05_BrBG_scaleRev_orientMir_270.png"" style= ""width:200px""alt=""img"">
                            </div>
                        </div>",0.2875,"",0,"",NA,"","images/map05_BrBG_scaleRev_orientMir_270.png","sad",1,5,5,"BrBG","orientMir","scaleRev","270",NA,NA
"","","","","","html-slider-response",54,333932,"0.0-50.0","xdz4xvy3x2",44,NA,"<div style=""width:500px;"">
                            <p style=""font-size:50px; font-weight:bold;""
                            >sad</p>
                            <div style=""width:240px; margin: auto;"">
                                <img src=""images/map23_Oranges_scaleRev_orientMir_270.png"" style= ""width:200px""alt=""img"">
                            </div>
                        </div>",0.815,"",0,"",NA,"","images/map23_Oranges_scaleRev_orientMir_270.png","sad",1,23,23,"Oranges","orientMir","scaleRev","270",NA,NA
"","","","","","html-slider-response",55,335166,"0.0-51.0","xdz4xvy3x2",44,NA,"<div style=""width:500px;"">
                            <p style=""font-size:50px; font-weight:bold;""
                            >sad</p>
                            <div style=""width:240px; margin: auto;"">
                                <img src=""images/map26_OrRd_scaleRev_orientMir_270.png"" style= ""width:200px""alt=""img"">
                            </div>
                        </div>",0.625,"",0,"",NA,"","images/map26_OrRd_scaleRev_orientMir_270.png","sad",1,26,26,"OrRd","orientMir","scaleRev","270",NA,NA
"","","","","","html-slider-response",56,336448,"0.0-52.0","xdz4xvy3x2",44,NA,"<div style=""width:500px;"">
                            <p style=""font-size:50px; font-weight:bold;""
                            >sad</p>
                            <div style=""width:240px; margin: auto;"">
                                <img src=""images/map02_BuGn_scaleRev_orientMir_270.png"" style= ""width:200px""alt=""img"">
                            </div>
                        </div>",0.275,"",0,"",NA,"","images/map02_BuGn_scaleRev_orientMir_270.png","sad",1,2,2,"BuGn","orientMir","scaleRev","270",NA,NA
"","","","","","html-slider-response",57,337767,"0.0-53.0","xdz4xvy3x2",44,NA,"<div style=""width:500px;"">
                            <p style=""font-size:50px; font-weight:bold;""
                            >sad</p>
                            <div style=""width:240px; margin: auto;"">
                                <img src=""images/map12_managua_scaleRev_orientMir_090.png"" style= ""width:200px""alt=""img"">
                            </div>
                        </div>",0.7075,"",0,"",NA,"","images/map12_managua_scaleRev_orientMir_090.png","sad",1,12,12,"managua","orientMir","scaleRev","090",NA,NA
"","","","","","html-button-response",58,341371,"0.0-54.0","xdz4xvy3x2",44,3103,"<p>You are doing great!<br></br> You are halway done with the current block. When you are ready to continue, click the 'Continue' button.</p>",0.5,"",NA,"",NA,"","","",NA,NA,NA,"","","","",NA,NA
"","","","","","html-slider-response",59,342718,"0.0-55.0","xdz4xvy3x2",44,NA,"<div style=""width:500px;"">
                            <p style=""font-size:50px; font-weight:bold;""
                            >sad</p>
                            <div style=""width:240px; margin: auto;"">
                                <img src=""images/map15_cividis_scaleDef_orientMir_000.png"" style= ""width:200px""alt=""img"">
                            </div>
                        </div>",0.3375,"",0,"",NA,"","images/map15_cividis_scaleDef_orientMir_000.png","sad",1,15,15,"cividis","orientMir","scaleDef","000",NA,NA
"","","","","","html-slider-response",60,345115,"0.0-56.0","xdz4xvy3x2",44,NA,"<div style=""width:500px;"">
                            <p style=""font-size:50px; font-weight:bold;""
                            >sad</p>
                            <div style=""width:240px; margin: auto;"">
                                <img src=""images/map05_PiYG_scaleDef_orientDef_180.png"" style= ""width:200px""alt=""img"">
                            </div>
                        </div>",0.3075,"",0,"",NA,"","images/map05_PiYG_scaleDef_orientDef_180.png","sad",1,5,5,"PiYG","orientDef","scaleDef","180",NA,NA
"","","","","","html-slider-response",61,384915,"0.0-57.0","xdz4xvy3x2",44,NA,"<div style=""width:500px;"">
                            <p style=""font-size:50px; font-weight:bold;""
                            >sad</p>
                            <div style=""width:240px; margin: auto;"">
                                <img src=""images/map10_bwr_scaleRev_orientMir_270.png"" style= ""width:200px""alt=""img"">
                            </div>
                        </div>",0.8275,"",0,"",NA,"","images/map10_bwr_scaleRev_orientMir_270.png","sad",1,10,10,"bwr","orientMir","scaleRev","270",NA,NA
"","","","","","html-slider-response",62,386516,"0.0-58.0","xdz4xvy3x2",44,NA,"<div style=""width:500px;"">
                            <p style=""font-size:50px; font-weight:bold;""
                            >sad</p>
                            <div style=""width:240px; margin: auto;"">
                                <img src=""images/map10_RdYlGn_scaleDef_orientDef_000.png"" style= ""width:200px""alt=""img"">
                            </div>
                        </div>",0.3675,"",0,"",NA,"","images/map10_RdYlGn_scaleDef_orientDef_000.png","sad",1,10,10,"RdYlGn","orientDef","scaleDef","000",NA,NA
"","","","","","html-slider-response",63,388117,"0.0-59.0","xdz4xvy3x2",44,NA,"<div style=""width:500px;"">
                            <p style=""font-size:50px; font-weight:bold;""
                            >sad</p>
                            <div style=""width:240px; margin: auto;"">
                                <img src=""images/map23_Purples_scaleDef_orientDef_000.png"" style= ""width:200px""alt=""img"">
                            </div>
                        </div>",0.2725,"",0,"",NA,"","images/map23_Purples_scaleDef_orientDef_000.png","sad",1,23,23,"Purples","orientDef","scaleDef","000",NA,NA
"","","","","","html-slider-response",64,389615,"0.0-60.0","xdz4xvy3x2",44,NA,"<div style=""width:500px;"">
                            <p style=""font-size:50px; font-weight:bold;""
                            >sad</p>
                            <div style=""width:240px; margin: auto;"">
                                <img src=""images/map26_Reds_scaleRev_orientDef_090.png"" style= ""width:200px""alt=""img"">
                            </div>
                        </div>",0.8675,"",0,"",NA,"","images/map26_Reds_scaleRev_orientDef_090.png","sad",1,26,26,"Reds","orientDef","scaleRev","090",NA,NA
"","","","","","html-slider-response",65,391234,"0.0-61.0","xdz4xvy3x2",44,NA,"<div style=""width:500px;"">
                            <p style=""font-size:50px; font-weight:bold;""
                            >sad</p>
                            <div style=""width:240px; margin: auto;"">
                                <img src=""images/map23_Oranges_scaleDef_orientMir_180.png"" style= ""width:200px""alt=""img"">
                            </div>
                        </div>",0.77,"",0,"",NA,"","images/map23_Oranges_scaleDef_orientMir_180.png","sad",1,23,23,"Oranges","orientMir","scaleDef","180",NA,NA
"","","","","","html-slider-response",66,393065,"0.0-62.0","xdz4xvy3x2",44,NA,"<div style=""width:500px;"">
                            <p style=""font-size:50px; font-weight:bold;""
                            >sad</p>
                            <div style=""width:240px; margin: auto;"">
                                <img src=""images/map02_YlGnBu_scaleRev_orientDef_270.png"" style= ""width:200px""alt=""img"">
                            </div>
                        </div>",0.2775,"",0,"",NA,"","images/map02_YlGnBu_scaleRev_orientDef_270.png","sad",1,2,2,"YlGnBu","orientDef","scaleRev","270",NA,NA
"","","","","","html-slider-response",67,394599,"0.0-63.0","xdz4xvy3x2",44,NA,"<div style=""width:500px;"">
                            <p style=""font-size:50px; font-weight:bold;""
                            >sad</p>
                            <div style=""width:240px; margin: auto;"">
                                <img src=""images/map07_RdGy_scaleDef_orientDef_180.png"" style= ""width:200px""alt=""img"">
                            </div>
                        </div>",0.605,"",0,"",NA,"","images/map07_RdGy_scaleDef_orientDef_180.png","sad",1,7,7,"RdGy","orientDef","scaleDef","180",NA,NA
"","","","","","html-slider-response",68,397816,"0.0-64.0","xdz4xvy3x2",44,NA,"<div style=""width:500px;"">
                            <p style=""font-size:50px; font-weight:bold;""
                            >sad</p>
                            <div style=""width:240px; margin: auto;"">
                                <img src=""images/map13_turbo_scaleDef_orientDef_180.png"" style= ""width:200px""alt=""img"">
                            </div>
                        </div>",0.735,"",0,"",NA,"","images/map13_turbo_scaleDef_orientDef_180.png","sad",1,13,13,"turbo","orientDef","scaleDef","180",NA,NA
"","","","","","html-slider-response",69,403834,"0.0-65.0","xdz4xvy3x2",44,NA,"<div style=""width:500px;"">
                            <p style=""font-size:50px; font-weight:bold;""
                            >sad</p>
                            <div style=""width:240px; margin: auto;"">
                                <img src=""images/map26_YlOrRd_scaleRev_orientMir_090.png"" style= ""width:200px""alt=""img"">
                            </div>
                        </div>",0.7725,"",0,"",NA,"","images/map26_YlOrRd_scaleRev_orientMir_090.png","sad",1,26,26,"YlOrRd","orientMir","scaleRev","090",NA,NA
"","","","","","html-slider-response",70,405832,"0.0-66.0","xdz4xvy3x2",44,NA,"<div style=""width:500px;"">
                            <p style=""font-size:50px; font-weight:bold;""
                            >sad</p>
                            <div style=""width:240px; margin: auto;"">
                                <img src=""images/map10_Spectral_scaleRev_orientDef_270.png"" style= ""width:200px""alt=""img"">
                            </div>
                        </div>",0.5925,"",0,"",NA,"","images/map10_Spectral_scaleRev_orientDef_270.png","sad",1,10,10,"Spectral","orientDef","scaleRev","270",NA,NA
"","","","","","html-slider-response",71,408350,"0.0-67.0","xdz4xvy3x2",44,NA,"<div style=""width:500px;"">
                            <p style=""font-size:50px; font-weight:bold;""
                            >sad</p>
                            <div style=""width:240px; margin: auto;"">
                                <img src=""images/map13_plasma_scaleDef_orientMir_180.png"" style= ""width:200px""alt=""img"">
                            </div>
                        </div>",0.815,"",0,"",NA,"","images/map13_plasma_scaleDef_orientMir_180.png","sad",1,13,13,"plasma","orientMir","scaleDef","180",NA,NA
"","","","","","html-slider-response",72,419798,"0.0-68.0","xdz4xvy3x2",44,NA,"<div style=""width:500px;"">
                            <p style=""font-size:50px; font-weight:bold;""
                            >sad</p>
                            <div style=""width:240px; margin: auto;"">
                                <img src=""images/map05_PRGn_scaleDef_orientMir_000.png"" style= ""width:200px""alt=""img"">
                            </div>
                        </div>",0.725,"",0,"",NA,"","images/map05_PRGn_scaleDef_orientMir_000.png","sad",1,5,5,"PRGn","orientMir","scaleDef","000",NA,NA
"","","","","","html-slider-response",73,421516,"0.0-69.0","xdz4xvy3x2",44,NA,"<div style=""width:500px;"">
                            <p style=""font-size:50px; font-weight:bold;""
                            >sad</p>
                            <div style=""width:240px; margin: auto;"">
                                <img src=""images/map15_magma_scaleDef_orientDef_180.png"" style= ""width:200px""alt=""img"">
                            </div>
                        </div>",0.7975,"",0,"",NA,"","images/map15_magma_scaleDef_orientDef_180.png","sad",1,15,15,"magma","orientDef","scaleDef","180",NA,NA
"","","","","","html-slider-response",74,423582,"0.0-70.0","xdz4xvy3x2",44,NA,"<div style=""width:500px;"">
                            <p style=""font-size:50px; font-weight:bold;""
                            >sad</p>
                            <div style=""width:240px; margin: auto;"">
                                <img src=""images/map13_plasma_scaleRev_orientMir_270.png"" style= ""width:200px""alt=""img"">
                            </div>
                        </div>",0.635,"",0,"",NA,"","images/map13_plasma_scaleRev_orientMir_270.png","sad",1,13,13,"plasma","orientMir","scaleRev","270",NA,NA
"","","","","","html-slider-response",75,425932,"0.0-71.0","xdz4xvy3x2",44,NA,"<div style=""width:500px;"">
                            <p style=""font-size:50px; font-weight:bold;""
                            >sad</p>
                            <div style=""width:240px; margin: auto;"">
                                <img src=""images/map26_OrRd_scaleDef_orientMir_180.png"" style= ""width:200px""alt=""img"">
                            </div>
                        </div>",0.6775,"",0,"",NA,"","images/map26_OrRd_scaleDef_orientMir_180.png","sad",1,26,26,"OrRd","orientMir","scaleDef","180",NA,NA
"","","","","","html-slider-response",76,433166,"0.0-72.0","xdz4xvy3x2",44,NA,"<div style=""width:500px;"">
                            <p style=""font-size:50px; font-weight:bold;""
                            >sad</p>
                            <div style=""width:240px; margin: auto;"">
                                <img src=""images/map12_seismic_scaleDef_orientDef_000.png"" style= ""width:200px""alt=""img"">
                            </div>
                        </div>",0.775,"",0,"",NA,"","images/map12_seismic_scaleDef_orientDef_000.png","sad",1,12,12,"seismic","orientDef","scaleDef","000",NA,NA
"","","","","","html-slider-response",77,435632,"0.0-73.0","xdz4xvy3x2",44,NA,"<div style=""width:500px;"">
                            <p style=""font-size:50px; font-weight:bold;""
                            >sad</p>
                            <div style=""width:240px; margin: auto;"">
                                <img src=""images/map02_PuBu_scaleRev_orientDef_090.png"" style= ""width:200px""alt=""img"">
                            </div>
                        </div>",0.705,"",0,"",NA,"","images/map02_PuBu_scaleRev_orientDef_090.png","sad",1,2,2,"PuBu","orientDef","scaleRev","090",NA,NA
"","","","","","html-slider-response",78,437866,"0.0-74.0","xdz4xvy3x2",44,NA,"<div style=""width:500px;"">
                            <p style=""font-size:50px; font-weight:bold;""
                            >sad</p>
                            <div style=""width:240px; margin: auto;"">
                                <img src=""images/map27_RdPu_scaleRev_orientDef_270.png"" style= ""width:200px""alt=""img"">
                            </div>
                        </div>",0.75,"",0,"",NA,"","images/map27_RdPu_scaleRev_orientDef_270.png","sad",1,27,27,"RdPu","orientDef","scaleRev","270",NA,NA
"","","","","","html-slider-response",79,440532,"0.0-75.0","xdz4xvy3x2",44,NA,"<div style=""width:500px;"">
                            <p style=""font-size:50px; font-weight:bold;""
                            >sad</p>
                            <div style=""width:240px; margin: auto;"">
                                <img src=""images/map13_viridis_scaleDef_orientMir_000.png"" style= ""width:200px""alt=""img"">
                            </div>
                        </div>",0.755,"",0,"",NA,"","images/map13_viridis_scaleDef_orientMir_000.png","sad",1,13,13,"viridis","orientMir","scaleDef","000",NA,NA
"","","","","","html-slider-response",80,445817,"0.0-76.0","xdz4xvy3x2",44,NA,"<div style=""width:500px;"">
                            <p style=""font-size:50px; font-weight:bold;""
                            >sad</p>
                            <div style=""width:240px; margin: auto;"">
                                <img src=""images/map02_PuBu_scaleDef_orientDef_000.png"" style= ""width:200px""alt=""img"">
                            </div>
                        </div>",0.2875,"",0,"",NA,"","images/map02_PuBu_scaleDef_orientDef_000.png","sad",1,2,2,"PuBu","orientDef","scaleDef","000",NA,NA
"","","","","","html-slider-response",81,457366,"0.0-77.0","xdz4xvy3x2",44,NA,"<div style=""width:500px;"">
                            <p style=""font-size:50px; font-weight:bold;""
                            >sad</p>
                            <div style=""width:240px; margin: auto;"">
                                <img src=""images/map15_cividis_scaleRev_orientMir_090.png"" style= ""width:200px""alt=""img"">
                            </div>
                        </div>",0.2575,"",0,"",NA,"","images/map15_cividis_scaleRev_orientMir_090.png","sad",1,15,15,"cividis","orientMir","scaleRev","090",NA,NA
"","","","","","html-slider-response",82,467999,"0.0-78.0","xdz4xvy3x2",44,NA,"<div style=""width:500px;"">
                            <p style=""font-size:50px; font-weight:bold;""
                            >sad</p>
                            <div style=""width:240px; margin: auto;"">
                                <img src=""images/map15_Greys_scaleDef_orientMir_180.png"" style= ""width:200px""alt=""img"">
                            </div>
                        </div>",0.175,"",0,"",NA,"","images/map15_Greys_scaleDef_orientMir_180.png","sad",1,15,15,"Greys","orientMir","scaleDef","180",NA,NA
"","","","","","html-slider-response",83,472083,"0.0-79.0","xdz4xvy3x2",44,NA,"<div style=""width:500px;"">
                            <p style=""font-size:50px; font-weight:bold;""
                            >sad</p>
                            <div style=""width:240px; margin: auto;"">
                                <img src=""images/map23_Blues_scaleDef_orientDef_180.png"" style= ""width:200px""alt=""img"">
                            </div>
                        </div>",0.715,"",0,"",NA,"","images/map23_Blues_scaleDef_orientDef_180.png","sad",1,23,23,"Blues","orientDef","scaleDef","180",NA,NA
"","","","","","html-slider-response",84,473766,"0.0-80.0","xdz4xvy3x2",44,NA,"<div style=""width:500px;"">
                            <p style=""font-size:50px; font-weight:bold;""
                            >sad</p>
                            <div style=""width:240px; margin: auto;"">
                                <img src=""images/map27_PuRd_scaleDef_orientDef_000.png"" style= ""width:200px""alt=""img"">
                            </div>
                        </div>",0.8475,"",0,"",NA,"","images/map27_PuRd_scaleDef_orientDef_000.png","sad",1,27,27,"PuRd","orientDef","scaleDef","000",NA,NA
"","","","","","html-slider-response",85,475382,"0.0-81.0","xdz4xvy3x2",44,NA,"<div style=""width:500px;"">
                            <p style=""font-size:50px; font-weight:bold;""
                            >sad</p>
                            <div style=""width:240px; margin: auto;"">
                                <img src=""images/map26_YlOrBr_scaleDef_orientDef_180.png"" style= ""width:200px""alt=""img"">
                            </div>
                        </div>",0.7775,"",0,"",NA,"","images/map26_YlOrBr_scaleDef_orientDef_180.png","sad",1,26,26,"YlOrBr","orientDef","scaleDef","180",NA,NA
"","","","","","html-slider-response",86,477017,"0.0-82.0","xdz4xvy3x2",44,NA,"<div style=""width:500px;"">
                            <p style=""font-size:50px; font-weight:bold;""
                            >sad</p>
                            <div style=""width:240px; margin: auto;"">
                                <img src=""images/map27_RdPu_scaleDef_orientDef_180.png"" style= ""width:200px""alt=""img"">
                            </div>
                        </div>",0.7125,"",0,"",NA,"","images/map27_RdPu_scaleDef_orientDef_180.png","sad",1,27,27,"RdPu","orientDef","scaleDef","180",NA,NA
"","","","","","html-slider-response",87,479283,"0.0-83.0","xdz4xvy3x2",44,NA,"<div style=""width:500px;"">
                            <p style=""font-size:50px; font-weight:bold;""
                            >sad</p>
                            <div style=""width:240px; margin: auto;"">
                                <img src=""images/map05_YlGn_scaleDef_orientDef_000.png"" style= ""width:200px""alt=""img"">
                            </div>
                        </div>",0.2575,"",0,"",NA,"","images/map05_YlGn_scaleDef_orientDef_000.png","sad",1,5,5,"YlGn","orientDef","scaleDef","000",NA,NA
"","","","","","html-slider-response",88,480816,"0.0-84.0","xdz4xvy3x2",44,NA,"<div style=""width:500px;"">
                            <p style=""font-size:50px; font-weight:bold;""
                            >sad</p>
                            <div style=""width:240px; margin: auto;"">
                                <img src=""images/map15_magma_scaleRev_orientDef_270.png"" style= ""width:200px""alt=""img"">
                            </div>
                        </div>",0.205,"",0,"",NA,"","images/map15_magma_scaleRev_orientDef_270.png","sad",1,15,15,"magma","orientDef","scaleRev","270",NA,NA
"","","","","","html-slider-response",89,482333,"0.0-85.0","xdz4xvy3x2",44,NA,"<div style=""width:500px;"">
                            <p style=""font-size:50px; font-weight:bold;""
                            >sad</p>
                            <div style=""width:240px; margin: auto;"">
                                <img src=""images/map05_PiYG_scaleRev_orientDef_270.png"" style= ""width:200px""alt=""img"">
                            </div>
                        </div>",0.225,"",0,"",NA,"","images/map05_PiYG_scaleRev_orientDef_270.png","sad",1,5,5,"PiYG","orientDef","scaleRev","270",NA,NA
"","","","","","html-slider-response",90,483853,"0.0-86.0","xdz4xvy3x2",44,NA,"<div style=""width:500px;"">
                            <p style=""font-size:50px; font-weight:bold;""
                            >sad</p>
                            <div style=""width:240px; margin: auto;"">
                                <img src=""images/map13_gist_earth_scaleDef_orientDef_000.png"" style= ""width:200px""alt=""img"">
                            </div>
                        </div>",0.2475,"",0,"",NA,"","images/map13_gist_earth_scaleDef_orientDef_000.png","sad",1,13,13,"gist","scaleDef","earth","orientDef",NA,NA
"","","","","","html-slider-response",91,485166,"0.0-87.0","xdz4xvy3x2",44,NA,"<div style=""width:500px;"">
                            <p style=""font-size:50px; font-weight:bold;""
                            >sad</p>
                            <div style=""width:240px; margin: auto;"">
                                <img src=""images/map23_Purples_scaleRev_orientDef_090.png"" style= ""width:200px""alt=""img"">
                            </div>
                        </div>",0.78,"",0,"",NA,"","images/map23_Purples_scaleRev_orientDef_090.png","sad",1,23,23,"Purples","orientDef","scaleRev","090",NA,NA
"","","","","","html-slider-response",92,486534,"0.0-88.0","xdz4xvy3x2",44,NA,"<div style=""width:500px;"">
                            <p style=""font-size:50px; font-weight:bold;""
                            >sad</p>
                            <div style=""width:240px; margin: auto;"">
                                <img src=""images/map10_bwr_scaleDef_orientMir_180.png"" style= ""width:200px""alt=""img"">
                            </div>
                        </div>",0.79,"",0,"",NA,"","images/map10_bwr_scaleDef_orientMir_180.png","sad",1,10,10,"bwr","orientMir","scaleDef","180",NA,NA
"","","","","","html-slider-response",93,488533,"0.0-89.0","xdz4xvy3x2",44,NA,"<div style=""width:500px;"">
                            <p style=""font-size:50px; font-weight:bold;""
                            >sad</p>
                            <div style=""width:240px; margin: auto;"">
                                <img src=""images/map27_GnBu_scaleDef_orientMir_180.png"" style= ""width:200px""alt=""img"">
                            </div>
                        </div>",0.195,"",0,"",NA,"","images/map27_GnBu_scaleDef_orientMir_180.png","sad",1,27,27,"GnBu","orientMir","scaleDef","180",NA,NA
"","","","","","html-slider-response",94,491084,"0.0-90.0","xdz4xvy3x2",44,NA,"<div style=""width:500px;"">
                            <p style=""font-size:50px; font-weight:bold;""
                            >sad</p>
                            <div style=""width:240px; margin: auto;"">
                                <img src=""images/map13_viridis_scaleRev_orientMir_090.png"" style= ""width:200px""alt=""img"">
                            </div>
                        </div>",0.755,"",0,"",NA,"","images/map13_viridis_scaleRev_orientMir_090.png","sad",1,13,13,"viridis","orientMir","scaleRev","090",NA,NA
"","","","","","html-slider-response",95,492716,"0.0-91.0","xdz4xvy3x2",44,NA,"<div style=""width:500px;"">
                            <p style=""font-size:50px; font-weight:bold;""
                            >sad</p>
                            <div style=""width:240px; margin: auto;"">
                                <img src=""images/map07_PuOr_scaleRev_orientDef_090.png"" style= ""width:200px""alt=""img"">
                            </div>
                        </div>",0.4025,"",0,"",NA,"","images/map07_PuOr_scaleRev_orientDef_090.png","sad",1,7,7,"PuOr","orientDef","scaleRev","090",NA,NA
"","","","","","html-slider-response",96,494299,"0.0-92.0","xdz4xvy3x2",44,NA,"<div style=""width:500px;"">
                            <p style=""font-size:50px; font-weight:bold;""
                            >sad</p>
                            <div style=""width:240px; margin: auto;"">
                                <img src=""images/map23_Greens_scaleRev_orientMir_090.png"" style= ""width:200px""alt=""img"">
                            </div>
                        </div>",0.6175,"",0,"",NA,"","images/map23_Greens_scaleRev_orientMir_090.png","sad",1,23,23,"Greens","orientMir","scaleRev","090",NA,NA
"","","","","","html-slider-response",97,495734,"0.0-93.0","xdz4xvy3x2",44,NA,"<div style=""width:500px;"">
                            <p style=""font-size:50px; font-weight:bold;""
                            >sad</p>
                            <div style=""width:240px; margin: auto;"">
                                <img src=""images/map02_PuBuGn_scaleRev_orientMir_090.png"" style= ""width:200px""alt=""img"">
                            </div>
                        </div>",0.6675,"",0,"",NA,"","images/map02_PuBuGn_scaleRev_orientMir_090.png","sad",1,2,2,"PuBuGn","orientMir","scaleRev","090",NA,NA
"","","","","","html-slider-response",98,497418,"0.0-94.0","xdz4xvy3x2",44,NA,"<div style=""width:500px;"">
                            <p style=""font-size:50px; font-weight:bold;""
                            >sad</p>
                            <div style=""width:240px; margin: auto;"">
                                <img src=""images/map07_PuOr_scaleDef_orientDef_000.png"" style= ""width:200px""alt=""img"">
                            </div>
                        </div>",0.255,"",0,"",NA,"","images/map07_PuOr_scaleDef_orientDef_000.png","sad",1,7,7,"PuOr","orientDef","scaleDef","000",NA,NA
"","","","","","html-button-response",99,502106,"0.0-95.0","xdz4xvy3x2",44,4186,"<p>Great Job! You've finished block 1.<br></br> You have 4 block(s) left to go.<br></br></p>",0.5,"",NA,"",NA,"","","",NA,NA,NA,"","","","",NA,NA
"","","","","","html-button-response",100,504473,"0.0-96.0","xdz4xvy3x2",44,2366,"<p>In this block of trials, you will be asked to rate how much you associate each map with:</p > <p style = 'font-size:150%; font-weight: bold'>angry</p><br></br>",0.5,"",NA,"",NA,"","","",NA,NA,NA,"","","","",NA,NA
"","","","","","html-slider-response",101,506016,"0.0-97.0","xdz4xvy3x2",44,NA,"<div style=""width:500px;"">
                            <p style=""font-size:50px; font-weight:bold;""
                            >angry</p>
                            <div style=""width:240px; margin: auto;"">
                                <img src=""images/map26_YlOrBr_scaleRev_orientDef_270.png"" style= ""width:200px""alt=""img"">
                            </div>
                        </div>",0.81,"",0,"",NA,"","images/map26_YlOrBr_scaleRev_orientDef_270.png","angry",1,26,26,"YlOrBr","orientDef","scaleRev","270",NA,NA
"","","","","","html-slider-response",102,507869,"0.0-98.0","xdz4xvy3x2",44,NA,"<div style=""width:500px;"">
                            <p style=""font-size:50px; font-weight:bold;""
                            >angry</p>
                            <div style=""width:240px; margin: auto;"">
                                <img src=""images/map07_RdBu_scaleDef_orientMir_000.png"" style= ""width:200px""alt=""img"">
                            </div>
                        </div>",0.28,"",0,"",NA,"","images/map07_RdBu_scaleDef_orientMir_000.png","angry",1,7,7,"RdBu","orientMir","scaleDef","000",NA,NA
"","","","","","html-slider-response",103,510116,"0.0-99.0","xdz4xvy3x2",44,NA,"<div style=""width:500px;"">
                            <p style=""font-size:50px; font-weight:bold;""
                            >angry</p>
                            <div style=""width:240px; margin: auto;"">
                                <img src=""images/map10_Spectral_scaleRev_orientDef_270.png"" style= ""width:200px""alt=""img"">
                            </div>
                        </div>",0.745,"",0,"",NA,"","images/map10_Spectral_scaleRev_orientDef_270.png","angry",1,10,10,"Spectral","orientDef","scaleRev","270",NA,NA
"","","","","","html-slider-response",104,514367,"0.0-100.0","xdz4xvy3x2",44,NA,"<div style=""width:500px;"">
                            <p style=""font-size:50px; font-weight:bold;""
                            >angry</p>
                            <div style=""width:240px; margin: auto;"">
                                <img src=""images/map10_RdYlGn_scaleRev_orientDef_090.png"" style= ""width:200px""alt=""img"">
                            </div>
                        </div>",0.78,"",0,"",NA,"","images/map10_RdYlGn_scaleRev_orientDef_090.png","angry",1,10,10,"RdYlGn","orientDef","scaleRev","090",NA,NA
"","","","","","html-slider-response",105,525852,"0.0-101.0","xdz4xvy3x2",44,NA,"<div style=""width:500px;"">
                            <p style=""font-size:50px; font-weight:bold;""
                            >angry</p>
                            <div style=""width:240px; margin: auto;"">
                                <img src=""images/map13_gist_earth_scaleDef_orientDef_000.png"" style= ""width:200px""alt=""img"">
                            </div>
                        </div>",0.8075,"",0,"",NA,"","images/map13_gist_earth_scaleDef_orientDef_000.png","angry",1,13,13,"gist","scaleDef","earth","orientDef",NA,NA
"","","","","","html-slider-response",106,527499,"0.0-102.0","xdz4xvy3x2",44,NA,"<div style=""width:500px;"">
                            <p style=""font-size:50px; font-weight:bold;""
                            >angry</p>
                            <div style=""width:240px; margin: auto;"">
                                <img src=""images/map15_Greys_scaleDef_orientMir_180.png"" style= ""width:200px""alt=""img"">
                            </div>
                        </div>",0.24,"",0,"",NA,"","images/map15_Greys_scaleDef_orientMir_180.png","angry",1,15,15,"Greys","orientMir","scaleDef","180",NA,NA
"","","","","","html-slider-response",107,529417,"0.0-103.0","xdz4xvy3x2",44,NA,"<div style=""width:500px;"">
                            <p style=""font-size:50px; font-weight:bold;""
                            >angry</p>
                            <div style=""width:240px; margin: auto;"">
                                <img src=""images/map27_BuPu_scaleDef_orientMir_000.png"" style= ""width:200px""alt=""img"">
                            </div>
                        </div>",0.7,"",0,"",NA,"","images/map27_BuPu_scaleDef_orientMir_000.png","angry",1,27,27,"BuPu","orientMir","scaleDef","000",NA,NA
"","","","","","html-slider-response",108,531384,"0.0-104.0","xdz4xvy3x2",44,NA,"<div style=""width:500px;"">
                            <p style=""font-size:50px; font-weight:bold;""
                            >angry</p>
                            <div style=""width:240px; margin: auto;"">
                                <img src=""images/map12_berlin_scaleRev_orientDef_270.png"" style= ""width:200px""alt=""img"">
                            </div>
                        </div>",0.775,"",0,"",NA,"","images/map12_berlin_scaleRev_orientDef_270.png","angry",1,12,12,"berlin","orientDef","scaleRev","270",NA,NA
"","","","","","html-slider-response",109,534169,"0.0-105.0","xdz4xvy3x2",44,NA,"<div style=""width:500px;"">
                            <p style=""font-size:50px; font-weight:bold;""
                            >angry</p>
                            <div style=""width:240px; margin: auto;"">
                                <img src=""images/map26_YlOrBr_scaleDef_orientDef_180.png"" style= ""width:200px""alt=""img"">
                            </div>
                        </div>",0.71,"",0,"",NA,"","images/map26_YlOrBr_scaleDef_orientDef_180.png","angry",1,26,26,"YlOrBr","orientDef","scaleDef","180",NA,NA
"","","","","","html-slider-response",110,535751,"0.0-106.0","xdz4xvy3x2",44,NA,"<div style=""width:500px;"">
                            <p style=""font-size:50px; font-weight:bold;""
                            >angry</p>
                            <div style=""width:240px; margin: auto;"">
                                <img src=""images/map27_RdPu_scaleDef_orientDef_180.png"" style= ""width:200px""alt=""img"">
                            </div>
                        </div>",0.75,"",0,"",NA,"","images/map27_RdPu_scaleDef_orientDef_180.png","angry",1,27,27,"RdPu","orientDef","scaleDef","180",NA,NA
"","","","","","html-slider-response",111,537800,"0.0-107.0","xdz4xvy3x2",44,NA,"<div style=""width:500px;"">
                            <p style=""font-size:50px; font-weight:bold;""
                            >angry</p>
                            <div style=""width:240px; margin: auto;"">
                                <img src=""images/map23_Purples_scaleRev_orientDef_090.png"" style= ""width:200px""alt=""img"">
                            </div>
                        </div>",0.3825,"",0,"",NA,"","images/map23_Purples_scaleRev_orientDef_090.png","angry",1,23,23,"Purples","orientDef","scaleRev","090",NA,NA
"","","","","","html-slider-response",112,539350,"0.0-108.0","xdz4xvy3x2",44,NA,"<div style=""width:500px;"">
                            <p style=""font-size:50px; font-weight:bold;""
                            >angry</p>
                            <div style=""width:240px; margin: auto;"">
                                <img src=""images/map13_turbo_scaleDef_orientDef_180.png"" style= ""width:200px""alt=""img"">
                            </div>
                        </div>",0.6975,"",0,"",NA,"","images/map13_turbo_scaleDef_orientDef_180.png","angry",1,13,13,"turbo","orientDef","scaleDef","180",NA,NA
"","","","","","html-slider-response",113,540750,"0.0-109.0","xdz4xvy3x2",44,NA,"<div style=""width:500px;"">
                            <p style=""font-size:50px; font-weight:bold;""
                            >angry</p>
                            <div style=""width:240px; margin: auto;"">
                                <img src=""images/map07_RdGy_scaleDef_orientDef_180.png"" style= ""width:200px""alt=""img"">
                            </div>
                        </div>",0.595,"",0,"",NA,"","images/map07_RdGy_scaleDef_orientDef_180.png","angry",1,7,7,"RdGy","orientDef","scaleDef","180",NA,NA
"","","","","","html-slider-response",114,542285,"0.0-110.0","xdz4xvy3x2",44,NA,"<div style=""width:500px;"">
                            <p style=""font-size:50px; font-weight:bold;""
                            >angry</p>
                            <div style=""width:240px; margin: auto;"">
                                <img src=""images/map23_Greens_scaleDef_orientMir_000.png"" style= ""width:200px""alt=""img"">
                            </div>
                        </div>",0.2625,"",0,"",NA,"","images/map23_Greens_scaleDef_orientMir_000.png","angry",1,23,23,"Greens","orientMir","scaleDef","000",NA,NA
"","","","","","html-slider-response",115,547050,"0.0-111.0","xdz4xvy3x2",44,NA,"<div style=""width:500px;"">
                            <p style=""font-size:50px; font-weight:bold;""
                            >angry</p>
                            <div style=""width:240px; margin: auto;"">
                                <img src=""images/map10_coolwarm_scaleDef_orientMir_000.png"" style= ""width:200px""alt=""img"">
                            </div>
                        </div>",0.635,"",0,"",NA,"","images/map10_coolwarm_scaleDef_orientMir_000.png","angry",1,10,10,"coolwarm","orientMir","scaleDef","000",NA,NA
"","","","","","html-slider-response",116,866836,"0.0-112.0","xdz4xvy3x2",44,NA,"<div style=""width:500px;"">
                            <p style=""font-size:50px; font-weight:bold;""
                            >angry</p>
                            <div style=""width:240px; margin: auto;"">
                                <img src=""images/map27_GnBu_scaleRev_orientMir_270.png"" style= ""width:200px""alt=""img"">
                            </div>
                        </div>",0.725,"",0,"",NA,"","images/map27_GnBu_scaleRev_orientMir_270.png","angry",1,27,27,"GnBu","orientMir","scaleRev","270",NA,NA
"","","","","","html-slider-response",117,868035,"0.0-113.0","xdz4xvy3x2",44,NA,"<div style=""width:500px;"">
                            <p style=""font-size:50px; font-weight:bold;""
                            >angry</p>
                            <div style=""width:240px; margin: auto;"">
                                <img src=""images/map15_magma_scaleRev_orientDef_270.png"" style= ""width:200px""alt=""img"">
                            </div>
                        </div>",0.7525,"",0,"",NA,"","images/map15_magma_scaleRev_orientDef_270.png","angry",1,15,15,"magma","orientDef","scaleRev","270",NA,NA
"","","","","","html-slider-response",118,870435,"0.0-114.0","xdz4xvy3x2",44,NA,"<div style=""width:500px;"">
                            <p style=""font-size:50px; font-weight:bold;""
                            >angry</p>
                            <div style=""width:240px; margin: auto;"">
                                <img src=""images/map02_PuBu_scaleRev_orientDef_090.png"" style= ""width:200px""alt=""img"">
                            </div>
                        </div>",0.3025,"",0,"",NA,"","images/map02_PuBu_scaleRev_orientDef_090.png","angry",1,2,2,"PuBu","orientDef","scaleRev","090",NA,NA
"","","","","","html-slider-response",119,872051,"0.0-115.0","xdz4xvy3x2",44,NA,"<div style=""width:500px;"">
                            <p style=""font-size:50px; font-weight:bold;""
                            >angry</p>
                            <div style=""width:240px; margin: auto;"">
                                <img src=""images/map10_bwr_scaleDef_orientMir_180.png"" style= ""width:200px""alt=""img"">
                            </div>
                        </div>",0.8125,"",0,"",NA,"","images/map10_bwr_scaleDef_orientMir_180.png","angry",1,10,10,"bwr","orientMir","scaleDef","180",NA,NA
"","","","","","html-slider-response",120,873620,"0.0-116.0","xdz4xvy3x2",44,NA,"<div style=""width:500px;"">
                            <p style=""font-size:50px; font-weight:bold;""
                            >angry</p>
                            <div style=""width:240px; margin: auto;"">
                                <img src=""images/map02_BuGn_scaleDef_orientMir_180.png"" style= ""width:200px""alt=""img"">
                            </div>
                        </div>",0.6275,"",0,"",NA,"","images/map02_BuGn_scaleDef_orientMir_180.png","angry",1,2,2,"BuGn","orientMir","scaleDef","180",NA,NA
"","","","","","html-slider-response",121,876551,"0.0-117.0","xdz4xvy3x2",44,NA,"<div style=""width:500px;"">
                            <p style=""font-size:50px; font-weight:bold;""
                            >angry</p>
                            <div style=""width:240px; margin: auto;"">
                                <img src=""images/map05_PRGn_scaleRev_orientMir_090.png"" style= ""width:200px""alt=""img"">
                            </div>
                        </div>",0.3575,"",0,"",NA,"","images/map05_PRGn_scaleRev_orientMir_090.png","angry",1,5,5,"PRGn","orientMir","scaleRev","090",NA,NA
"","","","","","html-slider-response",122,879585,"0.0-118.0","xdz4xvy3x2",44,NA,"<div style=""width:500px;"">
                            <p style=""font-size:50px; font-weight:bold;""
                            >angry</p>
                            <div style=""width:240px; margin: auto;"">
                                <img src=""images/map07_PuOr_scaleDef_orientDef_000.png"" style= ""width:200px""alt=""img"">
                            </div>
                        </div>",0.3275,"",0,"",NA,"","images/map07_PuOr_scaleDef_orientDef_000.png","angry",1,7,7,"PuOr","orientDef","scaleDef","000",NA,NA
"","","","","","html-slider-response",123,881053,"0.0-119.0","xdz4xvy3x2",44,NA,"<div style=""width:500px;"">
                            <p style=""font-size:50px; font-weight:bold;""
                            >angry</p>
                            <div style=""width:240px; margin: auto;"">
                                <img src=""images/map05_PiYG_scaleDef_orientDef_180.png"" style= ""width:200px""alt=""img"">
                            </div>
                        </div>",0.74,"",0,"",NA,"","images/map05_PiYG_scaleDef_orientDef_180.png","angry",1,5,5,"PiYG","orientDef","scaleDef","180",NA,NA
"","","","","","html-slider-response",124,882868,"0.0-120.0","xdz4xvy3x2",44,NA,"<div style=""width:500px;"">
                            <p style=""font-size:50px; font-weight:bold;""
                            >angry</p>
                            <div style=""width:240px; margin: auto;"">
                                <img src=""images/map13_viridis_scaleRev_orientMir_090.png"" style= ""width:200px""alt=""img"">
                            </div>
                        </div>",0.6475,"",0,"",NA,"","images/map13_viridis_scaleRev_orientMir_090.png","angry",1,13,13,"viridis","orientMir","scaleRev","090",NA,NA
"","","","","","html-slider-response",125,1279243,"0.0-121.0","xdz4xvy3x2",44,NA,"<div style=""width:500px;"">
                            <p style=""font-size:50px; font-weight:bold;""
                            >angry</p>
                            <div style=""width:240px; margin: auto;"">
                                <img src=""images/map02_PuBuGn_scaleDef_orientMir_000.png"" style= ""width:200px""alt=""img"">
                            </div>
                        </div>",0.6125,"",0,"",NA,"","images/map02_PuBuGn_scaleDef_orientMir_000.png","angry",1,2,2,"PuBuGn","orientMir","scaleDef","000",NA,NA
"","","","","","html-slider-response",126,1290735,"0.0-122.0","xdz4xvy3x2",44,NA,"<div style=""width:500px;"">
                            <p style=""font-size:50px; font-weight:bold;""
                            >angry</p>
                            <div style=""width:240px; margin: auto;"">
                                <img src=""images/map12_seismic_scaleRev_orientDef_090.png"" style= ""width:200px""alt=""img"">
                            </div>
                        </div>",0.715,"",0,"",NA,"","images/map12_seismic_scaleRev_orientDef_090.png","angry",1,12,12,"seismic","orientDef","scaleRev","090",NA,NA
"","","","","","html-slider-response",127,1293150,"0.0-123.0","xdz4xvy3x2",44,NA,"<div style=""width:500px;"">
                            <p style=""font-size:50px; font-weight:bold;""
                            >angry</p>
                            <div style=""width:240px; margin: auto;"">
                                <img src=""images/map15_magma_scaleDef_orientDef_180.png"" style= ""width:200px""alt=""img"">
                            </div>
                        </div>",0.8075,"",0,"",NA,"","images/map15_magma_scaleDef_orientDef_180.png","angry",1,15,15,"magma","orientDef","scaleDef","180",NA,NA
"","","","","","html-slider-response",128,1295033,"0.0-124.0","xdz4xvy3x2",44,NA,"<div style=""width:500px;"">
                            <p style=""font-size:50px; font-weight:bold;""
                            >angry</p>
                            <div style=""width:240px; margin: auto;"">
                                <img src=""images/map23_Oranges_scaleDef_orientMir_180.png"" style= ""width:200px""alt=""img"">
                            </div>
                        </div>",0.7175,"",0,"",NA,"","images/map23_Oranges_scaleDef_orientMir_180.png","angry",1,23,23,"Oranges","orientMir","scaleDef","180",NA,NA
"","","","","","html-slider-response",129,1314118,"0.0-125.0","xdz4xvy3x2",44,NA,"<div style=""width:500px;"">
                            <p style=""font-size:50px; font-weight:bold;""
                            >angry</p>
                            <div style=""width:240px; margin: auto;"">
                                <img src=""images/map23_Oranges_scaleRev_orientMir_270.png"" style= ""width:200px""alt=""img"">
                            </div>
                        </div>",0.735,"",0,"",NA,"","images/map23_Oranges_scaleRev_orientMir_270.png","angry",1,23,23,"Oranges","orientMir","scaleRev","270",NA,NA
"","","","","","html-slider-response",130,1315702,"0.0-126.0","xdz4xvy3x2",44,NA,"<div style=""width:500px;"">
                            <p style=""font-size:50px; font-weight:bold;""
                            >angry</p>
                            <div style=""width:240px; margin: auto;"">
                                <img src=""images/map15_inferno_scaleDef_orientDef_000.png"" style= ""width:200px""alt=""img"">
                            </div>
                        </div>",0.785,"",0,"",NA,"","images/map15_inferno_scaleDef_orientDef_000.png","angry",1,15,15,"inferno","orientDef","scaleDef","000",NA,NA
"","","","","","html-slider-response",131,1334916,"0.0-127.0","xdz4xvy3x2",44,NA,"<div style=""width:500px;"">
                            <p style=""font-size:50px; font-weight:bold;""
                            >angry</p>
                            <div style=""width:240px; margin: auto;"">
                                <img src=""images/map05_BrBG_scaleRev_orientMir_270.png"" style= ""width:200px""alt=""img"">
                            </div>
                        </div>",0.32,"",0,"",NA,"","images/map05_BrBG_scaleRev_orientMir_270.png","angry",1,5,5,"BrBG","orientMir","scaleRev","270",NA,NA
"","","","","","html-slider-response",132,1336433,"0.0-128.0","xdz4xvy3x2",44,NA,"<div style=""width:500px;"">
                            <p style=""font-size:50px; font-weight:bold;""
                            >angry</p>
                            <div style=""width:240px; margin: auto;"">
                                <img src=""images/map27_RdPu_scaleRev_orientDef_270.png"" style= ""width:200px""alt=""img"">
                            </div>
                        </div>",0.725,"",0,"",NA,"","images/map27_RdPu_scaleRev_orientDef_270.png","angry",1,27,27,"RdPu","orientDef","scaleRev","270",NA,NA
"","","","","","html-slider-response",133,1339983,"0.0-129.0","xdz4xvy3x2",44,NA,"<div style=""width:500px;"">
                            <p style=""font-size:50px; font-weight:bold;""
                            >angry</p>
                            <div style=""width:240px; margin: auto;"">
                                <img src=""images/map05_PRGn_scaleDef_orientMir_000.png"" style= ""width:200px""alt=""img"">
                            </div>
                        </div>",0.2975,"",0,"",NA,"","images/map05_PRGn_scaleDef_orientMir_000.png","angry",1,5,5,"PRGn","orientMir","scaleDef","000",NA,NA
"","","","","","html-slider-response",134,1341537,"0.0-130.0","xdz4xvy3x2",44,NA,"<div style=""width:500px;"">
                            <p style=""font-size:50px; font-weight:bold;""
                            >angry</p>
                            <div style=""width:240px; margin: auto;"">
                                <img src=""images/map26_OrRd_scaleDef_orientMir_180.png"" style= ""width:200px""alt=""img"">
                            </div>
                        </div>",0.645,"",0,"",NA,"","images/map26_OrRd_scaleDef_orientMir_180.png","angry",1,26,26,"OrRd","orientMir","scaleDef","180",NA,NA
"","","","","","html-slider-response",135,1343301,"0.0-131.0","xdz4xvy3x2",44,NA,"<div style=""width:500px;"">
                            <p style=""font-size:50px; font-weight:bold;""
                            >angry</p>
                            <div style=""width:240px; margin: auto;"">
                                <img src=""images/map12_managua_scaleDef_orientMir_000.png"" style= ""width:200px""alt=""img"">
                            </div>
                        </div>",0.74,"",0,"",NA,"","images/map12_managua_scaleDef_orientMir_000.png","angry",1,12,12,"managua","orientMir","scaleDef","000",NA,NA
"","","","","","html-slider-response",136,1345218,"0.0-132.0","xdz4xvy3x2",44,NA,"<div style=""width:500px;"">
                            <p style=""font-size:50px; font-weight:bold;""
                            >angry</p>
                            <div style=""width:240px; margin: auto;"">
                                <img src=""images/map02_YlGnBu_scaleDef_orientDef_180.png"" style= ""width:200px""alt=""img"">
                            </div>
                        </div>",0.3025,"",0,"",NA,"","images/map02_YlGnBu_scaleDef_orientDef_180.png","angry",1,2,2,"YlGnBu","orientDef","scaleDef","180",NA,NA
"","","","","","html-slider-response",137,1346701,"0.0-133.0","xdz4xvy3x2",44,NA,"<div style=""width:500px;"">
                            <p style=""font-size:50px; font-weight:bold;""
                            >angry</p>
                            <div style=""width:240px; margin: auto;"">
                                <img src=""images/map26_Reds_scaleRev_orientDef_090.png"" style= ""width:200px""alt=""img"">
                            </div>
                        </div>",0.81,"",0,"",NA,"","images/map26_Reds_scaleRev_orientDef_090.png","angry",1,26,26,"Reds","orientDef","scaleRev","090",NA,NA
"","","","","","html-slider-response",138,1348450,"0.0-134.0","xdz4xvy3x2",44,NA,"<div style=""width:500px;"">
                            <p style=""font-size:50px; font-weight:bold;""
                            >angry</p>
                            <div style=""width:240px; margin: auto;"">
                                <img src=""images/map12_berlin_scaleDef_orientDef_180.png"" style= ""width:200px""alt=""img"">
                            </div>
                        </div>",0.8625,"",0,"",NA,"","images/map12_berlin_scaleDef_orientDef_180.png","angry",1,12,12,"berlin","orientDef","scaleDef","180",NA,NA
"","","","","","html-slider-response",139,1349933,"0.0-135.0","xdz4xvy3x2",44,NA,"<div style=""width:500px;"">
                            <p style=""font-size:50px; font-weight:bold;""
                            >angry</p>
                            <div style=""width:240px; margin: auto;"">
                                <img src=""images/map07_RdGy_scaleRev_orientDef_270.png"" style= ""width:200px""alt=""img"">
                            </div>
                        </div>",0.6,"",0,"",NA,"","images/map07_RdGy_scaleRev_orientDef_270.png","angry",1,7,7,"RdGy","orientDef","scaleRev","270",NA,NA
"","","","","","html-slider-response",140,1351468,"0.0-136.0","xdz4xvy3x2",44,NA,"<div style=""width:500px;"">
                            <p style=""font-size:50px; font-weight:bold;""
                            >angry</p>
                            <div style=""width:240px; margin: auto;"">
                                <img src=""images/map05_BrBG_scaleDef_orientMir_180.png"" style= ""width:200px""alt=""img"">
                            </div>
                        </div>",0.3175,"",0,"",NA,"","images/map05_BrBG_scaleDef_orientMir_180.png","angry",1,5,5,"BrBG","orientMir","scaleDef","180",NA,NA
"","","","","","html-button-response",141,1353324,"0.0-137.0","xdz4xvy3x2",44,1350,"<p>You are doing great!<br></br> You are halway done with the current block. When you are ready to continue, click the 'Continue' button.</p>",0.5,"",NA,"",NA,"","","",NA,NA,NA,"","","","",NA,NA
"","","","","","html-slider-response",142,1354466,"0.0-138.0","xdz4xvy3x2",44,NA,"<div style=""width:500px;"">
                            <p style=""font-size:50px; font-weight:bold;""
                            >angry</p>
                            <div style=""width:240px; margin: auto;"">
                                <img src=""images/map07_RdYlBu_scaleDef_orientMir_180.png"" style= ""width:200px""alt=""img"">
                            </div>
                        </div>",0.6325,"",0,"",NA,"","images/map07_RdYlBu_scaleDef_orientMir_180.png","angry",1,7,7,"RdYlBu","orientMir","scaleDef","180",NA,NA
"","","","","","html-slider-response",143,1355683,"0.0-139.0","xdz4xvy3x2",44,NA,"<div style=""width:500px;"">
                            <p style=""font-size:50px; font-weight:bold;""
                            >angry</p>
                            <div style=""width:240px; margin: auto;"">
                                <img src=""images/map02_PuBu_scaleDef_orientDef_000.png"" style= ""width:200px""alt=""img"">
                            </div>
                        </div>",0.69,"",0,"",NA,"","images/map02_PuBu_scaleDef_orientDef_000.png","angry",1,2,2,"PuBu","orientDef","scaleDef","000",NA,NA
"","","","","","html-slider-response",144,1357085,"0.0-140.0","xdz4xvy3x2",44,NA,"<div style=""width:500px;"">
                            <p style=""font-size:50px; font-weight:bold;""
                            >angry</p>
                            <div style=""width:240px; margin: auto;"">
                                <img src=""images/map15_cividis_scaleRev_orientMir_090.png"" style= ""width:200px""alt=""img"">
                            </div>
                        </div>",0.855,"",0,"",NA,"","images/map15_cividis_scaleRev_orientMir_090.png","angry",1,15,15,"cividis","orientMir","scaleRev","090",NA,NA
"","","","","","html-slider-response",145,1358850,"0.0-141.0","xdz4xvy3x2",44,NA,"<div style=""width:500px;"">
                            <p style=""font-size:50px; font-weight:bold;""
                            >angry</p>
                            <div style=""width:240px; margin: auto;"">
                                <img src=""images/map13_plasma_scaleRev_orientMir_270.png"" style= ""width:200px""alt=""img"">
                            </div>
                        </div>",0.6325,"",0,"",NA,"","images/map13_plasma_scaleRev_orientMir_270.png","angry",1,13,13,"plasma","orientMir","scaleRev","270",NA,NA
"","","","","","html-slider-response",146,1369468,"0.0-142.0","xdz4xvy3x2",44,NA,"<div style=""width:500px;"">
                            <p style=""font-size:50px; font-weight:bold;""
                            >angry</p>
                            <div style=""width:240px; margin: auto;"">
                                <img src=""images/map26_YlOrRd_scaleRev_orientMir_090.png"" style= ""width:200px""alt=""img"">
                            </div>
                        </div>",0.745,"",0,"",NA,"","images/map26_YlOrRd_scaleRev_orientMir_090.png","angry",1,26,26,"YlOrRd","orientMir","scaleRev","090",NA,NA
"","","","","","html-slider-response",147,1372116,"0.0-143.0","xdz4xvy3x2",44,NA,"<div style=""width:500px;"">
                            <p style=""font-size:50px; font-weight:bold;""
                            >angry</p>
                            <div style=""width:240px; margin: auto;"">
                                <img src=""images/map10_coolwarm_scaleRev_orientMir_090.png"" style= ""width:200px""alt=""img"">
                            </div>
                        </div>",0.3175,"",0,"",NA,"","images/map10_coolwarm_scaleRev_orientMir_090.png","angry",1,10,10,"coolwarm","orientMir","scaleRev","090",NA,NA
"","","","","","html-slider-response",148,1374066,"0.0-144.0","xdz4xvy3x2",44,NA,"<div style=""width:500px;"">
                            <p style=""font-size:50px; font-weight:bold;""
                            >angry</p>
                            <div style=""width:240px; margin: auto;"">
                                <img src=""images/map26_OrRd_scaleRev_orientMir_270.png"" style= ""width:200px""alt=""img"">
                            </div>
                        </div>",0.745,"",0,"",NA,"","images/map26_OrRd_scaleRev_orientMir_270.png","angry",1,26,26,"OrRd","orientMir","scaleRev","270",NA,NA
"","","","","","html-slider-response",149,1375517,"0.0-145.0","xdz4xvy3x2",44,NA,"<div style=""width:500px;"">
                            <p style=""font-size:50px; font-weight:bold;""
                            >angry</p>
                            <div style=""width:240px; margin: auto;"">
                                <img src=""images/map15_inferno_scaleRev_orientDef_090.png"" style= ""width:200px""alt=""img"">
                            </div>
                        </div>",0.2925,"",0,"",NA,"","images/map15_inferno_scaleRev_orientDef_090.png","angry",1,15,15,"inferno","orientDef","scaleRev","090",NA,NA
"","","","","","html-slider-response",150,1377134,"0.0-146.0","xdz4xvy3x2",44,NA,"<div style=""width:500px;"">
                            <p style=""font-size:50px; font-weight:bold;""
                            >angry</p>
                            <div style=""width:240px; margin: auto;"">
                                <img src=""images/map02_YlGnBu_scaleRev_orientDef_270.png"" style= ""width:200px""alt=""img"">
                            </div>
                        </div>",0.705,"",0,"",NA,"","images/map02_YlGnBu_scaleRev_orientDef_270.png","angry",1,2,2,"YlGnBu","orientDef","scaleRev","270",NA,NA
"","","","","","html-slider-response",151,1378952,"0.0-147.0","xdz4xvy3x2",44,NA,"<div style=""width:500px;"">
                            <p style=""font-size:50px; font-weight:bold;""
                            >angry</p>
                            <div style=""width:240px; margin: auto;"">
                                <img src=""images/map05_YlGn_scaleDef_orientDef_000.png"" style= ""width:200px""alt=""img"">
                            </div>
                        </div>",0.315,"",0,"",NA,"","images/map05_YlGn_scaleDef_orientDef_000.png","angry",1,5,5,"YlGn","orientDef","scaleDef","000",NA,NA
"","","","","","html-slider-response",152,1380368,"0.0-148.0","xdz4xvy3x2",44,NA,"<div style=""width:500px;"">
                            <p style=""font-size:50px; font-weight:bold;""
                            >angry</p>
                            <div style=""width:240px; margin: auto;"">
                                <img src=""images/map23_Greens_scaleRev_orientMir_090.png"" style= ""width:200px""alt=""img"">
                            </div>
                        </div>",0.2925,"",0,"",NA,"","images/map23_Greens_scaleRev_orientMir_090.png","angry",1,23,23,"Greens","orientMir","scaleRev","090",NA,NA
"","","","","","html-slider-response",153,1382019,"0.0-149.0","xdz4xvy3x2",44,NA,"<div style=""width:500px;"">
                            <p style=""font-size:50px; font-weight:bold;""
                            >angry</p>
                            <div style=""width:240px; margin: auto;"">
                                <img src=""images/map10_Spectral_scaleDef_orientDef_180.png"" style= ""width:200px""alt=""img"">
                            </div>
                        </div>",0.615,"",0,"",NA,"","images/map10_Spectral_scaleDef_orientDef_180.png","angry",1,10,10,"Spectral","orientDef","scaleDef","180",NA,NA
"","","","","","html-slider-response",154,1383383,"0.0-150.0","xdz4xvy3x2",44,NA,"<div style=""width:500px;"">
                            <p style=""font-size:50px; font-weight:bold;""
                            >angry</p>
                            <div style=""width:240px; margin: auto;"">
                                <img src=""images/map26_YlOrRd_scaleDef_orientMir_000.png"" style= ""width:200px""alt=""img"">
                            </div>
                        </div>",0.7175,"",0,"",NA,"","images/map26_YlOrRd_scaleDef_orientMir_000.png","angry",1,26,26,"YlOrRd","orientMir","scaleDef","000",NA,NA
"","","","","","html-slider-response",155,1385053,"0.0-151.0","xdz4xvy3x2",44,NA,"<div style=""width:500px;"">
                            <p style=""font-size:50px; font-weight:bold;""
                            >angry</p>
                            <div style=""width:240px; margin: auto;"">
                                <img src=""images/map12_vanimo_scaleDef_orientMir_180.png"" style= ""width:200px""alt=""img"">
                            </div>
                        </div>",0.8,"",0,"",NA,"","images/map12_vanimo_scaleDef_orientMir_180.png","angry",1,12,12,"vanimo","orientMir","scaleDef","180",NA,NA
"","","","","","html-slider-response",156,1386533,"0.0-152.0","xdz4xvy3x2",44,NA,"<div style=""width:500px;"">
                            <p style=""font-size:50px; font-weight:bold;""
                            >angry</p>
                            <div style=""width:240px; margin: auto;"">
                                <img src=""images/map23_Blues_scaleRev_orientDef_270.png"" style= ""width:200px""alt=""img"">
                            </div>
                        </div>",0.4,"",0,"",NA,"","images/map23_Blues_scaleRev_orientDef_270.png","angry",1,23,23,"Blues","orientDef","scaleRev","270",NA,NA
"","","","","","html-slider-response",157,1387850,"0.0-153.0","xdz4xvy3x2",44,NA,"<div style=""width:500px;"">
                            <p style=""font-size:50px; font-weight:bold;""
                            >angry</p>
                            <div style=""width:240px; margin: auto;"">
                                <img src=""images/map27_PuRd_scaleDef_orientDef_000.png"" style= ""width:200px""alt=""img"">
                            </div>
                        </div>",0.745,"",0,"",NA,"","images/map27_PuRd_scaleDef_orientDef_000.png","angry",1,27,27,"PuRd","orientDef","scaleDef","000",NA,NA
"","","","","","html-slider-response",158,1389233,"0.0-154.0","xdz4xvy3x2",44,NA,"<div style=""width:500px;"">
                            <p style=""font-size:50px; font-weight:bold;""
                            >angry</p>
                            <div style=""width:240px; margin: auto;"">
                                <img src=""images/map02_BuGn_scaleRev_orientMir_270.png"" style= ""width:200px""alt=""img"">
                            </div>
                        </div>",0.375,"",0,"",NA,"","images/map02_BuGn_scaleRev_orientMir_270.png","angry",1,2,2,"BuGn","orientMir","scaleRev","270",NA,NA
"","","","","","html-slider-response",159,1390801,"0.0-155.0","xdz4xvy3x2",44,NA,"<div style=""width:500px;"">
                            <p style=""font-size:50px; font-weight:bold;""
                            >angry</p>
                            <div style=""width:240px; margin: auto;"">
                                <img src=""images/map05_YlGn_scaleRev_orientDef_090.png"" style= ""width:200px""alt=""img"">
                            </div>
                        </div>",0.225,"",0,"",NA,"","images/map05_YlGn_scaleRev_orientDef_090.png","angry",1,5,5,"YlGn","orientDef","scaleRev","090",NA,NA
"","","","","","html-slider-response",160,1392500,"0.0-156.0","xdz4xvy3x2",44,NA,"<div style=""width:500px;"">
                            <p style=""font-size:50px; font-weight:bold;""
                            >angry</p>
                            <div style=""width:240px; margin: auto;"">
                                <img src=""images/map02_PuBuGn_scaleRev_orientMir_090.png"" style= ""width:200px""alt=""img"">
                            </div>
                        </div>",0.655,"",0,"",NA,"","images/map02_PuBuGn_scaleRev_orientMir_090.png","angry",1,2,2,"PuBuGn","orientMir","scaleRev","090",NA,NA
"","","","","","html-slider-response",161,1393900,"0.0-157.0","xdz4xvy3x2",44,NA,"<div style=""width:500px;"">
                            <p style=""font-size:50px; font-weight:bold;""
                            >angry</p>
                            <div style=""width:240px; margin: auto;"">
                                <img src=""images/map15_cividis_scaleDef_orientMir_000.png"" style= ""width:200px""alt=""img"">
                            </div>
                        </div>",0.72,"",0,"",NA,"","images/map15_cividis_scaleDef_orientMir_000.png","angry",1,15,15,"cividis","orientMir","scaleDef","000",NA,NA
"","","","","","html-slider-response",162,1395616,"0.0-158.0","xdz4xvy3x2",44,NA,"<div style=""width:500px;"">
                            <p style=""font-size:50px; font-weight:bold;""
                            >angry</p>
                            <div style=""width:240px; margin: auto;"">
                                <img src=""images/map15_Greys_scaleRev_orientMir_270.png"" style= ""width:200px""alt=""img"">
                            </div>
                        </div>",0,"",0,"",NA,"","images/map15_Greys_scaleRev_orientMir_270.png","angry",1,15,15,"Greys","orientMir","scaleRev","270",NA,NA
"","","","","","html-slider-response",163,1396832,"0.0-159.0","xdz4xvy3x2",44,NA,"<div style=""width:500px;"">
                            <p style=""font-size:50px; font-weight:bold;""
