"success","timeout","failed_images","failed_audio","failed_video","trial_type","trial_index","time_elapsed","internal_node_id","subject_id","condition_num","rt","stimulus","response","question_order","slider_start","practiceTrial","practiceTrialNum","correct","image_path","concept","repetition","map_id","map_num","scale_name","orientation_code","mapping_code","rotation_code","ishihara_plate","correct_response"
"true","false","[]","[]","[]","preload",0,466,"0.0-0.0","o9nyoma9hu",67,NA,"",NA,"",NA,"",NA,"","","",NA,NA,NA,"","","","",NA,NA
"","","","","","html-button-response",1,1374,"0.0-1.0","o9nyoma9hu",67,906,"Welcome to our experiment!<p>At the bottom of this screen, you will see a button that says ""Begin Experiment"".<br>Please only click that button when you are ready to complete the 30 minute experiment in one sitting.</p><p> Once you click that button, it will not be possible to restart the experiment.",0.5,"",NA,"",NA,"","","",NA,NA,NA,"","","","",NA,NA
"true","","","","","fullscreen",2,4488,"0.0-2.0","o9nyoma9hu",67,2100,"",NA,"",NA,"",NA,"","","",NA,NA,NA,"","","","",NA,NA
"","","","","","survey-multi-select",3,26644,"0.0-3.0","o9nyoma9hu",67,22153,"",NA,"[0]",NA,"",NA,"","","",NA,NA,NA,"","","","",NA,NA
"","","","","","html-button-response",4,27720,"0.0-4.0","o9nyoma9hu",67,1075,"Welcome! <p> This experiment involves two parts: demographic information, followed by the experimental task.<p> It will take about 30 minutes to complete both parts.",0.5,"",NA,"",NA,"","","",NA,NA,NA,"","","","",NA,NA
"","","","","","survey-text",5,46559,"0.0-5.0","o9nyoma9hu",67,18830,"",NA,"",NA,"",NA,"","","",NA,NA,NA,"","","","",NA,NA
"","","","","","html-slider-response",6,71407,"0.0-6.0","o9nyoma9hu",67,24844,"<div style='text-align:left; font-size:20px; line-height:25px; width: 1000px;'>
                                During this experiment you will be asked to rate how much you associate maps with                    different concepts.<br> Below, you can see some examples of the maps you will be asked to rate. Above the maps
                    is the list of concepts.<br>You will be asked                    to rate how much you associate each map with each concept on a scale from 'not at all' to 'very much' like the
                    one below. <br><br>
                    Now, please look at the list of concepts and maps. For each concept, think about the map you associate 'very
                    much' with the concept.<br>                     When you see that map during the experiment, please rate it near the 'very much' endpoint of the
                    scale.<br>Now, please think about which map you associate 'not at all'                     with each concept. When you see that map during the experiment, please rate it near the 'not at all' endpoint
                    of the scale.<br>
                    Please use the full range of the scale. That is, if a map is somewhat associated with the concept, you would
                    click partway between the middle point and right side of the scale.                    You will be asked to rate each map for a given concept before moving on to the next concept.<br>Press the
                    'Continue' button for instructions on how to use the slider.                    <br>
                </div>

                <div style=""width: 500px; margin: 0 auto;"">
                    <!-- Centered text paragraphs -->
                    <div style=""text-align: center; width: 500px;"">
                        <p style=""font-size:25px; line-height:15px;"">
                            sad&nbsp;&nbsp;&nbsp;&nbsp;
                            fearful&nbsp;&nbsp;&nbsp;&nbsp;
                            angry&nbsp;&nbsp;&nbsp;&nbsp;
                            happy&nbsp;&nbsp;&nbsp;&nbsp;
                            disgust
                        </p>
                        <!-- <p style=""font-size:20px; line-height:15px;"">fearful</p>
                        <p style=""font-size:20px;line-height:15px;"">angry</p>
                        <p style=""font-size:20px;line-height:15px;"">happy</p>
                        <p style=""font-size:20px;line-height:15px;"">disgust</p> -->
                    </div>
            

                    <!-- Grid section -->
                   <div style=""display: flex; justify-content: center; padding-top: 15px;"">
                    <div style=""display: grid; grid-template-columns: repeat(10, 55px); grid-gap: 5px; width: auto;"">
                        <img src=""images/map07_RdPu_scaleDef_orientDef_090.png"" alt=""map"" style=""width: 100%;""><img src=""images/map13_RdBu_scaleRev_orientMir_000.png"" alt=""map"" style=""width: 100%;""><img src=""images/map15_RdYlGn_scaleRev_orientDef_000.png"" alt=""map"" style=""width: 100%;""><img src=""images/map23_berlin_scaleDef_orientDef_090.png"" alt=""map"" style=""width: 100%;""><img src=""images/map23_managua_scaleDef_orientDef_270.png"" alt=""map"" style=""width: 100%;""><img src=""images/map26_turbo_scaleRev_orientDef_180.png"" alt=""map"" style=""width: 100%;""><img src=""images/map12_PiYG_scaleDef_orientDef_090.png"" alt=""map"" style=""width: 100%;""><img src=""images/map07_PuRd_scaleRev_orientDef_000.png"" alt=""map"" style=""width: 100%;""><img src=""images/map07_GnBu_scaleRev_orientMir_180.png"" alt=""map"" style=""width: 100%;""><img src=""images/map10_BuGn_scaleDef_orientMir_090.png"" alt=""map"" style=""width: 100%;""><img src=""images/map23_vanimo_scaleDef_orientMir_090.png"" alt=""map"" style=""width: 100%;""><img src=""images/map26_gist_earth_scaleRev_orientDef_000.png"" alt=""map"" style=""width: 100%;""><img src=""images/map02_Purples_scaleRev_orientDef_000.png"" alt=""map"" style=""width: 100%;""><img src=""images/map15_Spectral_scaleRev_orientDef_180.png"" alt=""map"" style=""width: 100%;""><img src=""images/map13_RdYlBu_scaleDef_orientMir_090.png"" alt=""map"" style=""width: 100%;""><img src=""images/map05_YlOrRd_scaleDef_orientDef_270.png"" alt=""map"" style=""width: 100%;""><img src=""images/map23_seismic_scaleRev_orientDef_000.png"" alt=""map"" style=""width: 100%;""><img src=""images/map26_plasma_scaleDef_orientMir_090.png"" alt=""map"" style=""width: 100%;""><img src=""images/map26_viridis_scaleRev_orientMir_000.png"" alt=""map"" style=""width: 100%;""><img src=""images/map12_PRGn_scaleRev_orientMir_000.png"" alt=""map"" style=""width: 100%;""><img src=""images/map02_Blues_scaleDef_orientDef_090.png"" alt=""map"" style=""width: 100%;""><img src=""images/map05_Reds_scaleRev_orientDef_000.png"" alt=""map"" style=""width: 100%;""><img src=""images/map02_Greens_scaleDef_orientDef_270.png"" alt=""map"" style=""width: 100%;""><img src=""images/map27_Greys_scaleDef_orientMir_090.png"" alt=""map"" style=""width: 100%;""><img src=""images/map13_RdGy_scaleDef_orientDef_090.png"" alt=""map"" style=""width: 100%;""><img src=""images/map15_coolwarm_scaleRev_orientMir_000.png"" alt=""map"" style=""width: 100%;""><img src=""images/map05_YlOrBr_scaleRev_orientDef_180.png"" alt=""map"" style=""width: 100%;""><img src=""images/map02_Oranges_scaleRev_orientMir_180.png"" alt=""map"" style=""width: 100%;""><img src=""images/map10_PuBuGn_scaleDef_orientDef_270.png"" alt=""map"" style=""width: 100%;""><img src=""images/map12_BrBG_scaleDef_orientMir_090.png"" alt=""map"" style=""width: 100%;""><img src=""images/map13_PuOr_scaleRev_orientDef_000.png"" alt=""map"" style=""width: 100%;""><img src=""images/map27_cividis_scaleRev_orientMir_000.png"" alt=""map"" style=""width: 100%;""><img src=""images/map10_PuBu_scaleRev_orientDef_000.png"" alt=""map"" style=""width: 100%;""><img src=""images/map27_magma_scaleDef_orientDef_090.png"" alt=""map"" style=""width: 100%;""><img src=""images/map10_YlGnBu_scaleRev_orientDef_180.png"" alt=""map"" style=""width: 100%;""><img src=""images/map10_YlGn_scaleDef_orientMir_270.png"" alt=""map"" style=""width: 100%;""><img src=""images/map07_BuPu_scaleDef_orientDef_270.png"" alt=""map"" style=""width: 100%;""><img src=""images/map05_OrRd_scaleDef_orientMir_090.png"" alt=""map"" style=""width: 100%;""><img src=""images/map15_bwr_scaleRev_orientMir_180.png"" alt=""map"" style=""width: 100%;""><img src=""images/map26_inferno_scaleDef_orientMir_270.png"" alt=""map"" style=""width: 100%;"">
                    </div>
                </div>

                    <!-- Clear floats -->
                    <div style=""clear: both;""></div>
                </div>
                            ",0.6725,"",0,"true",NA,"","","",NA,NA,NA,"","","","",NA,NA
"","","","","","html-button-response",7,73698,"0.0-7.0","o9nyoma9hu",67,2290,"<div style=""width:800px;""><p style=""text-align:left"">To move the slider, click and drag your cursor to the location of the scale where you would like to make your rating and then let go. When you let go of the slider, your response will be recorded and the next trial will begin. <br>
                    We are interested in your initial impressions of each map for the given concept, so please go with your first intuition. <br>
                    Before you begin the experiment, there will be four training trials for you to practice using the scale. <br>
                     When you are ready to start the training trials, please click ""Continue"".</p><br></div>",0.5,"",NA,"",NA,"","","",NA,NA,NA,"","","","",NA,NA
"","","","","","html-slider-response",8,81682,"0.0-8.0-0.0","o9nyoma9hu",67,NA,"<div style=""width:500px;"">
                                    <p style=""font-size:25px;"">Please move the slider all the way to the <br> right endpoint of the scale</p>

                                    </div>
                                </div>",1,"",0,"true",0,"true","","",NA,NA,NA,"","","","",NA,NA
"","","","","","html-button-response",9,84744,"0.0-8.0-1.0","o9nyoma9hu",67,2549,"<p align='center'><b>Good job!</b> Click on 'Continue' to proceed.</p>",0.5,"",NA,"",NA,"","","",NA,NA,NA,"","","","",NA,NA
"","","","","","html-slider-response",10,87721,"0.0-9.0-0.0","o9nyoma9hu",67,NA,"<div style=""width:500px;"">
                                    <p style=""font-size:25px;"">Please move the slider all the way to the <br> left endpoint of the scale</p>

                                    </div>
                                </div>",0,"",0,"true",1,"true","","",NA,NA,NA,"","","","",NA,NA
"","","","","","html-button-response",11,89262,"0.0-9.0-1.0","o9nyoma9hu",67,1025,"<p align='center'><b>Good job!</b> Click on 'Continue' to proceed.</p>",0.5,"",NA,"",NA,"","","",NA,NA,NA,"","","","",NA,NA
"","","","","","html-slider-response",12,94553,"0.0-10.0-0.0","o9nyoma9hu",67,NA,"<div style=""width:500px;"">
                                    <p style=""font-size:25px;"">Please move the slider halfway between the center and right endpoint of the scale</p>

                                    </div>
                                </div>",0.7875,"",0,"true",2,"false","","",NA,NA,NA,"","","","",NA,NA
"","","","","","html-button-response",13,97596,"0.0-10.0-1.0","o9nyoma9hu",67,2525,"<p align='center'><b>Not quite!</b> The slider was not placed near the instructed located. Click on 'Continue' to try again. </p>",0.5,"",NA,"",NA,"","","",NA,NA,NA,"","","","",NA,NA
"","","","","","html-slider-response",14,100182,"0.0-10.1-0.1","o9nyoma9hu",67,NA,"<div style=""width:500px;"">
                                    <p style=""font-size:25px;"">Please move the slider halfway between the center and right endpoint of the scale</p>

                                    </div>
                                </div>",0.775,"",0,"true",2,"true","","",NA,NA,NA,"","","","",NA,NA
"","","","","","html-button-response",15,101485,"0.0-10.1-1.1","o9nyoma9hu",67,793,"<p align='center'><b>Good job!</b> Click on 'Continue' to proceed.</p>",0.5,"",NA,"",NA,"","","",NA,NA,NA,"","","","",NA,NA
"","","","","","html-slider-response",16,106183,"0.0-11.0-0.0","o9nyoma9hu",67,NA,"<div style=""width:500px;"">
                                    <p style=""font-size:25px;"">Please move the slider halfway between the center and left endpoint of the scale</p>

                                    </div>
                                </div>",0.2525,"",0,"true",3,"true","","",NA,NA,NA,"","","","",NA,NA
"","","","","","html-button-response",17,107545,"0.0-11.0-1.0","o9nyoma9hu",67,853,"<p align='center'><b>Good job!</b> Click on 'Continue' to proceed.</p>",0.5,"",NA,"",NA,"","","",NA,NA,NA,"","","","",NA,NA
"","","","","","html-button-response",18,110033,"0.0-12.0","o9nyoma9hu",67,2487,"<p>Great job! You've completed the practice trials. Now you will begin the main task.</p>",0.5,"",NA,"",NA,"","","",NA,NA,NA,"","","","",NA,NA
"","","","","","html-button-response",19,111782,"0.0-13.0","o9nyoma9hu",67,1748,"<p>In this block of trials, you will be asked to rate how much you associate each map with:</p > <p style = 'font-size:150%; font-weight: bold'>sad</p><br></br>",0.5,"",NA,"",NA,"","","",NA,NA,NA,"","","","",NA,NA
"","","","","","html-slider-response",20,115002,"0.0-14.0","o9nyoma9hu",67,NA,"<div style=""width:500px;"">
                            <p style=""font-size:50px; font-weight:bold;""
                            >sad</p>
                            <div style=""width:240px; margin: auto;"">
                                <img src=""images/map12_YlGn_scaleRev_orientDef_000.png"" style= ""width:200px""alt=""img"">
                            </div>
                        </div>",0.235,"",0,"",NA,"","images/map12_YlGn_scaleRev_orientDef_000.png","sad",1,12,12,"YlGn","orientDef","scaleRev","000",NA,NA
"","","","","","html-slider-response",21,117519,"0.0-15.0","o9nyoma9hu",67,NA,"<div style=""width:500px;"">
                            <p style=""font-size:50px; font-weight:bold;""
                            >sad</p>
                            <div style=""width:240px; margin: auto;"">
                                <img src=""images/map10_PuBuGn_scaleRev_orientMir_000.png"" style= ""width:200px""alt=""img"">
                            </div>
                        </div>",0.715,"",0,"",NA,"","images/map10_PuBuGn_scaleRev_orientMir_000.png","sad",1,10,10,"PuBuGn","orientMir","scaleRev","000",NA,NA
"","","","","","html-slider-response",22,119928,"0.0-16.0","o9nyoma9hu",67,NA,"<div style=""width:500px;"">
                            <p style=""font-size:50px; font-weight:bold;""
                            >sad</p>
                            <div style=""width:240px; margin: auto;"">
                                <img src=""images/map13_PuOr_scaleRev_orientDef_000.png"" style= ""width:200px""alt=""img"">
                            </div>
                        </div>",0.54,"",0,"",NA,"","images/map13_PuOr_scaleRev_orientDef_000.png","sad",1,13,13,"PuOr","orientDef","scaleRev","000",NA,NA
"","","","","","html-slider-response",23,122248,"0.0-17.0","o9nyoma9hu",67,NA,"<div style=""width:500px;"">
                            <p style=""font-size:50px; font-weight:bold;""
                            >sad</p>
                            <div style=""width:240px; margin: auto;"">
                                <img src=""images/map10_YlGnBu_scaleDef_orientDef_090.png"" style= ""width:200px""alt=""img"">
                            </div>
                        </div>",0.6375,"",0,"",NA,"","images/map10_YlGnBu_scaleDef_orientDef_090.png","sad",1,10,10,"YlGnBu","orientDef","scaleDef","090",NA,NA
"","","","","","html-slider-response",24,124749,"0.0-18.0","o9nyoma9hu",67,NA,"<div style=""width:500px;"">
                            <p style=""font-size:50px; font-weight:bold;""
                            >sad</p>
                            <div style=""width:240px; margin: auto;"">
                                <img src=""images/map10_YlGn_scaleDef_orientMir_270.png"" style= ""width:200px""alt=""img"">
                            </div>
                        </div>",0.2075,"",0,"",NA,"","images/map10_YlGn_scaleDef_orientMir_270.png","sad",1,10,10,"YlGn","orientMir","scaleDef","270",NA,NA
"","","","","","html-slider-response",25,126882,"0.0-19.0","o9nyoma9hu",67,NA,"<div style=""width:500px;"">
                            <p style=""font-size:50px; font-weight:bold;""
                            >sad</p>
                            <div style=""width:240px; margin: auto;"">
                                <img src=""images/map02_Oranges_scaleDef_orientMir_090.png"" style= ""width:200px""alt=""img"">
                            </div>
                        </div>",0.035,"",0,"",NA,"","images/map02_Oranges_scaleDef_orientMir_090.png","sad",1,2,2,"Oranges","orientMir","scaleDef","090",NA,NA
"","","","","","html-slider-response",26,129217,"0.0-20.0","o9nyoma9hu",67,NA,"<div style=""width:500px;"">
                            <p style=""font-size:50px; font-weight:bold;""
                            >sad</p>
                            <div style=""width:240px; margin: auto;"">
                                <img src=""images/map26_plasma_scaleDef_orientMir_090.png"" style= ""width:200px""alt=""img"">
                            </div>
                        </div>",0.5225,"",0,"",NA,"","images/map26_plasma_scaleDef_orientMir_090.png","sad",1,26,26,"plasma","orientMir","scaleDef","090",NA,NA
"","","","","","html-slider-response",27,130761,"0.0-21.0","o9nyoma9hu",67,NA,"<div style=""width:500px;"">
                            <p style=""font-size:50px; font-weight:bold;""
                            >sad</p>
                            <div style=""width:240px; margin: auto;"">
                                <img src=""images/map02_Oranges_scaleRev_orientMir_180.png"" style= ""width:200px""alt=""img"">
                            </div>
                        </div>",0.4525,"",0,"",NA,"","images/map02_Oranges_scaleRev_orientMir_180.png","sad",1,2,2,"Oranges","orientMir","scaleRev","180",NA,NA
"","","","","","html-slider-response",28,132451,"0.0-22.0","o9nyoma9hu",67,NA,"<div style=""width:500px;"">
                            <p style=""font-size:50px; font-weight:bold;""
                            >sad</p>
                            <div style=""width:240px; margin: auto;"">
                                <img src=""images/map15_seismic_scaleDef_orientMir_270.png"" style= ""width:200px""alt=""img"">
                            </div>
                        </div>",0.81,"",0,"",NA,"","images/map15_seismic_scaleDef_orientMir_270.png","sad",1,15,15,"seismic","orientMir","scaleDef","270",NA,NA
"","","","","","html-slider-response",29,134204,"0.0-23.0","o9nyoma9hu",67,NA,"<div style=""width:500px;"">
                            <p style=""font-size:50px; font-weight:bold;""
                            >sad</p>
                            <div style=""width:240px; margin: auto;"">
                                <img src=""images/map02_Purples_scaleRev_orientDef_000.png"" style= ""width:200px""alt=""img"">
                            </div>
                        </div>",0.5725,"",0,"",NA,"","images/map02_Purples_scaleRev_orientDef_000.png","sad",1,2,2,"Purples","orientDef","scaleRev","000",NA,NA
"","","","","","html-slider-response",30,136478,"0.0-24.0","o9nyoma9hu",67,NA,"<div style=""width:500px;"">
                            <p style=""font-size:50px; font-weight:bold;""
                            >sad</p>
                            <div style=""width:240px; margin: auto;"">
                                <img src=""images/map27_cividis_scaleDef_orientDef_270.png"" style= ""width:200px""alt=""img"">
                            </div>
                        </div>",0.4275,"",0,"",NA,"","images/map27_cividis_scaleDef_orientDef_270.png","sad",1,27,27,"cividis","orientDef","scaleDef","270",NA,NA
"","","","","","html-slider-response",31,138570,"0.0-25.0","o9nyoma9hu",67,NA,"<div style=""width:500px;"">
                            <p style=""font-size:50px; font-weight:bold;""
                            >sad</p>
                            <div style=""width:240px; margin: auto;"">
                                <img src=""images/map05_OrRd_scaleRev_orientMir_180.png"" style= ""width:200px""alt=""img"">
                            </div>
                        </div>",0.31,"",0,"",NA,"","images/map05_OrRd_scaleRev_orientMir_180.png","sad",1,5,5,"OrRd","orientMir","scaleRev","180",NA,NA
"","","","","","html-slider-response",32,140454,"0.0-26.0","o9nyoma9hu",67,NA,"<div style=""width:500px;"">
                            <p style=""font-size:50px; font-weight:bold;""
                            >sad</p>
                            <div style=""width:240px; margin: auto;"">
                                <img src=""images/map05_YlOrRd_scaleRev_orientMir_000.png"" style= ""width:200px""alt=""img"">
                            </div>
                        </div>",0.2675,"",0,"",NA,"","images/map05_YlOrRd_scaleRev_orientMir_000.png","sad",1,5,5,"YlOrRd","orientMir","scaleRev","000",NA,NA
"","","","","","html-slider-response",33,142831,"0.0-27.0","o9nyoma9hu",67,NA,"<div style=""width:500px;"">
                            <p style=""font-size:50px; font-weight:bold;""
                            >sad</p>
                            <div style=""width:240px; margin: auto;"">
                                <img src=""images/map23_vanimo_scaleRev_orientMir_180.png"" style= ""width:200px""alt=""img"">
                            </div>
                        </div>",0.5525,"",0,"",NA,"","images/map23_vanimo_scaleRev_orientMir_180.png","sad",1,23,23,"vanimo","orientMir","scaleRev","180",NA,NA
"","","","","","html-slider-response",34,144782,"0.0-28.0","o9nyoma9hu",67,NA,"<div style=""width:500px;"">
                            <p style=""font-size:50px; font-weight:bold;""
                            >sad</p>
                            <div style=""width:240px; margin: auto;"">
                                <img src=""images/map07_PuBu_scaleDef_orientMir_270.png"" style= ""width:200px""alt=""img"">
                            </div>
                        </div>",0.5125,"",0,"",NA,"","images/map07_PuBu_scaleDef_orientMir_270.png","sad",1,7,7,"PuBu","orientMir","scaleDef","270",NA,NA
"","","","","","html-slider-response",35,146477,"0.0-29.0","o9nyoma9hu",67,NA,"<div style=""width:500px;"">
                            <p style=""font-size:50px; font-weight:bold;""
                            >sad</p>
                            <div style=""width:240px; margin: auto;"">
                                <img src=""images/map02_Greens_scaleDef_orientDef_270.png"" style= ""width:200px""alt=""img"">
                            </div>
                        </div>",0.4275,"",0,"",NA,"","images/map02_Greens_scaleDef_orientDef_270.png","sad",1,2,2,"Greens","orientDef","scaleDef","270",NA,NA
"","","","","","html-slider-response",36,147580,"0.0-30.0","o9nyoma9hu",67,NA,"<div style=""width:500px;"">
                            <p style=""font-size:50px; font-weight:bold;""
                            >sad</p>
                            <div style=""width:240px; margin: auto;"">
                                <img src=""images/map23_seismic_scaleRev_orientDef_000.png"" style= ""width:200px""alt=""img"">
                            </div>
                        </div>",0.22,"",0,"",NA,"","images/map23_seismic_scaleRev_orientDef_000.png","sad",1,23,23,"seismic","orientDef","scaleRev","000",NA,NA
"","","","","","html-slider-response",37,149343,"0.0-31.0","o9nyoma9hu",67,NA,"<div style=""width:500px;"">
                            <p style=""font-size:50px; font-weight:bold;""
                            >sad</p>
                            <div style=""width:240px; margin: auto;"">
                                <img src=""images/map23_managua_scaleRev_orientMir_000.png"" style= ""width:200px""alt=""img"">
                            </div>
                        </div>",0.6075,"",0,"",NA,"","images/map23_managua_scaleRev_orientMir_000.png","sad",1,23,23,"managua","orientMir","scaleRev","000",NA,NA
"","","","","","html-slider-response",38,151289,"0.0-32.0","o9nyoma9hu",67,NA,"<div style=""width:500px;"">
                            <p style=""font-size:50px; font-weight:bold;""
                            >sad</p>
                            <div style=""width:240px; margin: auto;"">
                                <img src=""images/map05_YlOrRd_scaleDef_orientDef_270.png"" style= ""width:200px""alt=""img"">
                            </div>
                        </div>",0.3175,"",0,"",NA,"","images/map05_YlOrRd_scaleDef_orientDef_270.png","sad",1,5,5,"YlOrRd","orientDef","scaleDef","270",NA,NA
"","","","","","html-slider-response",39,153336,"0.0-33.0","o9nyoma9hu",67,NA,"<div style=""width:500px;"">
                            <p style=""font-size:50px; font-weight:bold;""
                            >sad</p>
                            <div style=""width:240px; margin: auto;"">
                                <img src=""images/map13_RdGy_scaleRev_orientDef_180.png"" style= ""width:200px""alt=""img"">
                            </div>
                        </div>",0.3275,"",0,"",NA,"","images/map13_RdGy_scaleRev_orientDef_180.png","sad",1,13,13,"RdGy","orientDef","scaleRev","180",NA,NA
"","","","","","html-slider-response",40,154750,"0.0-34.0","o9nyoma9hu",67,NA,"<div style=""width:500px;"">
                            <p style=""font-size:50px; font-weight:bold;""
                            >sad</p>
                            <div style=""width:240px; margin: auto;"">
                                <img src=""images/map10_YlGnBu_scaleRev_orientDef_180.png"" style= ""width:200px""alt=""img"">
                            </div>
                        </div>",0.625,"",0,"",NA,"","images/map10_YlGnBu_scaleRev_orientDef_180.png","sad",1,10,10,"YlGnBu","orientDef","scaleRev","180",NA,NA
"","","","","","html-slider-response",41,156278,"0.0-35.0","o9nyoma9hu",67,NA,"<div style=""width:500px;"">
                            <p style=""font-size:50px; font-weight:bold;""
                            >sad</p>
                            <div style=""width:240px; margin: auto;"">
                                <img src=""images/map05_YlOrBr_scaleDef_orientDef_090.png"" style= ""width:200px""alt=""img"">
                            </div>
                        </div>",0.405,"",0,"",NA,"","images/map05_YlOrBr_scaleDef_orientDef_090.png","sad",1,5,5,"YlOrBr","orientDef","scaleDef","090",NA,NA
"","","","","","html-slider-response",42,158328,"0.0-36.0","o9nyoma9hu",67,NA,"<div style=""width:500px;"">
                            <p style=""font-size:50px; font-weight:bold;""
                            >sad</p>
                            <div style=""width:240px; margin: auto;"">
                                <img src=""images/map07_BuPu_scaleRev_orientMir_000.png"" style= ""width:200px""alt=""img"">
                            </div>
                        </div>",0.565,"",0,"",NA,"","images/map07_BuPu_scaleRev_orientMir_000.png","sad",1,7,7,"BuPu","orientMir","scaleRev","000",NA,NA
"","","","","","html-slider-response",43,160600,"0.0-37.0","o9nyoma9hu",67,NA,"<div style=""width:500px;"">
                            <p style=""font-size:50px; font-weight:bold;""
                            >sad</p>
                            <div style=""width:240px; margin: auto;"">
                                <img src=""images/map27_Greys_scaleDef_orientMir_090.png"" style= ""width:200px""alt=""img"">
                            </div>
                        </div>",0.645,"",0,"",NA,"","images/map27_Greys_scaleDef_orientMir_090.png","sad",1,27,27,"Greys","orientMir","scaleDef","090",NA,NA
"","","","","","html-slider-response",44,162362,"0.0-38.0","o9nyoma9hu",67,NA,"<div style=""width:500px;"">
                            <p style=""font-size:50px; font-weight:bold;""
                            >sad</p>
                            <div style=""width:240px; margin: auto;"">
                                <img src=""images/map26_viridis_scaleDef_orientDef_270.png"" style= ""width:200px""alt=""img"">
                            </div>
                        </div>",0.635,"",0,"",NA,"","images/map26_viridis_scaleDef_orientDef_270.png","sad",1,26,26,"viridis","orientDef","scaleDef","270",NA,NA
"","","","","","html-slider-response",45,164021,"0.0-39.0","o9nyoma9hu",67,NA,"<div style=""width:500px;"">
                            <p style=""font-size:50px; font-weight:bold;""
                            >sad</p>
                            <div style=""width:240px; margin: auto;"">
                                <img src=""images/map02_Reds_scaleDef_orientMir_270.png"" style= ""width:200px""alt=""img"">
                            </div>
                        </div>",0.2675,"",0,"",NA,"","images/map02_Reds_scaleDef_orientMir_270.png","sad",1,2,2,"Reds","orientMir","scaleDef","270",NA,NA
"","","","","","html-slider-response",46,166742,"0.0-40.0","o9nyoma9hu",67,NA,"<div style=""width:500px;"">
                            <p style=""font-size:50px; font-weight:bold;""
                            >sad</p>
                            <div style=""width:240px; margin: auto;"">
                                <img src=""images/map15_Spectral_scaleDef_orientDef_090.png"" style= ""width:200px""alt=""img"">
                            </div>
                        </div>",0.4125,"",0,"",NA,"","images/map15_Spectral_scaleDef_orientDef_090.png","sad",1,15,15,"Spectral","orientDef","scaleDef","090",NA,NA
"","","","","","html-slider-response",47,168340,"0.0-41.0","o9nyoma9hu",67,NA,"<div style=""width:500px;"">
                            <p style=""font-size:50px; font-weight:bold;""
                            >sad</p>
                            <div style=""width:240px; margin: auto;"">
                                <img src=""images/map10_PuBu_scaleRev_orientDef_000.png"" style= ""width:200px""alt=""img"">
                            </div>
                        </div>",0.7375,"",0,"",NA,"","images/map10_PuBu_scaleRev_orientDef_000.png","sad",1,10,10,"PuBu","orientDef","scaleRev","000",NA,NA
"","","","","","html-slider-response",48,169758,"0.0-42.0","o9nyoma9hu",67,NA,"<div style=""width:500px;"">
                            <p style=""font-size:50px; font-weight:bold;""
                            >sad</p>
                            <div style=""width:240px; margin: auto;"">
                                <img src=""images/map12_PiYG_scaleDef_orientDef_090.png"" style= ""width:200px""alt=""img"">
                            </div>
                        </div>",0.365,"",0,"",NA,"","images/map12_PiYG_scaleDef_orientDef_090.png","sad",1,12,12,"PiYG","orientDef","scaleDef","090",NA,NA
"","","","","","html-slider-response",49,171265,"0.0-43.0","o9nyoma9hu",67,NA,"<div style=""width:500px;"">
                            <p style=""font-size:50px; font-weight:bold;""
                            >sad</p>
                            <div style=""width:240px; margin: auto;"">
                                <img src=""images/map13_RdYlBu_scaleDef_orientMir_090.png"" style= ""width:200px""alt=""img"">
                            </div>
                        </div>",0.6225,"",0,"",NA,"","images/map13_RdYlBu_scaleDef_orientMir_090.png","sad",1,13,13,"RdYlBu","orientMir","scaleDef","090",NA,NA
"","","","","","html-slider-response",50,172479,"0.0-44.0","o9nyoma9hu",67,NA,"<div style=""width:500px;"">
                            <p style=""font-size:50px; font-weight:bold;""
                            >sad</p>
                            <div style=""width:240px; margin: auto;"">
                                <img src=""images/map26_gist_earth_scaleRev_orientDef_000.png"" style= ""width:200px""alt=""img"">
                            </div>
                        </div>",0.3925,"",0,"",NA,"","images/map26_gist_earth_scaleRev_orientDef_000.png","sad",1,26,26,"gist","scaleRev","earth","orientDef",NA,NA
"","","","","","html-slider-response",51,174024,"0.0-45.0","o9nyoma9hu",67,NA,"<div style=""width:500px;"">
                            <p style=""font-size:50px; font-weight:bold;""
                            >sad</p>
                            <div style=""width:240px; margin: auto;"">
                                <img src=""images/map12_BrBG_scaleRev_orientMir_180.png"" style= ""width:200px""alt=""img"">
                            </div>
                        </div>",0.565,"",0,"",NA,"","images/map12_BrBG_scaleRev_orientMir_180.png","sad",1,12,12,"BrBG","orientMir","scaleRev","180",NA,NA
"","","","","","html-slider-response",52,175589,"0.0-46.0","o9nyoma9hu",67,NA,"<div style=""width:500px;"">
                            <p style=""font-size:50px; font-weight:bold;""
                            >sad</p>
                            <div style=""width:240px; margin: auto;"">
                                <img src=""images/map26_inferno_scaleDef_orientMir_270.png"" style= ""width:200px""alt=""img"">
                            </div>
                        </div>",0.4025,"",0,"",NA,"","images/map26_inferno_scaleDef_orientMir_270.png","sad",1,26,26,"inferno","orientMir","scaleDef","270",NA,NA
"","","","","","html-slider-response",53,177029,"0.0-47.0","o9nyoma9hu",67,NA,"<div style=""width:500px;"">
                            <p style=""font-size:50px; font-weight:bold;""
                            >sad</p>
                            <div style=""width:240px; margin: auto;"">
                                <img src=""images/map27_Purples_scaleDef_orientMir_270.png"" style= ""width:200px""alt=""img"">
                            </div>
                        </div>",0.605,"",0,"",NA,"","images/map27_Purples_scaleDef_orientMir_270.png","sad",1,27,27,"Purples","orientMir","scaleDef","270",NA,NA
"","","","","","html-slider-response",54,178396,"0.0-48.0","o9nyoma9hu",67,NA,"<div style=""width:500px;"">
                            <p style=""font-size:50px; font-weight:bold;""
                            >sad</p>
                            <div style=""width:240px; margin: auto;"">
                                <img src=""images/map15_RdYlGn_scaleRev_orientDef_000.png"" style= ""width:200px""alt=""img"">
                            </div>
                        </div>",0.3,"",0,"",NA,"","images/map15_RdYlGn_scaleRev_orientDef_000.png","sad",1,15,15,"RdYlGn","orientDef","scaleRev","000",NA,NA
"","","","","","html-slider-response",55,180127,"0.0-49.0","o9nyoma9hu",67,NA,"<div style=""width:500px;"">
                            <p style=""font-size:50px; font-weight:bold;""
                            >sad</p>
                            <div style=""width:240px; margin: auto;"">
                                <img src=""images/map13_RdYlBu_scaleRev_orientMir_180.png"" style= ""width:200px""alt=""img"">
                            </div>
                        </div>",0.565,"",0,"",NA,"","images/map13_RdYlBu_scaleRev_orientMir_180.png","sad",1,13,13,"RdYlBu","orientMir","scaleRev","180",NA,NA
"","","","","","html-slider-response",56,181446,"0.0-50.0","o9nyoma9hu",67,NA,"<div style=""width:500px;"">
                            <p style=""font-size:50px; font-weight:bold;""
                            >sad</p>
                            <div style=""width:240px; margin: auto;"">
                                <img src=""images/map07_RdPu_scaleDef_orientDef_090.png"" style= ""width:200px""alt=""img"">
                            </div>
                        </div>",0.305,"",0,"",NA,"","images/map07_RdPu_scaleDef_orientDef_090.png","sad",1,7,7,"RdPu","orientDef","scaleDef","090",NA,NA
"","","","","","html-slider-response",57,183373,"0.0-51.0","o9nyoma9hu",67,NA,"<div style=""width:500px;"">
                            <p style=""font-size:50px; font-weight:bold;""
                            >sad</p>
                            <div style=""width:240px; margin: auto;"">
                                <img src=""images/map27_Greys_scaleRev_orientMir_180.png"" style= ""width:200px""alt=""img"">
                            </div>
                        </div>",0.565,"",0,"",NA,"","images/map27_Greys_scaleRev_orientMir_180.png","sad",1,27,27,"Greys","orientMir","scaleRev","180",NA,NA
"","","","","","html-slider-response",58,184973,"0.0-52.0","o9nyoma9hu",67,NA,"<div style=""width:500px;"">
                            <p style=""font-size:50px; font-weight:bold;""
                            >sad</p>
                            <div style=""width:240px; margin: auto;"">
                                <img src=""images/map05_YlOrBr_scaleRev_orientDef_180.png"" style= ""width:200px""alt=""img"">
                            </div>
                        </div>",0.2375,"",0,"",NA,"","images/map05_YlOrBr_scaleRev_orientDef_180.png","sad",1,5,5,"YlOrBr","orientDef","scaleRev","180",NA,NA
"","","","","","html-slider-response",59,187372,"0.0-53.0","o9nyoma9hu",67,NA,"<div style=""width:500px;"">
                            <p style=""font-size:50px; font-weight:bold;""
                            >sad</p>
                            <div style=""width:240px; margin: auto;"">
                                <img src=""images/map10_BuGn_scaleRev_orientMir_180.png"" style= ""width:200px""alt=""img"">
                            </div>
                        </div>",0.23,"",0,"",NA,"","images/map10_BuGn_scaleRev_orientMir_180.png","sad",1,10,10,"BuGn","orientMir","scaleRev","180",NA,NA
"","","","","","html-button-response",60,191121,"0.0-54.0","o9nyoma9hu",67,3244,"<p>You are doing great!<br></br> You are halway done with the current block. When you are ready to continue, click the 'Continue' button.</p>",0.5,"",NA,"",NA,"","","",NA,NA,NA,"","","","",NA,NA
"","","","","","html-slider-response",61,192385,"0.0-55.0","o9nyoma9hu",67,NA,"<div style=""width:500px;"">
                            <p style=""font-size:50px; font-weight:bold;""
                            >sad</p>
                            <div style=""width:240px; margin: auto;"">
                                <img src=""images/map23_vanimo_scaleDef_orientMir_090.png"" style= ""width:200px""alt=""img"">
                            </div>
                        </div>",0.2525,"",0,"",NA,"","images/map23_vanimo_scaleDef_orientMir_090.png","sad",1,23,23,"vanimo","orientMir","scaleDef","090",NA,NA
"","","","","","html-slider-response",62,194691,"0.0-56.0","o9nyoma9hu",67,NA,"<div style=""width:500px;"">
                            <p style=""font-size:50px; font-weight:bold;""
                            >sad</p>
                            <div style=""width:240px; margin: auto;"">
                                <img src=""images/map13_RdBu_scaleRev_orientMir_000.png"" style= ""width:200px""alt=""img"">
                            </div>
                        </div>",0.345,"",0,"",NA,"","images/map13_RdBu_scaleRev_orientMir_000.png","sad",1,13,13,"RdBu","orientMir","scaleRev","000",NA,NA
"","","","","","html-slider-response",63,199514,"0.0-57.0","o9nyoma9hu",67,NA,"<div style=""width:500px;"">
                            <p style=""font-size:50px; font-weight:bold;""
                            >sad</p>
                            <div style=""width:240px; margin: auto;"">
                                <img src=""images/map27_cividis_scaleRev_orientMir_000.png"" style= ""width:200px""alt=""img"">
                            </div>
                        </div>",0.5775,"",0,"",NA,"","images/map27_cividis_scaleRev_orientMir_000.png","sad",1,27,27,"cividis","orientMir","scaleRev","000",NA,NA
"","","","","","html-slider-response",64,201262,"0.0-58.0","o9nyoma9hu",67,NA,"<div style=""width:500px;"">
                            <p style=""font-size:50px; font-weight:bold;""
                            >sad</p>
                            <div style=""width:240px; margin: auto;"">
                                <img src=""images/map07_PuRd_scaleRev_orientDef_000.png"" style= ""width:200px""alt=""img"">
                            </div>
                        </div>",0.32,"",0,"",NA,"","images/map07_PuRd_scaleRev_orientDef_000.png","sad",1,7,7,"PuRd","orientDef","scaleRev","000",NA,NA
"","","","","","html-slider-response",65,202953,"0.0-59.0","o9nyoma9hu",67,NA,"<div style=""width:500px;"">
                            <p style=""font-size:50px; font-weight:bold;""
                            >sad</p>
                            <div style=""width:240px; margin: auto;"">
                                <img src=""images/map05_OrRd_scaleDef_orientMir_090.png"" style= ""width:200px""alt=""img"">
                            </div>
                        </div>",0.39,"",0,"",NA,"","images/map05_OrRd_scaleDef_orientMir_090.png","sad",1,5,5,"OrRd","orientMir","scaleDef","090",NA,NA
"","","","","","html-slider-response",66,204434,"0.0-60.0","o9nyoma9hu",67,NA,"<div style=""width:500px;"">
                            <p style=""font-size:50px; font-weight:bold;""
                            >sad</p>
                            <div style=""width:240px; margin: auto;"">
                                <img src=""images/map07_BuPu_scaleDef_orientDef_270.png"" style= ""width:200px""alt=""img"">
                            </div>
                        </div>",0.39,"",0,"",NA,"","images/map07_BuPu_scaleDef_orientDef_270.png","sad",1,7,7,"BuPu","orientDef","scaleDef","270",NA,NA
"","","","","","html-slider-response",67,206382,"0.0-61.0","o9nyoma9hu",67,NA,"<div style=""width:500px;"">
                            <p style=""font-size:50px; font-weight:bold;""
                            >sad</p>
                            <div style=""width:240px; margin: auto;"">
                                <img src=""images/map13_RdBu_scaleDef_orientDef_270.png"" style= ""width:200px""alt=""img"">
                            </div>
                        </div>",0.6,"",0,"",NA,"","images/map13_RdBu_scaleDef_orientDef_270.png","sad",1,13,13,"RdBu","orientDef","scaleDef","270",NA,NA
"","","","","","html-slider-response",68,208088,"0.0-62.0","o9nyoma9hu",67,NA,"<div style=""width:500px;"">
                            <p style=""font-size:50px; font-weight:bold;""
                            >sad</p>
                            <div style=""width:240px; margin: auto;"">
                                <img src=""images/map02_Greens_scaleRev_orientMir_000.png"" style= ""width:200px""alt=""img"">
                            </div>
                        </div>",0.435,"",0,"",NA,"","images/map02_Greens_scaleRev_orientMir_000.png","sad",1,2,2,"Greens","orientMir","scaleRev","000",NA,NA
"","","","","","html-slider-response",69,210073,"0.0-63.0","o9nyoma9hu",67,NA,"<div style=""width:500px;"">
                            <p style=""font-size:50px; font-weight:bold;""
                            >sad</p>
                            <div style=""width:240px; margin: auto;"">
                                <img src=""images/map12_PiYG_scaleRev_orientDef_180.png"" style= ""width:200px""alt=""img"">
                            </div>
                        </div>",0.385,"",0,"",NA,"","images/map12_PiYG_scaleRev_orientDef_180.png","sad",1,12,12,"PiYG","orientDef","scaleRev","180",NA,NA
"","","","","","html-slider-response",70,211774,"0.0-64.0","o9nyoma9hu",67,NA,"<div style=""width:500px;"">
                            <p style=""font-size:50px; font-weight:bold;""
                            >sad</p>
                            <div style=""width:240px; margin: auto;"">
                                <img src=""images/map23_berlin_scaleRev_orientDef_180.png"" style= ""width:200px""alt=""img"">
                            </div>
                        </div>",0.6925,"",0,"",NA,"","images/map23_berlin_scaleRev_orientDef_180.png","sad",1,23,23,"berlin","orientDef","scaleRev","180",NA,NA
"","","","","","html-slider-response",71,213595,"0.0-65.0","o9nyoma9hu",67,NA,"<div style=""width:500px;"">
                            <p style=""font-size:50px; font-weight:bold;""
                            >sad</p>
                            <div style=""width:240px; margin: auto;"">
                                <img src=""images/map15_bwr_scaleRev_orientMir_180.png"" style= ""width:200px""alt=""img"">
                            </div>
                        </div>",0.5525,"",0,"",NA,"","images/map15_bwr_scaleRev_orientMir_180.png","sad",1,15,15,"bwr","orientMir","scaleRev","180",NA,NA
"","","","","","html-slider-response",72,215347,"0.0-66.0","o9nyoma9hu",67,NA,"<div style=""width:500px;"">
                            <p style=""font-size:50px; font-weight:bold;""
                            >sad</p>
                            <div style=""width:240px; margin: auto;"">
                                <img src=""images/map26_viridis_scaleRev_orientMir_000.png"" style= ""width:200px""alt=""img"">
                            </div>
                        </div>",0.585,"",0,"",NA,"","images/map26_viridis_scaleRev_orientMir_000.png","sad",1,26,26,"viridis","orientMir","scaleRev","000",NA,NA
"","","","","","html-slider-response",73,217298,"0.0-67.0","o9nyoma9hu",67,NA,"<div style=""width:500px;"">
                            <p style=""font-size:50px; font-weight:bold;""
                            >sad</p>
                            <div style=""width:240px; margin: auto;"">
                                <img src=""images/map13_RdYlGn_scaleDef_orientMir_270.png"" style= ""width:200px""alt=""img"">
                            </div>
                        </div>",0.155,"",0,"",NA,"","images/map13_RdYlGn_scaleDef_orientMir_270.png","sad",1,13,13,"RdYlGn","orientMir","scaleDef","270",NA,NA
"","","","","","html-slider-response",74,218906,"0.0-68.0","o9nyoma9hu",67,NA,"<div style=""width:500px;"">
                            <p style=""font-size:50px; font-weight:bold;""
                            >sad</p>
                            <div style=""width:240px; margin: auto;"">
                                <img src=""images/map23_gist_earth_scaleDef_orientMir_270.png"" style= ""width:200px""alt=""img"">
                            </div>
                        </div>",0.245,"",0,"",NA,"","images/map23_gist_earth_scaleDef_orientMir_270.png","sad",1,23,23,"gist","scaleDef","earth","orientMir",NA,NA
"","","","","","html-slider-response",75,221082,"0.0-69.0","o9nyoma9hu",67,NA,"<div style=""width:500px;"">
                            <p style=""font-size:50px; font-weight:bold;""
                            >sad</p>
                            <div style=""width:240px; margin: auto;"">
                                <img src=""images/map27_magma_scaleRev_orientDef_180.png"" style= ""width:200px""alt=""img"">
                            </div>
                        </div>",0.59,"",0,"",NA,"","images/map27_magma_scaleRev_orientDef_180.png","sad",1,27,27,"magma","orientDef","scaleRev","180",NA,NA
"","","","","","html-slider-response",76,222880,"0.0-70.0","o9nyoma9hu",67,NA,"<div style=""width:500px;"">
                            <p style=""font-size:50px; font-weight:bold;""
                            >sad</p>
                            <div style=""width:240px; margin: auto;"">
                                <img src=""images/map27_magma_scaleDef_orientDef_090.png"" style= ""width:200px""alt=""img"">
                            </div>
                        </div>",0.585,"",0,"",NA,"","images/map27_magma_scaleDef_orientDef_090.png","sad",1,27,27,"magma","orientDef","scaleDef","090",NA,NA
"","","","","","html-slider-response",77,225056,"0.0-71.0","o9nyoma9hu",67,NA,"<div style=""width:500px;"">
                            <p style=""font-size:50px; font-weight:bold;""
                            >sad</p>
                            <div style=""width:240px; margin: auto;"">
                                <img src=""images/map07_RdPu_scaleRev_orientDef_180.png"" style= ""width:200px""alt=""img"">
                            </div>
                        </div>",0.4525,"",0,"",NA,"","images/map07_RdPu_scaleRev_orientDef_180.png","sad",1,7,7,"RdPu","orientDef","scaleRev","180",NA,NA
"","","","","","html-slider-response",78,226747,"0.0-72.0","o9nyoma9hu",67,NA,"<div style=""width:500px;"">
                            <p style=""font-size:50px; font-weight:bold;""
                            >sad</p>
                            <div style=""width:240px; margin: auto;"">
                                <img src=""images/map15_Spectral_scaleRev_orientDef_180.png"" style= ""width:200px""alt=""img"">
                            </div>
                        </div>",0.6075,"",0,"",NA,"","images/map15_Spectral_scaleRev_orientDef_180.png","sad",1,15,15,"Spectral","orientDef","scaleRev","180",NA,NA
"","","","","","html-slider-response",79,230037,"0.0-73.0","o9nyoma9hu",67,NA,"<div style=""width:500px;"">
                            <p style=""font-size:50px; font-weight:bold;""
                            >sad</p>
                            <div style=""width:240px; margin: auto;"">
                                <img src=""images/map05_PuRd_scaleDef_orientMir_270.png"" style= ""width:200px""alt=""img"">
                            </div>
                        </div>",0.3325,"",0,"",NA,"","images/map05_PuRd_scaleDef_orientMir_270.png","sad",1,5,5,"PuRd","orientMir","scaleDef","270",NA,NA
"","","","","","html-slider-response",80,236197,"0.0-74.0","o9nyoma9hu",67,NA,"<div style=""width:500px;"">
                            <p style=""font-size:50px; font-weight:bold;""
                            >sad</p>
                            <div style=""width:240px; margin: auto;"">
                                <img src=""images/map02_Blues_scaleRev_orientDef_180.png"" style= ""width:200px""alt=""img"">
                            </div>
                        </div>",0.595,"",0,"",NA,"","images/map02_Blues_scaleRev_orientDef_180.png","sad",1,2,2,"Blues","orientDef","scaleRev","180",NA,NA
"","","","","","html-slider-response",81,237695,"0.0-75.0","o9nyoma9hu",67,NA,"<div style=""width:500px;"">
                            <p style=""font-size:50px; font-weight:bold;""
                            >sad</p>
                            <div style=""width:240px; margin: auto;"">
                                <img src=""images/map07_GnBu_scaleRev_orientMir_180.png"" style= ""width:200px""alt=""img"">
                            </div>
                        </div>",0.595,"",0,"",NA,"","images/map07_GnBu_scaleRev_orientMir_180.png","sad",1,7,7,"GnBu","orientMir","scaleRev","180",NA,NA
"","","","","","html-slider-response",82,239172,"0.0-76.0","o9nyoma9hu",67,NA,"<div style=""width:500px;"">
                            <p style=""font-size:50px; font-weight:bold;""
                            >sad</p>
                            <div style=""width:240px; margin: auto;"">
                                <img src=""images/map23_berlin_scaleDef_orientDef_090.png"" style= ""width:200px""alt=""img"">
                            </div>
                        </div>",0.595,"",0,"",NA,"","images/map23_berlin_scaleDef_orientDef_090.png","sad",1,23,23,"berlin","orientDef","scaleDef","090",NA,NA
"","","","","","html-slider-response",83,241397,"0.0-77.0","o9nyoma9hu",67,NA,"<div style=""width:500px;"">
                            <p style=""font-size:50px; font-weight:bold;""
                            >sad</p>
                            <div style=""width:240px; margin: auto;"">
                                <img src=""images/map23_managua_scaleDef_orientDef_270.png"" style= ""width:200px""alt=""img"">
                            </div>
                        </div>",0.595,"",0,"",NA,"","images/map23_managua_scaleDef_orientDef_270.png","sad",1,23,23,"managua","orientDef","scaleDef","270",NA,NA
"","","","","","html-slider-response",84,243015,"0.0-78.0","o9nyoma9hu",67,NA,"<div style=""width:500px;"">
                            <p style=""font-size:50px; font-weight:bold;""
                            >sad</p>
                            <div style=""width:240px; margin: auto;"">
                                <img src=""images/map26_turbo_scaleRev_orientDef_180.png"" style= ""width:200px""alt=""img"">
                            </div>
                        </div>",0.7475,"",0,"",NA,"","images/map26_turbo_scaleRev_orientDef_180.png","sad",1,26,26,"turbo","orientDef","scaleRev","180",NA,NA
"","","","","","html-slider-response",85,244469,"0.0-79.0","o9nyoma9hu",67,NA,"<div style=""width:500px;"">
                            <p style=""font-size:50px; font-weight:bold;""
                            >sad</p>
                            <div style=""width:240px; margin: auto;"">
                                <img src=""images/map12_PRGn_scaleDef_orientDef_270.png"" style= ""width:200px""alt=""img"">
                            </div>
                        </div>",0.3275,"",0,"",NA,"","images/map12_PRGn_scaleDef_orientDef_270.png","sad",1,12,12,"PRGn","orientDef","scaleDef","270",NA,NA
"","","","","","html-slider-response",86,246089,"0.0-80.0","o9nyoma9hu",67,NA,"<div style=""width:500px;"">
                            <p style=""font-size:50px; font-weight:bold;""
                            >sad</p>
                            <div style=""width:240px; margin: auto;"">
                                <img src=""images/map26_plasma_scaleRev_orientMir_180.png"" style= ""width:200px""alt=""img"">
                            </div>
                        </div>",0.7325,"",0,"",NA,"","images/map26_plasma_scaleRev_orientMir_180.png","sad",1,26,26,"plasma","orientMir","scaleRev","180",NA,NA
"","","","","","html-slider-response",87,248296,"0.0-81.0","o9nyoma9hu",67,NA,"<div style=""width:500px;"">
                            <p style=""font-size:50px; font-weight:bold;""
                            >sad</p>
                            <div style=""width:240px; margin: auto;"">
                                <img src=""images/map10_PuBuGn_scaleDef_orientDef_270.png"" style= ""width:200px""alt=""img"">
                            </div>
                        </div>",0.6925,"",0,"",NA,"","images/map10_PuBuGn_scaleDef_orientDef_270.png","sad",1,10,10,"PuBuGn","orientDef","scaleDef","270",NA,NA
"","","","","","html-slider-response",88,249747,"0.0-82.0","o9nyoma9hu",67,NA,"<div style=""width:500px;"">
                            <p style=""font-size:50px; font-weight:bold;""
                            >sad</p>
                            <div style=""width:240px; margin: auto;"">
                                <img src=""images/map15_coolwarm_scaleRev_orientMir_000.png"" style= ""width:200px""alt=""img"">
                            </div>
                        </div>",0.685,"",0,"",NA,"","images/map15_coolwarm_scaleRev_orientMir_000.png","sad",1,15,15,"coolwarm","orientMir","scaleRev","000",NA,NA
"","","","","","html-slider-response",89,251270,"0.0-83.0","o9nyoma9hu",67,NA,"<div style=""width:500px;"">
                            <p style=""font-size:50px; font-weight:bold;""
                            >sad</p>
                            <div style=""width:240px; margin: auto;"">
                                <img src=""images/map12_PRGn_scaleRev_orientMir_000.png"" style= ""width:200px""alt=""img"">
                            </div>
                        </div>",0.2225,"",0,"",NA,"","images/map12_PRGn_scaleRev_orientMir_000.png","sad",1,12,12,"PRGn","orientMir","scaleRev","000",NA,NA
"","","","","","html-slider-response",90,253420,"0.0-84.0","o9nyoma9hu",67,NA,"<div style=""width:500px;"">
                            <p style=""font-size:50px; font-weight:bold;""
                            >sad</p>
                            <div style=""width:240px; margin: auto;"">
                                <img src=""images/map07_GnBu_scaleDef_orientMir_090.png"" style= ""width:200px""alt=""img"">
                            </div>
                        </div>",0.72,"",0,"",NA,"","images/map07_GnBu_scaleDef_orientMir_090.png","sad",1,7,7,"GnBu","orientMir","scaleDef","090",NA,NA
"","","","","","html-slider-response",91,255295,"0.0-85.0","o9nyoma9hu",67,NA,"<div style=""width:500px;"">
                            <p style=""font-size:50px; font-weight:bold;""
                            >sad</p>
                            <div style=""width:240px; margin: auto;"">
                                <img src=""images/map27_inferno_scaleRev_orientDef_000.png"" style= ""width:200px""alt=""img"">
                            </div>
                        </div>",0.5925,"",0,"",NA,"","images/map27_inferno_scaleRev_orientDef_000.png","sad",1,27,27,"inferno","orientDef","scaleRev","000",NA,NA
"","","","","","html-slider-response",92,256754,"0.0-86.0","o9nyoma9hu",67,NA,"<div style=""width:500px;"">
                            <p style=""font-size:50px; font-weight:bold;""
                            >sad</p>
                            <div style=""width:240px; margin: auto;"">
                                <img src=""images/map05_Reds_scaleRev_orientDef_000.png"" style= ""width:200px""alt=""img"">
                            </div>
                        </div>",0.255,"",0,"",NA,"","images/map05_Reds_scaleRev_orientDef_000.png","sad",1,5,5,"Reds","orientDef","scaleRev","000",NA,NA
"","","","","","html-slider-response",93,259368,"0.0-87.0","o9nyoma9hu",67,NA,"<div style=""width:500px;"">
                            <p style=""font-size:50px; font-weight:bold;""
                            >sad</p>
                            <div style=""width:240px; margin: auto;"">
                                <img src=""images/map12_BrBG_scaleDef_orientMir_090.png"" style= ""width:200px""alt=""img"">
                            </div>
                        </div>",0.6525,"",0,"",NA,"","images/map12_BrBG_scaleDef_orientMir_090.png","sad",1,12,12,"BrBG","orientMir","scaleDef","090",NA,NA
"","","","","","html-slider-response",94,261957,"0.0-88.0","o9nyoma9hu",67,NA,"<div style=""width:500px;"">
                            <p style=""font-size:50px; font-weight:bold;""
                            >sad</p>
                            <div style=""width:240px; margin: auto;"">
                                <img src=""images/map10_BuGn_scaleDef_orientMir_090.png"" style= ""width:200px""alt=""img"">
                            </div>
                        </div>",0.26,"",0,"",NA,"","images/map10_BuGn_scaleDef_orientMir_090.png","sad",1,10,10,"BuGn","orientMir","scaleDef","090",NA,NA
"","","","","","html-slider-response",95,263934,"0.0-89.0","o9nyoma9hu",67,NA,"<div style=""width:500px;"">
                            <p style=""font-size:50px; font-weight:bold;""
                            >sad</p>
                            <div style=""width:240px; margin: auto;"">
                                <img src=""images/map12_PuOr_scaleDef_orientMir_270.png"" style= ""width:200px""alt=""img"">
                            </div>
                        </div>",0.575,"",0,"",NA,"","images/map12_PuOr_scaleDef_orientMir_270.png","sad",1,12,12,"PuOr","orientMir","scaleDef","270",NA,NA
"","","","","","html-slider-response",96,265888,"0.0-90.0","o9nyoma9hu",67,NA,"<div style=""width:500px;"">
                            <p style=""font-size:50px; font-weight:bold;""
                            >sad</p>
                            <div style=""width:240px; margin: auto;"">
                                <img src=""images/map15_coolwarm_scaleDef_orientDef_270.png"" style= ""width:200px""alt=""img"">
                            </div>
                        </div>",0.685,"",0,"",NA,"","images/map15_coolwarm_scaleDef_orientDef_270.png","sad",1,15,15,"coolwarm","orientDef","scaleDef","270",NA,NA
"","","","","","html-slider-response",97,267742,"0.0-91.0","o9nyoma9hu",67,NA,"<div style=""width:500px;"">
                            <p style=""font-size:50px; font-weight:bold;""
                            >sad</p>
                            <div style=""width:240px; margin: auto;"">
                                <img src=""images/map15_bwr_scaleDef_orientMir_090.png"" style= ""width:200px""alt=""img"">
                            </div>
                        </div>",0.695,"",0,"",NA,"","images/map15_bwr_scaleDef_orientMir_090.png","sad",1,15,15,"bwr","orientMir","scaleDef","090",NA,NA
"","","","","","html-slider-response",98,269336,"0.0-92.0","o9nyoma9hu",67,NA,"<div style=""width:500px;"">
                            <p style=""font-size:50px; font-weight:bold;""
                            >sad</p>
                            <div style=""width:240px; margin: auto;"">
                                <img src=""images/map02_Blues_scaleDef_orientDef_090.png"" style= ""width:200px""alt=""img"">
                            </div>
                        </div>",0.8375,"",0,"",NA,"","images/map02_Blues_scaleDef_orientDef_090.png","sad",1,2,2,"Blues","orientDef","scaleDef","090",NA,NA
"","","","","","html-slider-response",99,270955,"0.0-93.0","o9nyoma9hu",67,NA,"<div style=""width:500px;"">
                            <p style=""font-size:50px; font-weight:bold;""
                            >sad</p>
                            <div style=""width:240px; margin: auto;"">
                                <img src=""images/map13_RdGy_scaleDef_orientDef_090.png"" style= ""width:200px""alt=""img"">
                            </div>
                        </div>",0.58,"",0,"",NA,"","images/map13_RdGy_scaleDef_orientDef_090.png","sad",1,13,13,"RdGy","orientDef","scaleDef","090",NA,NA
"","","","","","html-slider-response",100,273112,"0.0-94.0","o9nyoma9hu",67,NA,"<div style=""width:500px;"">
                            <p style=""font-size:50px; font-weight:bold;""
                            >sad</p>
                            <div style=""width:240px; margin: auto;"">
                                <img src=""images/map26_turbo_scaleDef_orientDef_090.png"" style= ""width:200px""alt=""img"">
                            </div>
                        </div>",0.405,"",0,"",NA,"","images/map26_turbo_scaleDef_orientDef_090.png","sad",1,26,26,"turbo","orientDef","scaleDef","090",NA,NA
"","","","","","html-button-response",101,274671,"0.0-95.0","o9nyoma9hu",67,1052,"<p>Great Job! You've finished block 1.<br></br> You have 4 block(s) left to go.<br></br></p>",0.5,"",NA,"",NA,"","","",NA,NA,NA,"","","","",NA,NA
"","","","","","html-button-response",102,280060,"0.0-96.0","o9nyoma9hu",67,5388,"<p>In this block of trials, you will be asked to rate how much you associate each map with:</p > <p style = 'font-size:150%; font-weight: bold'>fearful</p><br></br>",0.5,"",NA,"",NA,"","","",NA,NA,NA,"","","","",NA,NA
"","","","","","html-slider-response",103,282613,"0.0-97.0","o9nyoma9hu",67,NA,"<div style=""width:500px;"">
                            <p style=""font-size:50px; font-weight:bold;""
                            >fearful</p>
                            <div style=""width:240px; margin: auto;"">
                                <img src=""images/map26_inferno_scaleDef_orientMir_270.png"" style= ""width:200px""alt=""img"">
                            </div>
                        </div>",0.805,"",0,"",NA,"","images/map26_inferno_scaleDef_orientMir_270.png","fearful",1,26,26,"inferno","orientMir","scaleDef","270",NA,NA
"","","","","","html-slider-response",104,288313,"0.0-98.0","o9nyoma9hu",67,NA,"<div style=""width:500px;"">
                            <p style=""font-size:50px; font-weight:bold;""
                            >fearful</p>
                            <div style=""width:240px; margin: auto;"">
                                <img src=""images/map13_RdBu_scaleRev_orientMir_000.png"" style= ""width:200px""alt=""img"">
                            </div>
                        </div>",0.355,"",0,"",NA,"","images/map13_RdBu_scaleRev_orientMir_000.png","fearful",1,13,13,"RdBu","orientMir","scaleRev","000",NA,NA
"","","","","","html-slider-response",105,289977,"0.0-99.0","o9nyoma9hu",67,NA,"<div style=""width:500px;"">
                            <p style=""font-size:50px; font-weight:bold;""
                            >fearful</p>
                            <div style=""width:240px; margin: auto;"">
                                <img src=""images/map10_PuBuGn_scaleRev_orientMir_000.png"" style= ""width:200px""alt=""img"">
                            </div>
                        </div>",0.395,"",0,"",NA,"","images/map10_PuBuGn_scaleRev_orientMir_000.png","fearful",1,10,10,"PuBuGn","orientMir","scaleRev","000",NA,NA
"","","","","","html-slider-response",106,296951,"0.0-100.0","o9nyoma9hu",67,NA,"<div style=""width:500px;"">
                            <p style=""font-size:50px; font-weight:bold;""
                            >fearful</p>
                            <div style=""width:240px; margin: auto;"">
                                <img src=""images/map07_PuRd_scaleRev_orientDef_000.png"" style= ""width:200px""alt=""img"">
                            </div>
                        </div>",0.4275,"",0,"",NA,"","images/map07_PuRd_scaleRev_orientDef_000.png","fearful",1,7,7,"PuRd","orientDef","scaleRev","000",NA,NA
"","","","","","html-slider-response",107,299065,"0.0-101.0","o9nyoma9hu",67,NA,"<div style=""width:500px;"">
                            <p style=""font-size:50px; font-weight:bold;""
                            >fearful</p>
                            <div style=""width:240px; margin: auto;"">
                                <img src=""images/map12_PRGn_scaleRev_orientMir_000.png"" style= ""width:200px""alt=""img"">
                            </div>
                        </div>",0.2525,"",0,"",NA,"","images/map12_PRGn_scaleRev_orientMir_000.png","fearful",1,12,12,"PRGn","orientMir","scaleRev","000",NA,NA
"","","","","","html-slider-response",108,302779,"0.0-102.0","o9nyoma9hu",67,NA,"<div style=""width:500px;"">
                            <p style=""font-size:50px; font-weight:bold;""
                            >fearful</p>
                            <div style=""width:240px; margin: auto;"">
                                <img src=""images/map13_RdGy_scaleRev_orientDef_180.png"" style= ""width:200px""alt=""img"">
                            </div>
                        </div>",0.5625,"",0,"",NA,"","images/map13_RdGy_scaleRev_orientDef_180.png","fearful",1,13,13,"RdGy","orientDef","scaleRev","180",NA,NA
"","","","","","html-slider-response",109,304838,"0.0-103.0","o9nyoma9hu",67,NA,"<div style=""width:500px;"">
                            <p style=""font-size:50px; font-weight:bold;""
                            >fearful</p>
                            <div style=""width:240px; margin: auto;"">
                                <img src=""images/map13_RdYlGn_scaleDef_orientMir_270.png"" style= ""width:200px""alt=""img"">
                            </div>
                        </div>",0.395,"",0,"",NA,"","images/map13_RdYlGn_scaleDef_orientMir_270.png","fearful",1,13,13,"RdYlGn","orientMir","scaleDef","270",NA,NA
"","","","","","html-slider-response",110,307319,"0.0-104.0","o9nyoma9hu",67,NA,"<div style=""width:500px;"">
                            <p style=""font-size:50px; font-weight:bold;""
                            >fearful</p>
                            <div style=""width:240px; margin: auto;"">
                                <img src=""images/map07_BuPu_scaleRev_orientMir_000.png"" style= ""width:200px""alt=""img"">
                            </div>
                        </div>",0.35,"",0,"",NA,"","images/map07_BuPu_scaleRev_orientMir_000.png","fearful",1,7,7,"BuPu","orientMir","scaleRev","000",NA,NA
"","","","","","html-slider-response",111,309028,"0.0-105.0","o9nyoma9hu",67,NA,"<div style=""width:500px;"">
                            <p style=""font-size:50px; font-weight:bold;""
                            >fearful</p>
                            <div style=""width:240px; margin: auto;"">
                                <img src=""images/map23_vanimo_scaleRev_orientMir_180.png"" style= ""width:200px""alt=""img"">
                            </div>
                        </div>",0.6825,"",0,"",NA,"","images/map23_vanimo_scaleRev_orientMir_180.png","fearful",1,23,23,"vanimo","orientMir","scaleRev","180",NA,NA
"","","","","","html-slider-response",112,311275,"0.0-106.0","o9nyoma9hu",67,NA,"<div style=""width:500px;"">
                            <p style=""font-size:50px; font-weight:bold;""
                            >fearful</p>
                            <div style=""width:240px; margin: auto;"">
                                <img src=""images/map05_Reds_scaleRev_orientDef_000.png"" style= ""width:200px""alt=""img"">
                            </div>
                        </div>",0.5375,"",0,"",NA,"","images/map05_Reds_scaleRev_orientDef_000.png","fearful",1,5,5,"Reds","orientDef","scaleRev","000",NA,NA
"","","","","","html-slider-response",113,312896,"0.0-107.0","o9nyoma9hu",67,NA,"<div style=""width:500px;"">
                            <p style=""font-size:50px; font-weight:bold;""
                            >fearful</p>
                            <div style=""width:240px; margin: auto;"">
                                <img src=""images/map27_magma_scaleRev_orientDef_180.png"" style= ""width:200px""alt=""img"">
                            </div>
                        </div>",0.785,"",0,"",NA,"","images/map27_magma_scaleRev_orientDef_180.png","fearful",1,27,27,"magma","orientDef","scaleRev","180",NA,NA
"","","","","","html-slider-response",114,314553,"0.0-108.0","o9nyoma9hu",67,NA,"<div style=""width:500px;"">
                            <p style=""font-size:50px; font-weight:bold;""
                            >fearful</p>
                            <div style=""width:240px; margin: auto;"">
                                <img src=""images/map05_YlOrBr_scaleRev_orientDef_180.png"" style= ""width:200px""alt=""img"">
                            </div>
                        </div>",0.32,"",0,"",NA,"","images/map05_YlOrBr_scaleRev_orientDef_180.png","fearful",1,5,5,"YlOrBr","orientDef","scaleRev","180",NA,NA
"","","","","","html-slider-response",115,316311,"0.0-109.0","o9nyoma9hu",67,NA,"<div style=""width:500px;"">
                            <p style=""font-size:50px; font-weight:bold;""
                            >fearful</p>
                            <div style=""width:240px; margin: auto;"">
                                <img src=""images/map10_PuBuGn_scaleDef_orientDef_270.png"" style= ""width:200px""alt=""img"">
                            </div>
                        </div>",0.32,"",0,"",NA,"","images/map10_PuBuGn_scaleDef_orientDef_270.png","fearful",1,10,10,"PuBuGn","orientDef","scaleDef","270",NA,NA
"","","","","","html-slider-response",116,317809,"0.0-110.0","o9nyoma9hu",67,NA,"<div style=""width:500px;"">
                            <p style=""font-size:50px; font-weight:bold;""
                            >fearful</p>
                            <div style=""width:240px; margin: auto;"">
                                <img src=""images/map15_RdYlGn_scaleRev_orientDef_000.png"" style= ""width:200px""alt=""img"">
                            </div>
                        </div>",0.32,"",0,"",NA,"","images/map15_RdYlGn_scaleRev_orientDef_000.png","fearful",1,15,15,"RdYlGn","orientDef","scaleRev","000",NA,NA
"","","","","","html-slider-response",117,319474,"0.0-111.0","o9nyoma9hu",67,NA,"<div style=""width:500px;"">
                            <p style=""font-size:50px; font-weight:bold;""
                            >fearful</p>
                            <div style=""width:240px; margin: auto;"">
                                <img src=""images/map02_Blues_scaleRev_orientDef_180.png"" style= ""width:200px""alt=""img"">
                            </div>
                        </div>",0.66,"",0,"",NA,"","images/map02_Blues_scaleRev_orientDef_180.png","fearful",1,2,2,"Blues","orientDef","scaleRev","180",NA,NA
"","","","","","html-slider-response",118,321083,"0.0-112.0","o9nyoma9hu",67,NA,"<div style=""width:500px;"">
                            <p style=""font-size:50px; font-weight:bold;""
                            >fearful</p>
                            <div style=""width:240px; margin: auto;"">
                                <img src=""images/map15_coolwarm_scaleDef_orientDef_270.png"" style= ""width:200px""alt=""img"">
                            </div>
                        </div>",0.3275,"",0,"",NA,"","images/map15_coolwarm_scaleDef_orientDef_270.png","fearful",1,15,15,"coolwarm","orientDef","scaleDef","270",NA,NA
"","","","","","html-slider-response",119,322806,"0.0-113.0","o9nyoma9hu",67,NA,"<div style=""width:500px;"">
                            <p style=""font-size:50px; font-weight:bold;""
                            >fearful</p>
                            <div style=""width:240px; margin: auto;"">
                                <img src=""images/map02_Purples_scaleRev_orientDef_000.png"" style= ""width:200px""alt=""img"">
                            </div>
                        </div>",0.3075,"",0,"",NA,"","images/map02_Purples_scaleRev_orientDef_000.png","fearful",1,2,2,"Purples","orientDef","scaleRev","000",NA,NA
"","","","","","html-slider-response",120,324684,"0.0-114.0","o9nyoma9hu",67,NA,"<div style=""width:500px;"">
                            <p style=""font-size:50px; font-weight:bold;""
                            >fearful</p>
                            <div style=""width:240px; margin: auto;"">
                                <img src=""images/map05_OrRd_scaleDef_orientMir_090.png"" style= ""width:200px""alt=""img"">
                            </div>
                        </div>",0.235,"",0,"",NA,"","images/map05_OrRd_scaleDef_orientMir_090.png","fearful",1,5,5,"OrRd","orientMir","scaleDef","090",NA,NA
"","","","","","html-slider-response",121,326713,"0.0-115.0","o9nyoma9hu",67,NA,"<div style=""width:500px;"">
                            <p style=""font-size:50px; font-weight:bold;""
                            >fearful</p>
                            <div style=""width:240px; margin: auto;"">
                                <img src=""images/map02_Oranges_scaleRev_orientMir_180.png"" style= ""width:200px""alt=""img"">
                            </div>
                        </div>",0.4075,"",0,"",NA,"","images/map02_Oranges_scaleRev_orientMir_180.png","fearful",1,2,2,"Oranges","orientMir","scaleRev","180",NA,NA
"","","","","","html-slider-response",122,328948,"0.0-116.0","o9nyoma9hu",67,NA,"<div style=""width:500px;"">
                            <p style=""font-size:50px; font-weight:bold;""
                            >fearful</p>
                            <div style=""width:240px; margin: auto;"">
                                <img src=""images/map02_Greens_scaleDef_orientDef_270.png"" style= ""width:200px""alt=""img"">
                            </div>
                        </div>",0.295,"",0,"",NA,"","images/map02_Greens_scaleDef_orientDef_270.png","fearful",1,2,2,"Greens","orientDef","scaleDef","270",NA,NA
"","","","","","html-slider-response",123,331289,"0.0-117.0","o9nyoma9hu",67,NA,"<div style=""width:500px;"">
                            <p style=""font-size:50px; font-weight:bold;""
                            >fearful</p>
                            <div style=""width:240px; margin: auto;"">
                                <img src=""images/map26_turbo_scaleRev_orientDef_180.png"" style= ""width:200px""alt=""img"">
                            </div>
                        </div>",0.54,"",0,"",NA,"","images/map26_turbo_scaleRev_orientDef_180.png","fearful",1,26,26,"turbo","orientDef","scaleRev","180",NA,NA
"","","","","","html-slider-response",124,333451,"0.0-118.0","o9nyoma9hu",67,NA,"<div style=""width:500px;"">
                            <p style=""font-size:50px; font-weight:bold;""
                            >fearful</p>
                            <div style=""width:240px; margin: auto;"">
                                <img src=""images/map12_YlGn_scaleRev_orientDef_000.png"" style= ""width:200px""alt=""img"">
                            </div>
                        </div>",0.105,"",0,"",NA,"","images/map12_YlGn_scaleRev_orientDef_000.png","fearful",1,12,12,"YlGn","orientDef","scaleRev","000",NA,NA
"","","","","","html-slider-response",125,334940,"0.0-119.0","o9nyoma9hu",67,NA,"<div style=""width:500px;"">
                            <p style=""font-size:50px; font-weight:bold;""
                            >fearful</p>
                            <div style=""width:240px; margin: auto;"">
                                <img src=""images/map23_vanimo_scaleDef_orientMir_090.png"" style= ""width:200px""alt=""img"">
                            </div>
                        </div>",0.785,"",0,"",NA,"","images/map23_vanimo_scaleDef_orientMir_090.png","fearful",1,23,23,"vanimo","orientMir","scaleDef","090",NA,NA
"","","","","","html-slider-response",126,337038,"0.0-120.0","o9nyoma9hu",67,NA,"<div style=""width:500px;"">
                            <p style=""font-size:50px; font-weight:bold;""
                            >fearful</p>
                            <div style=""width:240px; margin: auto;"">
                                <img src=""images/map15_coolwarm_scaleRev_orientMir_000.png"" style= ""width:200px""alt=""img"">
                            </div>
                        </div>",0.335,"",0,"",NA,"","images/map15_coolwarm_scaleRev_orientMir_000.png","fearful",1,15,15,"coolwarm","orientMir","scaleRev","000",NA,NA
"","","","","","html-slider-response",127,338695,"0.0-121.0","o9nyoma9hu",67,NA,"<div style=""width:500px;"">
                            <p style=""font-size:50px; font-weight:bold;""
                            >fearful</p>
                            <div style=""width:240px; margin: auto;"">
                                <img src=""images/map27_inferno_scaleRev_orientDef_000.png"" style= ""width:200px""alt=""img"">
                            </div>
                        </div>",0.87,"",0,"",NA,"","images/map27_inferno_scaleRev_orientDef_000.png","fearful",1,27,27,"inferno","orientDef","scaleRev","000",NA,NA
"","","","","","html-slider-response",128,340722,"0.0-122.0","o9nyoma9hu",67,NA,"<div style=""width:500px;"">
                            <p style=""font-size:50px; font-weight:bold;""
                            >fearful</p>
                            <div style=""width:240px; margin: auto;"">
                                <img src=""images/map23_gist_earth_scaleDef_orientMir_270.png"" style= ""width:200px""alt=""img"">
                            </div>
                        </div>",0.6075,"",0,"",NA,"","images/map23_gist_earth_scaleDef_orientMir_270.png","fearful",1,23,23,"gist","scaleDef","earth","orientMir",NA,NA
"","","","","","html-slider-response",129,342618,"0.0-123.0","o9nyoma9hu",67,NA,"<div style=""width:500px;"">
                            <p style=""font-size:50px; font-weight:bold;""
                            >fearful</p>
                            <div style=""width:240px; margin: auto;"">
                                <img src=""images/map02_Oranges_scaleDef_orientMir_090.png"" style= ""width:200px""alt=""img"">
                            </div>
                        </div>",0.335,"",0,"",NA,"","images/map02_Oranges_scaleDef_orientMir_090.png","fearful",1,2,2,"Oranges","orientMir","scaleDef","090",NA,NA
"","","","","","html-slider-response",130,344395,"0.0-124.0","o9nyoma9hu",67,NA,"<div style=""width:500px;"">
                            <p style=""font-size:50px; font-weight:bold;""
                            >fearful</p>
                            <div style=""width:240px; margin: auto;"">
                                <img src=""images/map23_seismic_scaleRev_orientDef_000.png"" style= ""width:200px""alt=""img"">
                            </div>
                        </div>",0.67,"",0,"",NA,"","images/map23_seismic_scaleRev_orientDef_000.png","fearful",1,23,23,"seismic","orientDef","scaleRev","000",NA,NA
"","","","","","html-slider-response",131,346207,"0.0-125.0","o9nyoma9hu",67,NA,"<div style=""width:500px;"">
                            <p style=""font-size:50px; font-weight:bold;""
                            >fearful</p>
                            <div style=""width:240px; margin: auto;"">
                                <img src=""images/map15_Spectral_scaleDef_orientDef_090.png"" style= ""width:200px""alt=""img"">
                            </div>
                        </div>",0.3475,"",0,"",NA,"","images/map15_Spectral_scaleDef_orientDef_090.png","fearful",1,15,15,"Spectral","orientDef","scaleDef","090",NA,NA
"","","","","","html-slider-response",132,348524,"0.0-126.0","o9nyoma9hu",67,NA,"<div style=""width:500px;"">
                            <p style=""font-size:50px; font-weight:bold;""
                            >fearful</p>
                            <div style=""width:240px; margin: auto;"">
                                <img src=""images/map02_Reds_scaleDef_orientMir_270.png"" style= ""width:200px""alt=""img"">
                            </div>
                        </div>",0.3325,"",0,"",NA,"","images/map02_Reds_scaleDef_orientMir_270.png","fearful",1,2,2,"Reds","orientMir","scaleDef","270",NA,NA
"","","","","","html-slider-response",133,350104,"0.0-127.0","o9nyoma9hu",67,NA,"<div style=""width:500px;"">
                            <p style=""font-size:50px; font-weight:bold;""
                            >fearful</p>
                            <div style=""width:240px; margin: auto;"">
                                <img src=""images/map12_BrBG_scaleDef_orientMir_090.png"" style= ""width:200px""alt=""img"">
                            </div>
                        </div>",0.595,"",0,"",NA,"","images/map12_BrBG_scaleDef_orientMir_090.png","fearful",1,12,12,"BrBG","orientMir","scaleDef","090",NA,NA
"","","","","","html-slider-response",134,351464,"0.0-128.0","o9nyoma9hu",67,NA,"<div style=""width:500px;"">
                            <p style=""font-size:50px; font-weight:bold;""
                            >fearful</p>
                            <div style=""width:240px; margin: auto;"">
                                <img src=""images/map10_YlGn_scaleDef_orientMir_270.png"" style= ""width:200px""alt=""img"">
                            </div>
                        </div>",0.32,"",0,"",NA,"","images/map10_YlGn_scaleDef_orientMir_270.png","fearful",1,10,10,"YlGn","orientMir","scaleDef","270",NA,NA
"","","","","","html-slider-response",135,352805,"0.0-129.0","o9nyoma9hu",67,NA,"<div style=""width:500px;"">
                            <p style=""font-size:50px; font-weight:bold;""
                            >fearful</p>
                            <div style=""width:240px; margin: auto;"">
                                <img src=""images/map05_YlOrBr_scaleDef_orientDef_090.png"" style= ""width:200px""alt=""img"">
                            </div>
                        </div>",0.2125,"",0,"",NA,"","images/map05_YlOrBr_scaleDef_orientDef_090.png","fearful",1,5,5,"YlOrBr","orientDef","scaleDef","090",NA,NA
"","","","","","html-slider-response",136,354342,"0.0-130.0","o9nyoma9hu",67,NA,"<div style=""width:500px;"">
                            <p style=""font-size:50px; font-weight:bold;""
                            >fearful</p>
                            <div style=""width:240px; margin: auto;"">
                                <img src=""images/map12_PuOr_scaleDef_orientMir_270.png"" style= ""width:200px""alt=""img"">
                            </div>
                        </div>",0.135,"",0,"",NA,"","images/map12_PuOr_scaleDef_orientMir_270.png","fearful",1,12,12,"PuOr","orientMir","scaleDef","270",NA,NA
"","","","","","html-slider-response",137,355963,"0.0-131.0","o9nyoma9hu",67,NA,"<div style=""width:500px;"">
                            <p style=""font-size:50px; font-weight:bold;""
                            >fearful</p>
                            <div style=""width:240px; margin: auto;"">
                                <img src=""images/map07_PuBu_scaleDef_orientMir_270.png"" style= ""width:200px""alt=""img"">
                            </div>
                        </div>",0.37,"",0,"",NA,"","images/map07_PuBu_scaleDef_orientMir_270.png","fearful",1,7,7,"PuBu","orientMir","scaleDef","270",NA,NA
"","","","","","html-slider-response",138,357926,"0.0-132.0","o9nyoma9hu",67,NA,"<div style=""width:500px;"">
                            <p style=""font-size:50px; font-weight:bold;""
                            >fearful</p>
                            <div style=""width:240px; margin: auto;"">
                                <img src=""images/map27_cividis_scaleDef_orientDef_270.png"" style= ""width:200px""alt=""img"">
                            </div>
                        </div>",0.555,"",0,"",NA,"","images/map27_cividis_scaleDef_orientDef_270.png","fearful",1,27,27,"cividis","orientDef","scaleDef","270",NA,NA
"","","","","","html-slider-response",139,359590,"0.0-133.0","o9nyoma9hu",67,NA,"<div style=""width:500px;"">
                            <p style=""font-size:50px; font-weight:bold;""
                            >fearful</p>
                            <div style=""width:240px; margin: auto;"">
                                <img src=""images/map05_YlOrRd_scaleRev_orientMir_000.png"" style= ""width:200px""alt=""img"">
                            </div>
                        </div>",0.3825,"",0,"",NA,"","images/map05_YlOrRd_scaleRev_orientMir_000.png","fearful",1,5,5,"YlOrRd","orientMir","scaleRev","000",NA,NA
"","","","","","html-slider-response",140,362252,"0.0-134.0","o9nyoma9hu",67,NA,"<div style=""width:500px;"">
                            <p style=""font-size:50px; font-weight:bold;""
                            >fearful</p>
                            <div style=""width:240px; margin: auto;"">
                                <img src=""images/map07_GnBu_scaleRev_orientMir_180.png"" style= ""width:200px""alt=""img"">
                            </div>
                        </div>",0.5725,"",0,"",NA,"","images/map07_GnBu_scaleRev_orientMir_180.png","fearful",1,7,7,"GnBu","orientMir","scaleRev","180",NA,NA
"","","","","","html-slider-response",141,366398,"0.0-135.0","o9nyoma9hu",67,NA,"<div style=""width:500px;"">
                            <p style=""font-size:50px; font-weight:bold;""
                            >fearful</p>
                            <div style=""width:240px; margin: auto;"">
                                <img src=""images/map05_OrRd_scaleRev_orientMir_180.png"" style= ""width:200px""alt=""img"">
                            </div>
                        </div>",0.425,"",0,"",NA,"","images/map05_OrRd_scaleRev_orientMir_180.png","fearful",1,5,5,"OrRd","orientMir","scaleRev","180",NA,NA
"","","","","","html-slider-response",142,368096,"0.0-136.0","o9nyoma9hu",67,NA,"<div style=""width:500px;"">
                            <p style=""font-size:50px; font-weight:bold;""
                            >fearful</p>
                            <div style=""width:240px; margin: auto;"">
                                <img src=""images/map15_Spectral_scaleRev_orientDef_180.png"" style= ""width:200px""alt=""img"">
                            </div>
                        </div>",0.55,"",0,"",NA,"","images/map15_Spectral_scaleRev_orientDef_180.png","fearful",1,15,15,"Spectral","orientDef","scaleRev","180",NA,NA
"","","","","","html-button-response",143,371516,"0.0-137.0","o9nyoma9hu",67,2917,"<p>You are doing great!<br></br> You are halway done with the current block. When you are ready to continue, click the 'Continue' button.</p>",0.5,"",NA,"",NA,"","","",NA,NA,NA,"","","","",NA,NA
"","","","","","html-slider-response",144,375827,"0.0-138.0","o9nyoma9hu",67,NA,"<div style=""width:500px;"">
                            <p style=""font-size:50px; font-weight:bold;""
                            >fearful</p>
                            <div style=""width:240px; margin: auto;"">
                                <img src=""images/map13_RdBu_scaleDef_orientDef_270.png"" style= ""width:200px""alt=""img"">
                            </div>
                        </div>",0.385,"",0,"",NA,"","images/map13_RdBu_scaleDef_orientDef_270.png","fearful",1,13,13,"RdBu","orientDef","scaleDef","270",NA,NA
"","","","","","html-slider-response",145,377611,"0.0-139.0","o9nyoma9hu",67,NA,"<div style=""width:500px;"">
                            <p style=""font-size:50px; font-weight:bold;""
                            >fearful</p>
                            <div style=""width:240px; margin: auto;"">
                                <img src=""images/map07_RdPu_scaleDef_orientDef_090.png"" style= ""width:200px""alt=""img"">
                            </div>
                        </div>",0.385,"",0,"",NA,"","images/map07_RdPu_scaleDef_orientDef_090.png","fearful",1,7,7,"RdPu","orientDef","scaleDef","090",NA,NA
"","","","","","html-slider-response",146,380633,"0.0-140.0","o9nyoma9hu",67,NA,"<div style=""width:500px;"">
                            <p style=""font-size:50px; font-weight:bold;""
                            >fearful</p>
                            <div style=""width:240px; margin: auto;"">
                                <img src=""images/map10_PuBu_scaleRev_orientDef_000.png"" style= ""width:200px""alt=""img"">
                            </div>
                        </div>",0.3975,"",0,"",NA,"","images/map10_PuBu_scaleRev_orientDef_000.png","fearful",1,10,10,"PuBu","orientDef","scaleRev","000",NA,NA
"","","","","","html-slider-response",147,383143,"0.0-141.0","o9nyoma9hu",67,NA,"<div style=""width:500px;"">
                            <p style=""font-size:50px; font-weight:bold;""
                            >fearful</p>
                            <div style=""width:240px; margin: auto;"">
                                <img src=""images/map10_BuGn_scaleRev_orientMir_180.png"" style= ""width:200px""alt=""img"">
                            </div>
                        </div>",0.3325,"",0,"",NA,"","images/map10_BuGn_scaleRev_orientMir_180.png","fearful",1,10,10,"BuGn","orientMir","scaleRev","180",NA,NA
"","","","","","html-slider-response",148,385764,"0.0-142.0","o9nyoma9hu",67,NA,"<div style=""width:500px;"">
                            <p style=""font-size:50px; font-weight:bold;""
                            >fearful</p>
                            <div style=""width:240px; margin: auto;"">
                                <img src=""images/map23_berlin_scaleDef_orientDef_090.png"" style= ""width:200px""alt=""img"">
                            </div>
                        </div>",0.6525,"",0,"",NA,"","images/map23_berlin_scaleDef_orientDef_090.png","fearful",1,23,23,"berlin","orientDef","scaleDef","090",NA,NA
"","","","","","html-slider-response",149,387749,"0.0-143.0","o9nyoma9hu",67,NA,"<div style=""width:500px;"">
                            <p style=""font-size:50px; font-weight:bold;""
                            >fearful</p>
                            <div style=""width:240px; margin: auto;"">
                                <img src=""images/map02_Blues_scaleDef_orientDef_090.png"" style= ""width:200px""alt=""img"">
                            </div>
                        </div>",0.46,"",0,"",NA,"","images/map02_Blues_scaleDef_orientDef_090.png","fearful",1,2,2,"Blues","orientDef","scaleDef","090",NA,NA
"","","","","","html-slider-response",150,389518,"0.0-144.0","o9nyoma9hu",67,NA,"<div style=""width:500px;"">
                            <p style=""font-size:50px; font-weight:bold;""
                            >fearful</p>
                            <div style=""width:240px; margin: auto;"">
                                <img src=""images/map26_plasma_scaleDef_orientMir_090.png"" style= ""width:200px""alt=""img"">
                            </div>
                        </div>",0.8125,"",0,"",NA,"","images/map26_plasma_scaleDef_orientMir_090.png","fearful",1,26,26,"plasma","orientMir","scaleDef","090",NA,NA
"","","","","","html-slider-response",151,390725,"0.0-145.0","o9nyoma9hu",67,NA,"<div style=""width:500px;"">
                            <p style=""font-size:50px; font-weight:bold;""
                            >fearful</p>
                            <div style=""width:240px; margin: auto;"">
                                <img src=""images/map27_Greys_scaleDef_orientMir_090.png"" style= ""width:200px""alt=""img"">
                            </div>
                        </div>",0.8125,"",0,"",NA,"","images/map27_Greys_scaleDef_orientMir_090.png","fearful",1,27,27,"Greys","orientMir","scaleDef","090",NA,NA
"","","","","","html-slider-response",152,392137,"0.0-146.0","o9nyoma9hu",67,NA,"<div style=""width:500px;"">
                            <p style=""font-size:50px; font-weight:bold;""
                            >fearful</p>
                            <div style=""width:240px; margin: auto;"">
                                <img src=""images/map23_managua_scaleDef_orientDef_270.png"" style= ""width:200px""alt=""img"">
                            </div>
                        </div>",0.8125,"",0,"",NA,"","images/map23_managua_scaleDef_orientDef_270.png","fearful",1,23,23,"managua","orientDef","scaleDef","270",NA,NA
"","","","","","html-slider-response",153,393841,"0.0-147.0","o9nyoma9hu",67,NA,"<div style=""width:500px;"">
                            <p style=""font-size:50px; font-weight:bold;""
                            >fearful</p>
                            <div style=""width:240px; margin: auto;"">
                                <img src=""images/map12_PiYG_scaleDef_orientDef_090.png"" style= ""width:200px""alt=""img"">
                            </div>
                        </div>",0.355,"",0,"",NA,"","images/map12_PiYG_scaleDef_orientDef_090.png","fearful",1,12,12,"PiYG","orientDef","scaleDef","090",NA,NA
"","","","","","html-slider-response",154,396171,"0.0-148.0","o9nyoma9hu",67,NA,"<div style=""width:500px;"">
                            <p style=""font-size:50px; font-weight:bold;""
                            >fearful</p>
                            <div style=""width:240px; margin: auto;"">
                                <img src=""images/map26_viridis_scaleRev_orientMir_000.png"" style= ""width:200px""alt=""img"">
                            </div>
                        </div>",0.665,"",0,"",NA,"","images/map26_viridis_scaleRev_orientMir_000.png","fearful",1,26,26,"viridis","orientMir","scaleRev","000",NA,NA
"","","","","","html-slider-response",155,398694,"0.0-149.0","o9nyoma9hu",67,NA,"<div style=""width:500px;"">
                            <p style=""font-size:50px; font-weight:bold;""
                            >fearful</p>
                            <div style=""width:240px; margin: auto;"">
                                <img src=""images/map10_BuGn_scaleDef_orientMir_090.png"" style= ""width:200px""alt=""img"">
                            </div>
                        </div>",0.28,"",0,"",NA,"","images/map10_BuGn_scaleDef_orientMir_090.png","fearful",1,10,10,"BuGn","orientMir","scaleDef","090",NA,NA
"","","","","","html-slider-response",156,401200,"0.0-150.0","o9nyoma9hu",67,NA,"<div style=""width:500px;"">
                            <p style=""font-size:50px; font-weight:bold;""
                            >fearful</p>
                            <div style=""width:240px; margin: auto;"">
                                <img src=""images/map27_cividis_scaleRev_orientMir_000.png"" style= ""width:200px""alt=""img"">
                            </div>
                        </div>",0.6175,"",0,"",NA,"","images/map27_cividis_scaleRev_orientMir_000.png","fearful",1,27,27,"cividis","orientMir","scaleRev","000",NA,NA
"","","","","","html-slider-response",157,403354,"0.0-151.0","o9nyoma9hu",67,NA,"<div style=""width:500px;"">
                            <p style=""font-size:50px; font-weight:bold;""
                            >fearful</p>
                            <div style=""width:240px; margin: auto;"">
                                <img src=""images/map13_PuOr_scaleRev_orientDef_000.png"" style= ""width:200px""alt=""img"">
                            </div>
                        </div>",0.395,"",0,"",NA,"","images/map13_PuOr_scaleRev_orientDef_000.png","fearful",1,13,13,"PuOr","orientDef","scaleRev","000",NA,NA
"","","","","","html-slider-response",158,404603,"0.0-152.0","o9nyoma9hu",67,NA,"<div style=""width:500px;"">
                            <p style=""font-size:50px; font-weight:bold;""
                            >fearful</p>
                            <div style=""width:240px; margin: auto;"">
                                <img src=""images/map12_PRGn_scaleDef_orientDef_270.png"" style= ""width:200px""alt=""img"">
                            </div>
                        </div>",0.395,"",0,"",NA,"","images/map12_PRGn_scaleDef_orientDef_270.png","fearful",1,12,12,"PRGn","orientDef","scaleDef","270",NA,NA
"","","","","","html-slider-response",159,406020,"0.0-153.0","o9nyoma9hu",67,NA,"<div style=""width:500px;"">
                            <p style=""font-size:50px; font-weight:bold;""
                            >fearful</p>
                            <div style=""width:240px; margin: auto;"">
                                <img src=""images/map12_PiYG_scaleRev_orientDef_180.png"" style= ""width:200px""alt=""img"">
                            </div>
                        </div>",0.2725,"",0,"",NA,"","images/map12_PiYG_scaleRev_orientDef_180.png","fearful",1,12,12,"PiYG","orientDef","scaleRev","180",NA,NA
"","","","","","html-slider-response",160,407825,"0.0-154.0","o9nyoma9hu",67,NA,"<div style=""width:500px;"">
                            <p style=""font-size:50px; font-weight:bold;""
                            >fearful</p>
                            <div style=""width:240px; margin: auto;"">
                                <img src=""images/map27_magma_scaleDef_orientDef_090.png"" style= ""width:200px""alt=""img"">
                            </div>
                        </div>",0.565,"",0,"",NA,"","images/map27_magma_scaleDef_orientDef_090.png","fearful",1,27,27,"magma","orientDef","scaleDef","090",NA,NA
"","","","","","html-slider-response",161,410200,"0.0-155.0","o9nyoma9hu",67,NA,"<div style=""width:500px;"">
                            <p style=""font-size:50px; font-weight:bold;""
                            >fearful</p>
                            <div style=""width:240px; margin: auto;"">
                                <img src=""images/map15_bwr_scaleRev_orientMir_180.png"" style= ""width:200px""alt=""img"">
                            </div>
                        </div>",0.6075,"",0,"",NA,"","images/map15_bwr_scaleRev_orientMir_180.png","fearful",1,15,15,"bwr","orientMir","scaleRev","180",NA,NA
"","","","","","html-slider-response",162,411984,"0.0-156.0","o9nyoma9hu",67,NA,"<div style=""width:500px;"">
                            <p style=""font-size:50px; font-weight:bold;""
                            >fearful</p>
                            <div style=""width:240px; margin: auto;"">
                                <img src=""images/map12_BrBG_scaleRev_orientMir_180.png"" style= ""width:200px""alt=""img"">
                            </div>
                        </div>",0.355,"",0,"",NA,"","images/map12_BrBG_scaleRev_orientMir_180.png","fearful",1,12,12,"BrBG","orientMir","scaleRev","180",NA,NA
"","","","","","html-slider-response",163,413818,"0.0-157.0","o9nyoma9hu",67,NA,"<div style=""width:500px;"">
                            <p style=""font-size:50px; font-weight:bold;""
                            >fearful</p>
                            <div style=""width:240px; margin: auto;"">
                                <img src=""images/map02_Greens_scaleRev_orientMir_000.png"" style= ""width:200px""alt=""img"">
                            </div>
