"success","timeout","failed_images","failed_audio","failed_video","trial_type","trial_index","time_elapsed","internal_node_id","subject_id","condition_num","rt","stimulus","response","question_order","slider_start","practiceTrial","practiceTrialNum","correct","image_path","concept","repetition","map_id","map_num","scale_name","orientation_code","mapping_code","rotation_code","ishihara_plate","correct_response"
"true","false","[]","[]","[]","preload",0,3003,"0.0-0.0","vfnoyh37ds",51,NA,"",NA,"",NA,"",NA,"","","",NA,NA,NA,"","","","",NA,NA
"","","","","","html-button-response",1,5165,"0.0-1.0","vfnoyh37ds",51,2158,"Welcome to our experiment!<p>At the bottom of this screen, you will see a button that says ""Begin Experiment"".<br>Please only click that button when you are ready to complete the 30 minute experiment in one sitting.</p><p> Once you click that button, it will not be possible to restart the experiment.",0.5,"",NA,"",NA,"","","",NA,NA,NA,"","","","",NA,NA
"true","","","","","fullscreen",2,7619,"0.0-2.0","vfnoyh37ds",51,1438,"",NA,"",NA,"",NA,"","","",NA,NA,NA,"","","","",NA,NA
"","","","","","survey-multi-select",3,34525,"0.0-3.0","vfnoyh37ds",51,26900,"",NA,"[0]",NA,"",NA,"","","",NA,NA,NA,"","","","",NA,NA
"","","","","","html-button-response",4,37619,"0.0-4.0","vfnoyh37ds",51,3090,"Welcome! <p> This experiment involves two parts: demographic information, followed by the experimental task.<p> It will take about 30 minutes to complete both parts.",0.5,"",NA,"",NA,"","","",NA,NA,NA,"","","","",NA,NA
"","","","","","survey-text",5,47794,"0.0-5.0","vfnoyh37ds",51,10145,"",NA,"",NA,"",NA,"","","",NA,NA,NA,"","","","",NA,NA
"","","","","","html-slider-response",6,70923,"0.0-6.0","vfnoyh37ds",51,23123,"<div style='text-align:left; font-size:20px; line-height:25px; width: 1000px;'>
                                During this experiment you will be asked to rate how much you associate maps with                    different concepts.<br> Below, you can see some examples of the maps you will be asked to rate. Above the maps
                    is the list of concepts.<br>You will be asked                    to rate how much you associate each map with each concept on a scale from 'not at all' to 'very much' like the
                    one below. <br><br>
                    Now, please look at the list of concepts and maps. For each concept, think about the map you associate 'very
                    much' with the concept.<br>                     When you see that map during the experiment, please rate it near the 'very much' endpoint of the
                    scale.<br>Now, please think about which map you associate 'not at all'                     with each concept. When you see that map during the experiment, please rate it near the 'not at all' endpoint
                    of the scale.<br>
                    Please use the full range of the scale. That is, if a map is somewhat associated with the concept, you would
                    click partway between the middle point and right side of the scale.                    You will be asked to rate each map for a given concept before moving on to the next concept.<br>Press the
                    'Continue' button for instructions on how to use the slider.                    <br>
                </div>

                <div style=""width: 500px; margin: 0 auto;"">
                    <!-- Centered text paragraphs -->
                    <div style=""text-align: center; width: 500px;"">
                        <p style=""font-size:25px; line-height:15px;"">
                            fearful&nbsp;&nbsp;&nbsp;&nbsp;
                            happy&nbsp;&nbsp;&nbsp;&nbsp;
                            angry&nbsp;&nbsp;&nbsp;&nbsp;
                            sad&nbsp;&nbsp;&nbsp;&nbsp;
                            disgust
                        </p>
                        <!-- <p style=""font-size:20px; line-height:15px;"">happy</p>
                        <p style=""font-size:20px;line-height:15px;"">angry</p>
                        <p style=""font-size:20px;line-height:15px;"">sad</p>
                        <p style=""font-size:20px;line-height:15px;"">disgust</p> -->
                    </div>
            

                    <!-- Grid section -->
                   <div style=""display: flex; justify-content: center; padding-top: 15px;"">
                    <div style=""display: grid; grid-template-columns: repeat(10, 55px); grid-gap: 5px; width: auto;"">
                        <img src=""images/map10_RdGy_scaleDef_orientDef_090.png"" alt=""map"" style=""width: 100%;""><img src=""images/map23_cividis_scaleDef_orientDef_270.png"" alt=""map"" style=""width: 100%;""><img src=""images/map15_gist_earth_scaleRev_orientDef_000.png"" alt=""map"" style=""width: 100%;""><img src=""images/map02_PuBu_scaleDef_orientMir_270.png"" alt=""map"" style=""width: 100%;""><img src=""images/map07_PiYG_scaleRev_orientDef_180.png"" alt=""map"" style=""width: 100%;""><img src=""images/map13_seismic_scaleRev_orientDef_000.png"" alt=""map"" style=""width: 100%;""><img src=""images/map15_inferno_scaleDef_orientMir_270.png"" alt=""map"" style=""width: 100%;""><img src=""images/map02_GnBu_scaleRev_orientMir_180.png"" alt=""map"" style=""width: 100%;""><img src=""images/map27_YlOrRd_scaleDef_orientDef_270.png"" alt=""map"" style=""width: 100%;""><img src=""images/map23_Greys_scaleRev_orientMir_180.png"" alt=""map"" style=""width: 100%;""><img src=""images/map12_Spectral_scaleRev_orientDef_180.png"" alt=""map"" style=""width: 100%;""><img src=""images/map27_PuRd_scaleDef_orientMir_270.png"" alt=""map"" style=""width: 100%;""><img src=""images/map12_coolwarm_scaleDef_orientDef_270.png"" alt=""map"" style=""width: 100%;""><img src=""images/map13_berlin_scaleDef_orientDef_090.png"" alt=""map"" style=""width: 100%;""><img src=""images/map27_OrRd_scaleDef_orientMir_090.png"" alt=""map"" style=""width: 100%;""><img src=""images/map10_RdBu_scaleRev_orientMir_000.png"" alt=""map"" style=""width: 100%;""><img src=""images/map02_BuPu_scaleDef_orientDef_270.png"" alt=""map"" style=""width: 100%;""><img src=""images/map12_bwr_scaleRev_orientMir_180.png"" alt=""map"" style=""width: 100%;""><img src=""images/map15_plasma_scaleRev_orientMir_180.png"" alt=""map"" style=""width: 100%;""><img src=""images/map23_magma_scaleRev_orientDef_180.png"" alt=""map"" style=""width: 100%;""><img src=""images/map10_RdYlGn_scaleDef_orientMir_270.png"" alt=""map"" style=""width: 100%;""><img src=""images/map13_managua_scaleDef_orientDef_270.png"" alt=""map"" style=""width: 100%;""><img src=""images/map23_Purples_scaleDef_orientMir_270.png"" alt=""map"" style=""width: 100%;""><img src=""images/map15_viridis_scaleDef_orientDef_270.png"" alt=""map"" style=""width: 100%;""><img src=""images/map10_PuOr_scaleRev_orientDef_000.png"" alt=""map"" style=""width: 100%;""><img src=""images/map05_YlGn_scaleDef_orientMir_270.png"" alt=""map"" style=""width: 100%;""><img src=""images/map26_Greens_scaleRev_orientMir_000.png"" alt=""map"" style=""width: 100%;""><img src=""images/map07_BrBG_scaleDef_orientMir_090.png"" alt=""map"" style=""width: 100%;""><img src=""images/map26_Oranges_scaleDef_orientMir_090.png"" alt=""map"" style=""width: 100%;""><img src=""images/map05_PuBuGn_scaleRev_orientMir_000.png"" alt=""map"" style=""width: 100%;""><img src=""images/map27_YlOrBr_scaleRev_orientDef_180.png"" alt=""map"" style=""width: 100%;""><img src=""images/map26_Blues_scaleDef_orientDef_090.png"" alt=""map"" style=""width: 100%;""><img src=""images/map05_BuGn_scaleRev_orientMir_180.png"" alt=""map"" style=""width: 100%;""><img src=""images/map02_RdPu_scaleDef_orientDef_090.png"" alt=""map"" style=""width: 100%;""><img src=""images/map07_PRGn_scaleDef_orientDef_270.png"" alt=""map"" style=""width: 100%;""><img src=""images/map26_Reds_scaleDef_orientMir_270.png"" alt=""map"" style=""width: 100%;""><img src=""images/map10_RdYlBu_scaleDef_orientMir_090.png"" alt=""map"" style=""width: 100%;""><img src=""images/map15_turbo_scaleRev_orientDef_180.png"" alt=""map"" style=""width: 100%;""><img src=""images/map13_vanimo_scaleDef_orientMir_090.png"" alt=""map"" style=""width: 100%;""><img src=""images/map05_YlGnBu_scaleDef_orientDef_090.png"" alt=""map"" style=""width: 100%;"">
                    </div>
                </div>

                    <!-- Clear floats -->
                    <div style=""clear: both;""></div>
                </div>
                            ",0.2475,"",0,"true",NA,"","","",NA,NA,NA,"","","","",NA,NA
"","","","","","html-button-response",7,71931,"0.0-7.0","vfnoyh37ds",51,1006,"<div style=""width:800px;""><p style=""text-align:left"">To move the slider, click and drag your cursor to the location of the scale where you would like to make your rating and then let go. When you let go of the slider, your response will be recorded and the next trial will begin. <br>
                    We are interested in your initial impressions of each map for the given concept, so please go with your first intuition. <br>
                    Before you begin the experiment, there will be four training trials for you to practice using the scale. <br>
                     When you are ready to start the training trials, please click ""Continue"".</p><br></div>",0.5,"",NA,"",NA,"","","",NA,NA,NA,"","","","",NA,NA
"","","","","","html-slider-response",8,74651,"0.0-8.0-0.0","vfnoyh37ds",51,NA,"<div style=""width:500px;"">
                                    <p style=""font-size:25px;"">Please move the slider all the way to the <br> right endpoint of the scale</p>

                                    </div>
                                </div>",1,"",0,"true",0,"true","","",NA,NA,NA,"","","","",NA,NA
"","","","","","html-button-response",9,76352,"0.0-8.0-1.0","vfnoyh37ds",51,1192,"<p align='center'><b>Good job!</b> Click on 'Continue' to proceed.</p>",0.5,"",NA,"",NA,"","","",NA,NA,NA,"","","","",NA,NA
"","","","","","html-slider-response",10,78262,"0.0-9.0-0.0","vfnoyh37ds",51,NA,"<div style=""width:500px;"">
                                    <p style=""font-size:25px;"">Please move the slider all the way to the <br> left endpoint of the scale</p>

                                    </div>
                                </div>",0.0925,"",0,"true",1,"false","","",NA,NA,NA,"","","","",NA,NA
"","","","","","html-button-response",11,79836,"0.0-9.0-1.0","vfnoyh37ds",51,1058,"<p align='center'><b>Not quite!</b> The slider was not placed near the instructed located. Click on 'Continue' to try again. </p>",0.5,"",NA,"",NA,"","","",NA,NA,NA,"","","","",NA,NA
"","","","","","html-slider-response",12,81795,"0.0-9.1-0.1","vfnoyh37ds",51,NA,"<div style=""width:500px;"">
                                    <p style=""font-size:25px;"">Please move the slider all the way to the <br> left endpoint of the scale</p>

                                    </div>
                                </div>",0,"",0,"true",1,"true","","",NA,NA,NA,"","","","",NA,NA
"","","","","","html-button-response",13,83497,"0.0-9.1-1.1","vfnoyh37ds",51,1192,"<p align='center'><b>Good job!</b> Click on 'Continue' to proceed.</p>",0.5,"",NA,"",NA,"","","",NA,NA,NA,"","","","",NA,NA
"","","","","","html-slider-response",14,87026,"0.0-10.0-0.0","vfnoyh37ds",51,NA,"<div style=""width:500px;"">
                                    <p style=""font-size:25px;"">Please move the slider halfway between the center and right endpoint of the scale</p>

                                    </div>
                                </div>",0.7625,"",0,"true",2,"true","","",NA,NA,NA,"","","","",NA,NA
"","","","","","html-button-response",15,88835,"0.0-10.0-1.0","vfnoyh37ds",51,1307,"<p align='center'><b>Good job!</b> Click on 'Continue' to proceed.</p>",0.5,"",NA,"",NA,"","","",NA,NA,NA,"","","","",NA,NA
"","","","","","html-slider-response",16,91328,"0.0-11.0-0.0","vfnoyh37ds",51,NA,"<div style=""width:500px;"">
                                    <p style=""font-size:25px;"">Please move the slider halfway between the center and left endpoint of the scale</p>

                                    </div>
                                </div>",0.2275,"",0,"true",3,"true","","",NA,NA,NA,"","","","",NA,NA
"","","","","","html-button-response",17,92829,"0.0-11.0-1.0","vfnoyh37ds",51,993,"<p align='center'><b>Good job!</b> Click on 'Continue' to proceed.</p>",0.5,"",NA,"",NA,"","","",NA,NA,NA,"","","","",NA,NA
"","","","","","html-button-response",18,94543,"0.0-12.0","vfnoyh37ds",51,1713,"<p>Great job! You've completed the practice trials. Now you will begin the main task.</p>",0.5,"",NA,"",NA,"","","",NA,NA,NA,"","","","",NA,NA
"","","","","","html-button-response",19,96639,"0.0-13.0","vfnoyh37ds",51,2094,"<p>In this block of trials, you will be asked to rate how much you associate each map with:</p > <p style = 'font-size:150%; font-weight: bold'>fearful</p><br></br>",0.5,"",NA,"",NA,"","","",NA,NA,NA,"","","","",NA,NA
"","","","","","html-slider-response",20,98974,"0.0-14.0","vfnoyh37ds",51,NA,"<div style=""width:500px;"">
                            <p style=""font-size:50px; font-weight:bold;""
                            >fearful</p>
                            <div style=""width:240px; margin: auto;"">
                                <img src=""images/map10_PuOr_scaleRev_orientDef_000.png"" style= ""width:200px""alt=""img"">
                            </div>
                        </div>",0.1475,"",0,"",NA,"","images/map10_PuOr_scaleRev_orientDef_000.png","fearful",1,10,10,"PuOr","orientDef","scaleRev","000",NA,NA
"","","","","","html-slider-response",21,101244,"0.0-15.0","vfnoyh37ds",51,NA,"<div style=""width:500px;"">
                            <p style=""font-size:50px; font-weight:bold;""
                            >fearful</p>
                            <div style=""width:240px; margin: auto;"">
                                <img src=""images/map27_YlOrBr_scaleDef_orientDef_090.png"" style= ""width:200px""alt=""img"">
                            </div>
                        </div>",0.685,"",0,"",NA,"","images/map27_YlOrBr_scaleDef_orientDef_090.png","fearful",1,27,27,"YlOrBr","orientDef","scaleDef","090",NA,NA
"","","","","","html-slider-response",22,103096,"0.0-16.0","vfnoyh37ds",51,NA,"<div style=""width:500px;"">
                            <p style=""font-size:50px; font-weight:bold;""
                            >fearful</p>
                            <div style=""width:240px; margin: auto;"">
                                <img src=""images/map12_Spectral_scaleRev_orientDef_180.png"" style= ""width:200px""alt=""img"">
                            </div>
                        </div>",0.045,"",0,"",NA,"","images/map12_Spectral_scaleRev_orientDef_180.png","fearful",1,12,12,"Spectral","orientDef","scaleRev","180",NA,NA
"","","","","","html-slider-response",23,105076,"0.0-17.0","vfnoyh37ds",51,NA,"<div style=""width:500px;"">
                            <p style=""font-size:50px; font-weight:bold;""
                            >fearful</p>
                            <div style=""width:240px; margin: auto;"">
                                <img src=""images/map05_YlGn_scaleDef_orientMir_270.png"" style= ""width:200px""alt=""img"">
                            </div>
                        </div>",0.03,"",0,"",NA,"","images/map05_YlGn_scaleDef_orientMir_270.png","fearful",1,5,5,"YlGn","orientMir","scaleDef","270",NA,NA
"","","","","","html-slider-response",24,106879,"0.0-18.0","vfnoyh37ds",51,NA,"<div style=""width:500px;"">
                            <p style=""font-size:50px; font-weight:bold;""
                            >fearful</p>
                            <div style=""width:240px; margin: auto;"">
                                <img src=""images/map23_cividis_scaleRev_orientMir_000.png"" style= ""width:200px""alt=""img"">
                            </div>
                        </div>",0.7475,"",0,"",NA,"","images/map23_cividis_scaleRev_orientMir_000.png","fearful",1,23,23,"cividis","orientMir","scaleRev","000",NA,NA
"","","","","","html-slider-response",25,109150,"0.0-19.0","vfnoyh37ds",51,NA,"<div style=""width:500px;"">
                            <p style=""font-size:50px; font-weight:bold;""
                            >fearful</p>
                            <div style=""width:240px; margin: auto;"">
                                <img src=""images/map23_Purples_scaleDef_orientMir_270.png"" style= ""width:200px""alt=""img"">
                            </div>
                        </div>",0.7775,"",0,"",NA,"","images/map23_Purples_scaleDef_orientMir_270.png","fearful",1,23,23,"Purples","orientMir","scaleDef","270",NA,NA
"","","","","","html-slider-response",26,111279,"0.0-20.0","vfnoyh37ds",51,NA,"<div style=""width:500px;"">
                            <p style=""font-size:50px; font-weight:bold;""
                            >fearful</p>
                            <div style=""width:240px; margin: auto;"">
                                <img src=""images/map02_GnBu_scaleRev_orientMir_180.png"" style= ""width:200px""alt=""img"">
                            </div>
                        </div>",0.2375,"",0,"",NA,"","images/map02_GnBu_scaleRev_orientMir_180.png","fearful",1,2,2,"GnBu","orientMir","scaleRev","180",NA,NA
"","","","","","html-slider-response",27,112885,"0.0-21.0","vfnoyh37ds",51,NA,"<div style=""width:500px;"">
                            <p style=""font-size:50px; font-weight:bold;""
                            >fearful</p>
                            <div style=""width:240px; margin: auto;"">
                                <img src=""images/map07_PuOr_scaleDef_orientMir_270.png"" style= ""width:200px""alt=""img"">
                            </div>
                        </div>",0.2075,"",0,"",NA,"","images/map07_PuOr_scaleDef_orientMir_270.png","fearful",1,7,7,"PuOr","orientMir","scaleDef","270",NA,NA
"","","","","","html-slider-response",28,115145,"0.0-22.0","vfnoyh37ds",51,NA,"<div style=""width:500px;"">
                            <p style=""font-size:50px; font-weight:bold;""
                            >fearful</p>
                            <div style=""width:240px; margin: auto;"">
                                <img src=""images/map27_Reds_scaleRev_orientDef_000.png"" style= ""width:200px""alt=""img"">
                            </div>
                        </div>",1,"",0,"",NA,"","images/map27_Reds_scaleRev_orientDef_000.png","fearful",1,27,27,"Reds","orientDef","scaleRev","000",NA,NA
"","","","","","html-slider-response",29,117928,"0.0-23.0","vfnoyh37ds",51,NA,"<div style=""width:500px;"">
                            <p style=""font-size:50px; font-weight:bold;""
                            >fearful</p>
                            <div style=""width:240px; margin: auto;"">
                                <img src=""images/map07_BrBG_scaleDef_orientMir_090.png"" style= ""width:200px""alt=""img"">
                            </div>
                        </div>",0.3625,"",0,"",NA,"","images/map07_BrBG_scaleDef_orientMir_090.png","fearful",1,7,7,"BrBG","orientMir","scaleDef","090",NA,NA
"","","","","","html-slider-response",30,121063,"0.0-24.0","vfnoyh37ds",51,NA,"<div style=""width:500px;"">
                            <p style=""font-size:50px; font-weight:bold;""
                            >fearful</p>
                            <div style=""width:240px; margin: auto;"">
                                <img src=""images/map23_Greys_scaleDef_orientMir_090.png"" style= ""width:200px""alt=""img"">
                            </div>
                        </div>",0.76,"",0,"",NA,"","images/map23_Greys_scaleDef_orientMir_090.png","fearful",1,23,23,"Greys","orientMir","scaleDef","090",NA,NA
"","","","","","html-slider-response",31,122853,"0.0-25.0","vfnoyh37ds",51,NA,"<div style=""width:500px;"">
                            <p style=""font-size:50px; font-weight:bold;""
                            >fearful</p>
                            <div style=""width:240px; margin: auto;"">
                                <img src=""images/map15_viridis_scaleRev_orientMir_000.png"" style= ""width:200px""alt=""img"">
                            </div>
                        </div>",0.0325,"",0,"",NA,"","images/map15_viridis_scaleRev_orientMir_000.png","fearful",1,15,15,"viridis","orientMir","scaleRev","000",NA,NA
"","","","","","html-slider-response",32,125445,"0.0-26.0","vfnoyh37ds",51,NA,"<div style=""width:500px;"">
                            <p style=""font-size:50px; font-weight:bold;""
                            >fearful</p>
                            <div style=""width:240px; margin: auto;"">
                                <img src=""images/map15_viridis_scaleDef_orientDef_270.png"" style= ""width:200px""alt=""img"">
                            </div>
                        </div>",0.0475,"",0,"",NA,"","images/map15_viridis_scaleDef_orientDef_270.png","fearful",1,15,15,"viridis","orientDef","scaleDef","270",NA,NA
"","","","","","html-slider-response",33,127770,"0.0-27.0","vfnoyh37ds",51,NA,"<div style=""width:500px;"">
                            <p style=""font-size:50px; font-weight:bold;""
                            >fearful</p>
                            <div style=""width:240px; margin: auto;"">
                                <img src=""images/map10_RdBu_scaleDef_orientDef_270.png"" style= ""width:200px""alt=""img"">
                            </div>
                        </div>",1,"",0,"",NA,"","images/map10_RdBu_scaleDef_orientDef_270.png","fearful",1,10,10,"RdBu","orientDef","scaleDef","270",NA,NA
"","","","","","html-slider-response",34,131002,"0.0-28.0","vfnoyh37ds",51,NA,"<div style=""width:500px;"">
                            <p style=""font-size:50px; font-weight:bold;""
                            >fearful</p>
                            <div style=""width:240px; margin: auto;"">
                                <img src=""images/map15_inferno_scaleDef_orientMir_270.png"" style= ""width:200px""alt=""img"">
                            </div>
                        </div>",0.845,"",0,"",NA,"","images/map15_inferno_scaleDef_orientMir_270.png","fearful",1,15,15,"inferno","orientMir","scaleDef","270",NA,NA
"","","","","","html-slider-response",35,133504,"0.0-29.0","vfnoyh37ds",51,NA,"<div style=""width:500px;"">
                            <p style=""font-size:50px; font-weight:bold;""
                            >fearful</p>
                            <div style=""width:240px; margin: auto;"">
                                <img src=""images/map05_PuBuGn_scaleDef_orientDef_270.png"" style= ""width:200px""alt=""img"">
                            </div>
                        </div>",0.09,"",0,"",NA,"","images/map05_PuBuGn_scaleDef_orientDef_270.png","fearful",1,5,5,"PuBuGn","orientDef","scaleDef","270",NA,NA
"","","","","","html-slider-response",36,135313,"0.0-30.0","vfnoyh37ds",51,NA,"<div style=""width:500px;"">
                            <p style=""font-size:50px; font-weight:bold;""
                            >fearful</p>
                            <div style=""width:240px; margin: auto;"">
                                <img src=""images/map07_YlGn_scaleRev_orientDef_000.png"" style= ""width:200px""alt=""img"">
                            </div>
                        </div>",0.225,"",0,"",NA,"","images/map07_YlGn_scaleRev_orientDef_000.png","fearful",1,7,7,"YlGn","orientDef","scaleRev","000",NA,NA
"","","","","","html-slider-response",37,137111,"0.0-31.0","vfnoyh37ds",51,NA,"<div style=""width:500px;"">
                            <p style=""font-size:50px; font-weight:bold;""
                            >fearful</p>
                            <div style=""width:240px; margin: auto;"">
                                <img src=""images/map02_RdPu_scaleDef_orientDef_090.png"" style= ""width:200px""alt=""img"">
                            </div>
                        </div>",0.235,"",0,"",NA,"","images/map02_RdPu_scaleDef_orientDef_090.png","fearful",1,2,2,"RdPu","orientDef","scaleDef","090",NA,NA
"","","","","","html-slider-response",38,139192,"0.0-32.0","vfnoyh37ds",51,NA,"<div style=""width:500px;"">
                            <p style=""font-size:50px; font-weight:bold;""
                            >fearful</p>
                            <div style=""width:240px; margin: auto;"">
                                <img src=""images/map26_Blues_scaleRev_orientDef_180.png"" style= ""width:200px""alt=""img"">
                            </div>
                        </div>",0.2725,"",0,"",NA,"","images/map26_Blues_scaleRev_orientDef_180.png","fearful",1,26,26,"Blues","orientDef","scaleRev","180",NA,NA
"","","","","","html-slider-response",39,140927,"0.0-33.0","vfnoyh37ds",51,NA,"<div style=""width:500px;"">
                            <p style=""font-size:50px; font-weight:bold;""
                            >fearful</p>
                            <div style=""width:240px; margin: auto;"">
                                <img src=""images/map05_YlGnBu_scaleDef_orientDef_090.png"" style= ""width:200px""alt=""img"">
                            </div>
                        </div>",0.26,"",0,"",NA,"","images/map05_YlGnBu_scaleDef_orientDef_090.png","fearful",1,5,5,"YlGnBu","orientDef","scaleDef","090",NA,NA
"","","","","","html-slider-response",40,143073,"0.0-34.0","vfnoyh37ds",51,NA,"<div style=""width:500px;"">
                            <p style=""font-size:50px; font-weight:bold;""
                            >fearful</p>
                            <div style=""width:240px; margin: auto;"">
                                <img src=""images/map12_coolwarm_scaleRev_orientMir_000.png"" style= ""width:200px""alt=""img"">
                            </div>
                        </div>",0.545,"",0,"",NA,"","images/map12_coolwarm_scaleRev_orientMir_000.png","fearful",1,12,12,"coolwarm","orientMir","scaleRev","000",NA,NA
"","","","","","html-slider-response",41,144902,"0.0-35.0","vfnoyh37ds",51,NA,"<div style=""width:500px;"">
                            <p style=""font-size:50px; font-weight:bold;""
                            >fearful</p>
                            <div style=""width:240px; margin: auto;"">
                                <img src=""images/map23_magma_scaleRev_orientDef_180.png"" style= ""width:200px""alt=""img"">
                            </div>
                        </div>",0.7075,"",0,"",NA,"","images/map23_magma_scaleRev_orientDef_180.png","fearful",1,23,23,"magma","orientDef","scaleRev","180",NA,NA
"","","","","","html-slider-response",42,146834,"0.0-36.0","vfnoyh37ds",51,NA,"<div style=""width:500px;"">
                            <p style=""font-size:50px; font-weight:bold;""
                            >fearful</p>
                            <div style=""width:240px; margin: auto;"">
                                <img src=""images/map12_RdYlGn_scaleRev_orientDef_000.png"" style= ""width:200px""alt=""img"">
                            </div>
                        </div>",0.1675,"",0,"",NA,"","images/map12_RdYlGn_scaleRev_orientDef_000.png","fearful",1,12,12,"RdYlGn","orientDef","scaleRev","000",NA,NA
"","","","","","html-slider-response",43,148792,"0.0-37.0","vfnoyh37ds",51,NA,"<div style=""width:500px;"">
                            <p style=""font-size:50px; font-weight:bold;""
                            >fearful</p>
                            <div style=""width:240px; margin: auto;"">
                                <img src=""images/map13_vanimo_scaleDef_orientMir_090.png"" style= ""width:200px""alt=""img"">
                            </div>
                        </div>",0.105,"",0,"",NA,"","images/map13_vanimo_scaleDef_orientMir_090.png","fearful",1,13,13,"vanimo","orientMir","scaleDef","090",NA,NA
"","","","","","html-slider-response",44,150781,"0.0-38.0","vfnoyh37ds",51,NA,"<div style=""width:500px;"">
                            <p style=""font-size:50px; font-weight:bold;""
                            >fearful</p>
                            <div style=""width:240px; margin: auto;"">
                                <img src=""images/map23_Greys_scaleRev_orientMir_180.png"" style= ""width:200px""alt=""img"">
                            </div>
                        </div>",0.6675,"",0,"",NA,"","images/map23_Greys_scaleRev_orientMir_180.png","fearful",1,23,23,"Greys","orientMir","scaleRev","180",NA,NA
"","","","","","html-slider-response",45,152334,"0.0-39.0","vfnoyh37ds",51,NA,"<div style=""width:500px;"">
                            <p style=""font-size:50px; font-weight:bold;""
                            >fearful</p>
                            <div style=""width:240px; margin: auto;"">
                                <img src=""images/map12_Spectral_scaleDef_orientDef_090.png"" style= ""width:200px""alt=""img"">
                            </div>
                        </div>",0.055,"",0,"",NA,"","images/map12_Spectral_scaleDef_orientDef_090.png","fearful",1,12,12,"Spectral","orientDef","scaleDef","090",NA,NA
"","","","","","html-slider-response",46,154484,"0.0-40.0","vfnoyh37ds",51,NA,"<div style=""width:500px;"">
                            <p style=""font-size:50px; font-weight:bold;""
                            >fearful</p>
                            <div style=""width:240px; margin: auto;"">
                                <img src=""images/map02_BuPu_scaleDef_orientDef_270.png"" style= ""width:200px""alt=""img"">
                            </div>
                        </div>",0.5525,"",0,"",NA,"","images/map02_BuPu_scaleDef_orientDef_270.png","fearful",1,2,2,"BuPu","orientDef","scaleDef","270",NA,NA
"","","","","","html-slider-response",47,156025,"0.0-41.0","vfnoyh37ds",51,NA,"<div style=""width:500px;"">
                            <p style=""font-size:50px; font-weight:bold;""
                            >fearful</p>
                            <div style=""width:240px; margin: auto;"">
                                <img src=""images/map26_Greens_scaleRev_orientMir_000.png"" style= ""width:200px""alt=""img"">
                            </div>
                        </div>",0.415,"",0,"",NA,"","images/map26_Greens_scaleRev_orientMir_000.png","fearful",1,26,26,"Greens","orientMir","scaleRev","000",NA,NA
"","","","","","html-slider-response",48,158247,"0.0-42.0","vfnoyh37ds",51,NA,"<div style=""width:500px;"">
                            <p style=""font-size:50px; font-weight:bold;""
                            >fearful</p>
                            <div style=""width:240px; margin: auto;"">
                                <img src=""images/map10_RdYlGn_scaleDef_orientMir_270.png"" style= ""width:200px""alt=""img"">
                            </div>
                        </div>",0.7,"",0,"",NA,"","images/map10_RdYlGn_scaleDef_orientMir_270.png","fearful",1,10,10,"RdYlGn","orientMir","scaleDef","270",NA,NA
"","","","","","html-slider-response",49,160096,"0.0-43.0","vfnoyh37ds",51,NA,"<div style=""width:500px;"">
                            <p style=""font-size:50px; font-weight:bold;""
                            >fearful</p>
                            <div style=""width:240px; margin: auto;"">
                                <img src=""images/map26_Oranges_scaleRev_orientMir_180.png"" style= ""width:200px""alt=""img"">
                            </div>
                        </div>",0.7975,"",0,"",NA,"","images/map26_Oranges_scaleRev_orientMir_180.png","fearful",1,26,26,"Oranges","orientMir","scaleRev","180",NA,NA
"","","","","","html-slider-response",50,161996,"0.0-44.0","vfnoyh37ds",51,NA,"<div style=""width:500px;"">
                            <p style=""font-size:50px; font-weight:bold;""
                            >fearful</p>
                            <div style=""width:240px; margin: auto;"">
                                <img src=""images/map15_turbo_scaleRev_orientDef_180.png"" style= ""width:200px""alt=""img"">
                            </div>
                        </div>",0.325,"",0,"",NA,"","images/map15_turbo_scaleRev_orientDef_180.png","fearful",1,15,15,"turbo","orientDef","scaleRev","180",NA,NA
"","","","","","html-slider-response",51,165554,"0.0-45.0","vfnoyh37ds",51,NA,"<div style=""width:500px;"">
                            <p style=""font-size:50px; font-weight:bold;""
                            >fearful</p>
                            <div style=""width:240px; margin: auto;"">
                                <img src=""images/map07_PiYG_scaleRev_orientDef_180.png"" style= ""width:200px""alt=""img"">
                            </div>
                        </div>",0.2475,"",0,"",NA,"","images/map07_PiYG_scaleRev_orientDef_180.png","fearful",1,7,7,"PiYG","orientDef","scaleRev","180",NA,NA
"","","","","","html-slider-response",52,172228,"0.0-46.0","vfnoyh37ds",51,NA,"<div style=""width:500px;"">
                            <p style=""font-size:50px; font-weight:bold;""
                            >fearful</p>
                            <div style=""width:240px; margin: auto;"">
                                <img src=""images/map10_RdGy_scaleDef_orientDef_090.png"" style= ""width:200px""alt=""img"">
                            </div>
                        </div>",0.7025,"",0,"",NA,"","images/map10_RdGy_scaleDef_orientDef_090.png","fearful",1,10,10,"RdGy","orientDef","scaleDef","090",NA,NA
"","","","","","html-slider-response",53,175130,"0.0-47.0","vfnoyh37ds",51,NA,"<div style=""width:500px;"">
                            <p style=""font-size:50px; font-weight:bold;""
                            >fearful</p>
                            <div style=""width:240px; margin: auto;"">
                                <img src=""images/map26_Blues_scaleDef_orientDef_090.png"" style= ""width:200px""alt=""img"">
                            </div>
                        </div>",0.265,"",0,"",NA,"","images/map26_Blues_scaleDef_orientDef_090.png","fearful",1,26,26,"Blues","orientDef","scaleDef","090",NA,NA
"","","","","","html-slider-response",54,177128,"0.0-48.0","vfnoyh37ds",51,NA,"<div style=""width:500px;"">
                            <p style=""font-size:50px; font-weight:bold;""
                            >fearful</p>
                            <div style=""width:240px; margin: auto;"">
                                <img src=""images/map12_bwr_scaleRev_orientMir_180.png"" style= ""width:200px""alt=""img"">
                            </div>
                        </div>",0.725,"",0,"",NA,"","images/map12_bwr_scaleRev_orientMir_180.png","fearful",1,12,12,"bwr","orientMir","scaleRev","180",NA,NA
"","","","","","html-slider-response",55,180981,"0.0-49.0","vfnoyh37ds",51,NA,"<div style=""width:500px;"">
                            <p style=""font-size:50px; font-weight:bold;""
                            >fearful</p>
                            <div style=""width:240px; margin: auto;"">
                                <img src=""images/map27_YlOrRd_scaleDef_orientDef_270.png"" style= ""width:200px""alt=""img"">
                            </div>
                        </div>",0.715,"",0,"",NA,"","images/map27_YlOrRd_scaleDef_orientDef_270.png","fearful",1,27,27,"YlOrRd","orientDef","scaleDef","270",NA,NA
"","","","","","html-slider-response",56,182864,"0.0-50.0","vfnoyh37ds",51,NA,"<div style=""width:500px;"">
                            <p style=""font-size:50px; font-weight:bold;""
                            >fearful</p>
                            <div style=""width:240px; margin: auto;"">
                                <img src=""images/map13_vanimo_scaleRev_orientMir_180.png"" style= ""width:200px""alt=""img"">
                            </div>
                        </div>",0.21,"",0,"",NA,"","images/map13_vanimo_scaleRev_orientMir_180.png","fearful",1,13,13,"vanimo","orientMir","scaleRev","180",NA,NA
"","","","","","html-slider-response",57,185092,"0.0-51.0","vfnoyh37ds",51,NA,"<div style=""width:500px;"">
                            <p style=""font-size:50px; font-weight:bold;""
                            >fearful</p>
                            <div style=""width:240px; margin: auto;"">
                                <img src=""images/map12_coolwarm_scaleDef_orientDef_270.png"" style= ""width:200px""alt=""img"">
                            </div>
                        </div>",0.615,"",0,"",NA,"","images/map12_coolwarm_scaleDef_orientDef_270.png","fearful",1,12,12,"coolwarm","orientDef","scaleDef","270",NA,NA
"","","","","","html-slider-response",58,186631,"0.0-52.0","vfnoyh37ds",51,NA,"<div style=""width:500px;"">
                            <p style=""font-size:50px; font-weight:bold;""
                            >fearful</p>
                            <div style=""width:240px; margin: auto;"">
                                <img src=""images/map13_managua_scaleRev_orientMir_000.png"" style= ""width:200px""alt=""img"">
                            </div>
                        </div>",0.375,"",0,"",NA,"","images/map13_managua_scaleRev_orientMir_000.png","fearful",1,13,13,"managua","orientMir","scaleRev","000",NA,NA
"","","","","","html-slider-response",59,188698,"0.0-53.0","vfnoyh37ds",51,NA,"<div style=""width:500px;"">
                            <p style=""font-size:50px; font-weight:bold;""
                            >fearful</p>
                            <div style=""width:240px; margin: auto;"">
                                <img src=""images/map15_plasma_scaleDef_orientMir_090.png"" style= ""width:200px""alt=""img"">
                            </div>
                        </div>",0.69,"",0,"",NA,"","images/map15_plasma_scaleDef_orientMir_090.png","fearful",1,15,15,"plasma","orientMir","scaleDef","090",NA,NA
"","","","","","html-button-response",60,191800,"0.0-54.0","vfnoyh37ds",51,2593,"<p>You are doing great!<br></br> You are halway done with the current block. When you are ready to continue, click the 'Continue' button.</p>",0.5,"",NA,"",NA,"","","",NA,NA,NA,"","","","",NA,NA
"","","","","","html-slider-response",61,195966,"0.0-55.0","vfnoyh37ds",51,NA,"<div style=""width:500px;"">
                            <p style=""font-size:50px; font-weight:bold;""
                            >fearful</p>
                            <div style=""width:240px; margin: auto;"">
                                <img src=""images/map05_BuGn_scaleDef_orientMir_090.png"" style= ""width:200px""alt=""img"">
                            </div>
                        </div>",0.2075,"",0,"",NA,"","images/map05_BuGn_scaleDef_orientMir_090.png","fearful",1,5,5,"BuGn","orientMir","scaleDef","090",NA,NA
"","","","","","html-slider-response",62,197521,"0.0-56.0","vfnoyh37ds",51,NA,"<div style=""width:500px;"">
                            <p style=""font-size:50px; font-weight:bold;""
                            >fearful</p>
                            <div style=""width:240px; margin: auto;"">
                                <img src=""images/map27_OrRd_scaleRev_orientMir_180.png"" style= ""width:200px""alt=""img"">
                            </div>
                        </div>",0.705,"",0,"",NA,"","images/map27_OrRd_scaleRev_orientMir_180.png","fearful",1,27,27,"OrRd","orientMir","scaleRev","180",NA,NA
"","","","","","html-slider-response",63,199296,"0.0-57.0","vfnoyh37ds",51,NA,"<div style=""width:500px;"">
                            <p style=""font-size:50px; font-weight:bold;""
                            >fearful</p>
                            <div style=""width:240px; margin: auto;"">
                                <img src=""images/map05_PuBuGn_scaleRev_orientMir_000.png"" style= ""width:200px""alt=""img"">
                            </div>
                        </div>",0.5175,"",0,"",NA,"","images/map05_PuBuGn_scaleRev_orientMir_000.png","fearful",1,5,5,"PuBuGn","orientMir","scaleRev","000",NA,NA
"","","","","","html-slider-response",64,200731,"0.0-58.0","vfnoyh37ds",51,NA,"<div style=""width:500px;"">
                            <p style=""font-size:50px; font-weight:bold;""
                            >fearful</p>
                            <div style=""width:240px; margin: auto;"">
                                <img src=""images/map13_berlin_scaleRev_orientDef_180.png"" style= ""width:200px""alt=""img"">
                            </div>
                        </div>",0.675,"",0,"",NA,"","images/map13_berlin_scaleRev_orientDef_180.png","fearful",1,13,13,"berlin","orientDef","scaleRev","180",NA,NA
"","","","","","html-slider-response",65,202819,"0.0-59.0","vfnoyh37ds",51,NA,"<div style=""width:500px;"">
                            <p style=""font-size:50px; font-weight:bold;""
                            >fearful</p>
                            <div style=""width:240px; margin: auto;"">
                                <img src=""images/map10_RdYlBu_scaleDef_orientMir_090.png"" style= ""width:200px""alt=""img"">
                            </div>
                        </div>",0.915,"",0,"",NA,"","images/map10_RdYlBu_scaleDef_orientMir_090.png","fearful",1,10,10,"RdYlBu","orientMir","scaleDef","090",NA,NA
"","","","","","html-slider-response",66,204514,"0.0-60.0","vfnoyh37ds",51,NA,"<div style=""width:500px;"">
                            <p style=""font-size:50px; font-weight:bold;""
                            >fearful</p>
                            <div style=""width:240px; margin: auto;"">
                                <img src=""images/map15_turbo_scaleDef_orientDef_090.png"" style= ""width:200px""alt=""img"">
                            </div>
                        </div>",0.3,"",0,"",NA,"","images/map15_turbo_scaleDef_orientDef_090.png","fearful",1,15,15,"turbo","orientDef","scaleDef","090",NA,NA
"","","","","","html-slider-response",67,206245,"0.0-61.0","vfnoyh37ds",51,NA,"<div style=""width:500px;"">
                            <p style=""font-size:50px; font-weight:bold;""
                            >fearful</p>
                            <div style=""width:240px; margin: auto;"">
                                <img src=""images/map02_PuRd_scaleRev_orientDef_000.png"" style= ""width:200px""alt=""img"">
                            </div>
                        </div>",0.295,"",0,"",NA,"","images/map02_PuRd_scaleRev_orientDef_000.png","fearful",1,2,2,"PuRd","orientDef","scaleRev","000",NA,NA
"","","","","","html-slider-response",68,207914,"0.0-62.0","vfnoyh37ds",51,NA,"<div style=""width:500px;"">
                            <p style=""font-size:50px; font-weight:bold;""
                            >fearful</p>
                            <div style=""width:240px; margin: auto;"">
                                <img src=""images/map10_RdBu_scaleRev_orientMir_000.png"" style= ""width:200px""alt=""img"">
                            </div>
                        </div>",0.975,"",0,"",NA,"","images/map10_RdBu_scaleRev_orientMir_000.png","fearful",1,10,10,"RdBu","orientMir","scaleRev","000",NA,NA
"","","","","","html-slider-response",69,209394,"0.0-63.0","vfnoyh37ds",51,NA,"<div style=""width:500px;"">
                            <p style=""font-size:50px; font-weight:bold;""
                            >fearful</p>
                            <div style=""width:240px; margin: auto;"">
                                <img src=""images/map27_OrRd_scaleDef_orientMir_090.png"" style= ""width:200px""alt=""img"">
                            </div>
                        </div>",1,"",0,"",NA,"","images/map27_OrRd_scaleDef_orientMir_090.png","fearful",1,27,27,"OrRd","orientMir","scaleDef","090",NA,NA
"","","","","","html-slider-response",70,211045,"0.0-64.0","vfnoyh37ds",51,NA,"<div style=""width:500px;"">
                            <p style=""font-size:50px; font-weight:bold;""
                            >fearful</p>
                            <div style=""width:240px; margin: auto;"">
                                <img src=""images/map26_Oranges_scaleDef_orientMir_090.png"" style= ""width:200px""alt=""img"">
                            </div>
                        </div>",1,"",0,"",NA,"","images/map26_Oranges_scaleDef_orientMir_090.png","fearful",1,26,26,"Oranges","orientMir","scaleDef","090",NA,NA
"","","","","","html-slider-response",71,213446,"0.0-65.0","vfnoyh37ds",51,NA,"<div style=""width:500px;"">
                            <p style=""font-size:50px; font-weight:bold;""
                            >fearful</p>
                            <div style=""width:240px; margin: auto;"">
                                <img src=""images/map26_Reds_scaleDef_orientMir_270.png"" style= ""width:200px""alt=""img"">
                            </div>
                        </div>",0.9,"",0,"",NA,"","images/map26_Reds_scaleDef_orientMir_270.png","fearful",1,26,26,"Reds","orientMir","scaleDef","270",NA,NA
"","","","","","html-slider-response",72,215797,"0.0-66.0","vfnoyh37ds",51,NA,"<div style=""width:500px;"">
                            <p style=""font-size:50px; font-weight:bold;""
                            >fearful</p>
                            <div style=""width:240px; margin: auto;"">
                                <img src=""images/map10_RdYlBu_scaleRev_orientMir_180.png"" style= ""width:200px""alt=""img"">
                            </div>
                        </div>",0.8675,"",0,"",NA,"","images/map10_RdYlBu_scaleRev_orientMir_180.png","fearful",1,10,10,"RdYlBu","orientMir","scaleRev","180",NA,NA
"","","","","","html-slider-response",73,217780,"0.0-67.0","vfnoyh37ds",51,NA,"<div style=""width:500px;"">
                            <p style=""font-size:50px; font-weight:bold;""
                            >fearful</p>
                            <div style=""width:240px; margin: auto;"">
                                <img src=""images/map05_YlGnBu_scaleRev_orientDef_180.png"" style= ""width:200px""alt=""img"">
                            </div>
                        </div>",0.025,"",0,"",NA,"","images/map05_YlGnBu_scaleRev_orientDef_180.png","fearful",1,5,5,"YlGnBu","orientDef","scaleRev","180",NA,NA
"","","","","","html-slider-response",74,220279,"0.0-68.0","vfnoyh37ds",51,NA,"<div style=""width:500px;"">
                            <p style=""font-size:50px; font-weight:bold;""
                            >fearful</p>
                            <div style=""width:240px; margin: auto;"">
                                <img src=""images/map27_YlOrRd_scaleRev_orientMir_000.png"" style= ""width:200px""alt=""img"">
                            </div>
                        </div>",0.8775,"",0,"",NA,"","images/map27_YlOrRd_scaleRev_orientMir_000.png","fearful",1,27,27,"YlOrRd","orientMir","scaleRev","000",NA,NA
"","","","","","html-slider-response",75,222463,"0.0-69.0","vfnoyh37ds",51,NA,"<div style=""width:500px;"">
                            <p style=""font-size:50px; font-weight:bold;""
                            >fearful</p>
                            <div style=""width:240px; margin: auto;"">
                                <img src=""images/map07_BrBG_scaleRev_orientMir_180.png"" style= ""width:200px""alt=""img"">
                            </div>
                        </div>",0.1075,"",0,"",NA,"","images/map07_BrBG_scaleRev_orientMir_180.png","fearful",1,7,7,"BrBG","orientMir","scaleRev","180",NA,NA
"","","","","","html-slider-response",76,224128,"0.0-70.0","vfnoyh37ds",51,NA,"<div style=""width:500px;"">
                            <p style=""font-size:50px; font-weight:bold;""
                            >fearful</p>
                            <div style=""width:240px; margin: auto;"">
                                <img src=""images/map02_BuPu_scaleRev_orientMir_000.png"" style= ""width:200px""alt=""img"">
                            </div>
                        </div>",0.035,"",0,"",NA,"","images/map02_BuPu_scaleRev_orientMir_000.png","fearful",1,2,2,"BuPu","orientMir","scaleRev","000",NA,NA
"","","","","","html-slider-response",77,226209,"0.0-71.0","vfnoyh37ds",51,NA,"<div style=""width:500px;"">
                            <p style=""font-size:50px; font-weight:bold;""
                            >fearful</p>
                            <div style=""width:240px; margin: auto;"">
                                <img src=""images/map23_magma_scaleDef_orientDef_090.png"" style= ""width:200px""alt=""img"">
                            </div>
                        </div>",0.145,"",0,"",NA,"","images/map23_magma_scaleDef_orientDef_090.png","fearful",1,23,23,"magma","orientDef","scaleDef","090",NA,NA
"","","","","","html-slider-response",78,228209,"0.0-72.0","vfnoyh37ds",51,NA,"<div style=""width:500px;"">
                            <p style=""font-size:50px; font-weight:bold;""
                            >fearful</p>
                            <div style=""width:240px; margin: auto;"">
                                <img src=""images/map13_berlin_scaleDef_orientDef_090.png"" style= ""width:200px""alt=""img"">
                            </div>
                        </div>",0.8,"",0,"",NA,"","images/map13_berlin_scaleDef_orientDef_090.png","fearful",1,13,13,"berlin","orientDef","scaleDef","090",NA,NA
"","","","","","html-slider-response",79,229981,"0.0-73.0","vfnoyh37ds",51,NA,"<div style=""width:500px;"">
                            <p style=""font-size:50px; font-weight:bold;""
                            >fearful</p>
                            <div style=""width:240px; margin: auto;"">
                                <img src=""images/map10_RdGy_scaleRev_orientDef_180.png"" style= ""width:200px""alt=""img"">
                            </div>
                        </div>",0.8525,"",0,"",NA,"","images/map10_RdGy_scaleRev_orientDef_180.png","fearful",1,10,10,"RdGy","orientDef","scaleRev","180",NA,NA
"","","","","","html-slider-response",80,231647,"0.0-74.0","vfnoyh37ds",51,NA,"<div style=""width:500px;"">
                            <p style=""font-size:50px; font-weight:bold;""
                            >fearful</p>
                            <div style=""width:240px; margin: auto;"">
                                <img src=""images/map13_seismic_scaleRev_orientDef_000.png"" style= ""width:200px""alt=""img"">
                            </div>
                        </div>",0.86,"",0,"",NA,"","images/map13_seismic_scaleRev_orientDef_000.png","fearful",1,13,13,"seismic","orientDef","scaleRev","000",NA,NA
"","","","","","html-slider-response",81,234562,"0.0-75.0","vfnoyh37ds",51,NA,"<div style=""width:500px;"">
                            <p style=""font-size:50px; font-weight:bold;""
                            >fearful</p>
                            <div style=""width:240px; margin: auto;"">
                                <img src=""images/map12_bwr_scaleDef_orientMir_090.png"" style= ""width:200px""alt=""img"">
                            </div>
                        </div>",0.5475,"",0,"",NA,"","images/map12_bwr_scaleDef_orientMir_090.png","fearful",1,12,12,"bwr","orientMir","scaleDef","090",NA,NA
"","","","","","html-slider-response",82,236115,"0.0-76.0","vfnoyh37ds",51,NA,"<div style=""width:500px;"">
                            <p style=""font-size:50px; font-weight:bold;""
                            >fearful</p>
                            <div style=""width:240px; margin: auto;"">
                                <img src=""images/map07_PiYG_scaleDef_orientDef_090.png"" style= ""width:200px""alt=""img"">
                            </div>
                        </div>",0.145,"",0,"",NA,"","images/map07_PiYG_scaleDef_orientDef_090.png","fearful",1,7,7,"PiYG","orientDef","scaleDef","090",NA,NA
"","","","","","html-slider-response",83,238310,"0.0-77.0","vfnoyh37ds",51,NA,"<div style=""width:500px;"">
                            <p style=""font-size:50px; font-weight:bold;""
                            >fearful</p>
                            <div style=""width:240px; margin: auto;"">
                                <img src=""images/map02_RdPu_scaleRev_orientDef_180.png"" style= ""width:200px""alt=""img"">
                            </div>
                        </div>",0.4425,"",0,"",NA,"","images/map02_RdPu_scaleRev_orientDef_180.png","fearful",1,2,2,"RdPu","orientDef","scaleRev","180",NA,NA
"","","","","","html-slider-response",84,239645,"0.0-78.0","vfnoyh37ds",51,NA,"<div style=""width:500px;"">
                            <p style=""font-size:50px; font-weight:bold;""
                            >fearful</p>
                            <div style=""width:240px; margin: auto;"">
                                <img src=""images/map02_GnBu_scaleDef_orientMir_090.png"" style= ""width:200px""alt=""img"">
                            </div>
                        </div>",0,"",0,"",NA,"","images/map02_GnBu_scaleDef_orientMir_090.png","fearful",1,2,2,"GnBu","orientMir","scaleDef","090",NA,NA
"","","","","","html-slider-response",85,242104,"0.0-79.0","vfnoyh37ds",51,NA,"<div style=""width:500px;"">
                            <p style=""font-size:50px; font-weight:bold;""
                            >fearful</p>
                            <div style=""width:240px; margin: auto;"">
                                <img src=""images/map23_cividis_scaleDef_orientDef_270.png"" style= ""width:200px""alt=""img"">
                            </div>
                        </div>",0.3725,"",0,"",NA,"","images/map23_cividis_scaleDef_orientDef_270.png","fearful",1,23,23,"cividis","orientDef","scaleDef","270",NA,NA
"","","","","","html-slider-response",86,245115,"0.0-80.0","vfnoyh37ds",51,NA,"<div style=""width:500px;"">
                            <p style=""font-size:50px; font-weight:bold;""
                            >fearful</p>
                            <div style=""width:240px; margin: auto;"">
                                <img src=""images/map02_PuBu_scaleDef_orientMir_270.png"" style= ""width:200px""alt=""img"">
                            </div>
                        </div>",0.21,"",0,"",NA,"","images/map02_PuBu_scaleDef_orientMir_270.png","fearful",1,2,2,"PuBu","orientMir","scaleDef","270",NA,NA
"","","","","","html-slider-response",87,246687,"0.0-81.0","vfnoyh37ds",51,NA,"<div style=""width:500px;"">
                            <p style=""font-size:50px; font-weight:bold;""
                            >fearful</p>
                            <div style=""width:240px; margin: auto;"">
                                <img src=""images/map27_PuRd_scaleDef_orientMir_270.png"" style= ""width:200px""alt=""img"">
                            </div>
                        </div>",0.135,"",0,"",NA,"","images/map27_PuRd_scaleDef_orientMir_270.png","fearful",1,27,27,"PuRd","orientMir","scaleDef","270",NA,NA
"","","","","","html-slider-response",88,248389,"0.0-82.0","vfnoyh37ds",51,NA,"<div style=""width:500px;"">
                            <p style=""font-size:50px; font-weight:bold;""
                            >fearful</p>
                            <div style=""width:240px; margin: auto;"">
                                <img src=""images/map13_gist_earth_scaleDef_orientMir_270.png"" style= ""width:200px""alt=""img"">
                            </div>
                        </div>",0.0675,"",0,"",NA,"","images/map13_gist_earth_scaleDef_orientMir_270.png","fearful",1,13,13,"gist","scaleDef","earth","orientMir",NA,NA
"","","","","","html-slider-response",89,250115,"0.0-83.0","vfnoyh37ds",51,NA,"<div style=""width:500px;"">
                            <p style=""font-size:50px; font-weight:bold;""
                            >fearful</p>
                            <div style=""width:240px; margin: auto;"">
                                <img src=""images/map26_Purples_scaleRev_orientDef_000.png"" style= ""width:200px""alt=""img"">
                            </div>
                        </div>",0.0275,"",0,"",NA,"","images/map26_Purples_scaleRev_orientDef_000.png","fearful",1,26,26,"Purples","orientDef","scaleRev","000",NA,NA
"","","","","","html-slider-response",90,251798,"0.0-84.0","vfnoyh37ds",51,NA,"<div style=""width:500px;"">
                            <p style=""font-size:50px; font-weight:bold;""
                            >fearful</p>
                            <div style=""width:240px; margin: auto;"">
                                <img src=""images/map13_managua_scaleDef_orientDef_270.png"" style= ""width:200px""alt=""img"">
                            </div>
                        </div>",0.625,"",0,"",NA,"","images/map13_managua_scaleDef_orientDef_270.png","fearful",1,13,13,"managua","orientDef","scaleDef","270",NA,NA
"","","","","","html-slider-response",91,253474,"0.0-85.0","vfnoyh37ds",51,NA,"<div style=""width:500px;"">
                            <p style=""font-size:50px; font-weight:bold;""
                            >fearful</p>
                            <div style=""width:240px; margin: auto;"">
                                <img src=""images/map07_PRGn_scaleDef_orientDef_270.png"" style= ""width:200px""alt=""img"">
                            </div>
                        </div>",0,"",0,"",NA,"","images/map07_PRGn_scaleDef_orientDef_270.png","fearful",1,7,7,"PRGn","orientDef","scaleDef","270",NA,NA
"","","","","","html-slider-response",92,256098,"0.0-86.0","vfnoyh37ds",51,NA,"<div style=""width:500px;"">
                            <p style=""font-size:50px; font-weight:bold;""
                            >fearful</p>
                            <div style=""width:240px; margin: auto;"">
                                <img src=""images/map26_Greens_scaleDef_orientDef_270.png"" style= ""width:200px""alt=""img"">
                            </div>
                        </div>",0.105,"",0,"",NA,"","images/map26_Greens_scaleDef_orientDef_270.png","fearful",1,26,26,"Greens","orientDef","scaleDef","270",NA,NA
"","","","","","html-slider-response",93,258049,"0.0-87.0","vfnoyh37ds",51,NA,"<div style=""width:500px;"">
                            <p style=""font-size:50px; font-weight:bold;""
                            >fearful</p>
                            <div style=""width:240px; margin: auto;"">
                                <img src=""images/map15_gist_earth_scaleRev_orientDef_000.png"" style= ""width:200px""alt=""img"">
                            </div>
                        </div>",0.24,"",0,"",NA,"","images/map15_gist_earth_scaleRev_orientDef_000.png","fearful",1,15,15,"gist","scaleRev","earth","orientDef",NA,NA
"","","","","","html-slider-response",94,259931,"0.0-88.0","vfnoyh37ds",51,NA,"<div style=""width:500px;"">
                            <p style=""font-size:50px; font-weight:bold;""
                            >fearful</p>
                            <div style=""width:240px; margin: auto;"">
                                <img src=""images/map27_YlOrBr_scaleRev_orientDef_180.png"" style= ""width:200px""alt=""img"">
                            </div>
                        </div>",0.2125,"",0,"",NA,"","images/map27_YlOrBr_scaleRev_orientDef_180.png","fearful",1,27,27,"YlOrBr","orientDef","scaleRev","180",NA,NA
"","","","","","html-slider-response",95,262463,"0.0-89.0","vfnoyh37ds",51,NA,"<div style=""width:500px;"">
                            <p style=""font-size:50px; font-weight:bold;""
                            >fearful</p>
                            <div style=""width:240px; margin: auto;"">
                                <img src=""images/map05_BuGn_scaleRev_orientMir_180.png"" style= ""width:200px""alt=""img"">
                            </div>
                        </div>",0.205,"",0,"",NA,"","images/map05_BuGn_scaleRev_orientMir_180.png","fearful",1,5,5,"BuGn","orientMir","scaleRev","180",NA,NA
"","","","","","html-slider-response",96,264496,"0.0-90.0","vfnoyh37ds",51,NA,"<div style=""width:500px;"">
                            <p style=""font-size:50px; font-weight:bold;""
                            >fearful</p>
                            <div style=""width:240px; margin: auto;"">
                                <img src=""images/map07_PRGn_scaleRev_orientMir_000.png"" style= ""width:200px""alt=""img"">
                            </div>
                        </div>",0.2075,"",0,"",NA,"","images/map07_PRGn_scaleRev_orientMir_000.png","fearful",1,7,7,"PRGn","orientMir","scaleRev","000",NA,NA
"","","","","","html-slider-response",97,270888,"0.0-91.0","vfnoyh37ds",51,NA,"<div style=""width:500px;"">
                            <p style=""font-size:50px; font-weight:bold;""
                            >fearful</p>
                            <div style=""width:240px; margin: auto;"">
                                <img src=""images/map12_seismic_scaleDef_orientMir_270.png"" style= ""width:200px""alt=""img"">
                            </div>
                        </div>",0.5575,"",0,"",NA,"","images/map12_seismic_scaleDef_orientMir_270.png","fearful",1,12,12,"seismic","orientMir","scaleDef","270",NA,NA
"","","","","","html-slider-response",98,275531,"0.0-92.0","vfnoyh37ds",51,NA,"<div style=""width:500px;"">
                            <p style=""font-size:50px; font-weight:bold;""
                            >fearful</p>
                            <div style=""width:240px; margin: auto;"">
                                <img src=""images/map15_plasma_scaleRev_orientMir_180.png"" style= ""width:200px""alt=""img"">
                            </div>
                        </div>",0.1325,"",0,"",NA,"","images/map15_plasma_scaleRev_orientMir_180.png","fearful",1,15,15,"plasma","orientMir","scaleRev","180",NA,NA
"","","","","","html-slider-response",99,279282,"0.0-93.0","vfnoyh37ds",51,NA,"<div style=""width:500px;"">
                            <p style=""font-size:50px; font-weight:bold;""
                            >fearful</p>
                            <div style=""width:240px; margin: auto;"">
                                <img src=""images/map05_PuBu_scaleRev_orientDef_000.png"" style= ""width:200px""alt=""img"">
                            </div>
                        </div>",0.155,"",0,"",NA,"","images/map05_PuBu_scaleRev_orientDef_000.png","fearful",1,5,5,"PuBu","orientDef","scaleRev","000",NA,NA
"","","","","","html-slider-response",100,284532,"0.0-94.0","vfnoyh37ds",51,NA,"<div style=""width:500px;"">
                            <p style=""font-size:50px; font-weight:bold;""
                            >fearful</p>
                            <div style=""width:240px; margin: auto;"">
                                <img src=""images/map23_inferno_scaleRev_orientDef_000.png"" style= ""width:200px""alt=""img"">
                            </div>
                        </div>",0.1475,"",0,"",NA,"","images/map23_inferno_scaleRev_orientDef_000.png","fearful",1,23,23,"inferno","orientDef","scaleRev","000",NA,NA
"","","","","","html-button-response",101,353174,"0.0-95.0","vfnoyh37ds",51,68131,"<p>Great Job! You've finished block 1.<br></br> You have 4 block(s) left to go.<br></br></p>",0.5,"",NA,"",NA,"","","",NA,NA,NA,"","","","",NA,NA
"","","","","","html-button-response",102,354754,"0.0-96.0","vfnoyh37ds",51,1579,"<p>In this block of trials, you will be asked to rate how much you associate each map with:</p > <p style = 'font-size:150%; font-weight: bold'>happy</p><br></br>",0.5,"",NA,"",NA,"","","",NA,NA,NA,"","","","",NA,NA
"","","","","","html-slider-response",103,357597,"0.0-97.0","vfnoyh37ds",51,NA,"<div style=""width:500px;"">
                            <p style=""font-size:50px; font-weight:bold;""
                            >happy</p>
                            <div style=""width:240px; margin: auto;"">
                                <img src=""images/map10_RdYlBu_scaleRev_orientMir_180.png"" style= ""width:200px""alt=""img"">
                            </div>
                        </div>",0.755,"",0,"",NA,"","images/map10_RdYlBu_scaleRev_orientMir_180.png","happy",1,10,10,"RdYlBu","orientMir","scaleRev","180",NA,NA
"","","","","","html-slider-response",104,359921,"0.0-98.0","vfnoyh37ds",51,NA,"<div style=""width:500px;"">
                            <p style=""font-size:50px; font-weight:bold;""
                            >happy</p>
                            <div style=""width:240px; margin: auto;"">
                                <img src=""images/map27_YlOrBr_scaleRev_orientDef_180.png"" style= ""width:200px""alt=""img"">
                            </div>
                        </div>",0.18,"",0,"",NA,"","images/map27_YlOrBr_scaleRev_orientDef_180.png","happy",1,27,27,"YlOrBr","orientDef","scaleRev","180",NA,NA
"","","","","","html-slider-response",105,361867,"0.0-99.0","vfnoyh37ds",51,NA,"<div style=""width:500px;"">
                            <p style=""font-size:50px; font-weight:bold;""
                            >happy</p>
                            <div style=""width:240px; margin: auto;"">
                                <img src=""images/map23_cividis_scaleRev_orientMir_000.png"" style= ""width:200px""alt=""img"">
                            </div>
                        </div>",0.2125,"",0,"",NA,"","images/map23_cividis_scaleRev_orientMir_000.png","happy",1,23,23,"cividis","orientMir","scaleRev","000",NA,NA
"","","","","","html-slider-response",106,368864,"0.0-100.0","vfnoyh37ds",51,NA,"<div style=""width:500px;"">
                            <p style=""font-size:50px; font-weight:bold;""
                            >happy</p>
                            <div style=""width:240px; margin: auto;"">
                                <img src=""images/map12_coolwarm_scaleRev_orientMir_000.png"" style= ""width:200px""alt=""img"">
                            </div>
                        </div>",0.175,"",0,"",NA,"","images/map12_coolwarm_scaleRev_orientMir_000.png","happy",1,12,12,"coolwarm","orientMir","scaleRev","000",NA,NA
"","","","","","html-slider-response",107,371264,"0.0-101.0","vfnoyh37ds",51,NA,"<div style=""width:500px;"">
                            <p style=""font-size:50px; font-weight:bold;""
                            >happy</p>
                            <div style=""width:240px; margin: auto;"">
                                <img src=""images/map13_berlin_scaleDef_orientDef_090.png"" style= ""width:200px""alt=""img"">
                            </div>
                        </div>",0.7525,"",0,"",NA,"","images/map13_berlin_scaleDef_orientDef_090.png","happy",1,13,13,"berlin","orientDef","scaleDef","090",NA,NA
"","","","","","html-slider-response",108,374632,"0.0-102.0","vfnoyh37ds",51,NA,"<div style=""width:500px;"">
                            <p style=""font-size:50px; font-weight:bold;""
                            >happy</p>
                            <div style=""width:240px; margin: auto;"">
                                <img src=""images/map05_PuBuGn_scaleDef_orientDef_270.png"" style= ""width:200px""alt=""img"">
                            </div>
                        </div>",0,"",0,"",NA,"","images/map05_PuBuGn_scaleDef_orientDef_270.png","happy",1,5,5,"PuBuGn","orientDef","scaleDef","270",NA,NA
"","","","","","html-slider-response",109,379332,"0.0-103.0","vfnoyh37ds",51,NA,"<div style=""width:500px;"">
                            <p style=""font-size:50px; font-weight:bold;""
                            >happy</p>
                            <div style=""width:240px; margin: auto;"">
                                <img src=""images/map02_GnBu_scaleDef_orientMir_090.png"" style= ""width:200px""alt=""img"">
                            </div>
                        </div>",0,"",0,"",NA,"","images/map02_GnBu_scaleDef_orientMir_090.png","happy",1,2,2,"GnBu","orientMir","scaleDef","090",NA,NA
"","","","","","html-slider-response",110,381551,"0.0-104.0","vfnoyh37ds",51,NA,"<div style=""width:500px;"">
                            <p style=""font-size:50px; font-weight:bold;""
                            >happy</p>
                            <div style=""width:240px; margin: auto;"">
                                <img src=""images/map12_coolwarm_scaleDef_orientDef_270.png"" style= ""width:200px""alt=""img"">
                            </div>
                        </div>",0.535,"",0,"",NA,"","images/map12_coolwarm_scaleDef_orientDef_270.png","happy",1,12,12,"coolwarm","orientDef","scaleDef","270",NA,NA
"","","","","","html-slider-response",111,383097,"0.0-105.0","vfnoyh37ds",51,NA,"<div style=""width:500px;"">
                            <p style=""font-size:50px; font-weight:bold;""
                            >happy</p>
                            <div style=""width:240px; margin: auto;"">
                                <img src=""images/map26_Greens_scaleRev_orientMir_000.png"" style= ""width:200px""alt=""img"">
                            </div>
                        </div>",0.0275,"",0,"",NA,"","images/map26_Greens_scaleRev_orientMir_000.png","happy",1,26,26,"Greens","orientMir","scaleRev","000",NA,NA
"","","","","","html-slider-response",112,384740,"0.0-106.0","vfnoyh37ds",51,NA,"<div style=""width:500px;"">
                            <p style=""font-size:50px; font-weight:bold;""
                            >happy</p>
                            <div style=""width:240px; margin: auto;"">
                                <img src=""images/map07_YlGn_scaleRev_orientDef_000.png"" style= ""width:200px""alt=""img"">
                            </div>
                        </div>",0.0125,"",0,"",NA,"","images/map07_YlGn_scaleRev_orientDef_000.png","happy",1,7,7,"YlGn","orientDef","scaleRev","000",NA,NA
"","","","","","html-slider-response",113,386656,"0.0-107.0","vfnoyh37ds",51,NA,"<div style=""width:500px;"">
                            <p style=""font-size:50px; font-weight:bold;""
                            >happy</p>
                            <div style=""width:240px; margin: auto;"">
                                <img src=""images/map13_managua_scaleRev_orientMir_000.png"" style= ""width:200px""alt=""img"">
                            </div>
                        </div>",0.625,"",0,"",NA,"","images/map13_managua_scaleRev_orientMir_000.png","happy",1,13,13,"managua","orientMir","scaleRev","000",NA,NA
"","","","","","html-slider-response",114,388735,"0.0-108.0","vfnoyh37ds",51,NA,"<div style=""width:500px;"">
                            <p style=""font-size:50px; font-weight:bold;""
                            >happy</p>
                            <div style=""width:240px; margin: auto;"">
                                <img src=""images/map05_YlGnBu_scaleRev_orientDef_180.png"" style= ""width:200px""alt=""img"">
                            </div>
                        </div>",0,"",0,"",NA,"","images/map05_YlGnBu_scaleRev_orientDef_180.png","happy",1,5,5,"YlGnBu","orientDef","scaleRev","180",NA,NA
"","","","","","html-slider-response",115,391576,"0.0-109.0","vfnoyh37ds",51,NA,"<div style=""width:500px;"">
                            <p style=""font-size:50px; font-weight:bold;""
                            >happy</p>
                            <div style=""width:240px; margin: auto;"">
                                <img src=""images/map27_YlOrBr_scaleDef_orientDef_090.png"" style= ""width:200px""alt=""img"">
                            </div>
                        </div>",0.0225,"",0,"",NA,"","images/map27_YlOrBr_scaleDef_orientDef_090.png","happy",1,27,27,"YlOrBr","orientDef","scaleDef","090",NA,NA
"","","","","","html-slider-response",116,393147,"0.0-110.0","vfnoyh37ds",51,NA,"<div style=""width:500px;"">
                            <p style=""font-size:50px; font-weight:bold;""
                            >happy</p>
                            <div style=""width:240px; margin: auto;"">
                                <img src=""images/map05_BuGn_scaleRev_orientMir_180.png"" style= ""width:200px""alt=""img"">
                            </div>
                        </div>",0.035,"",0,"",NA,"","images/map05_BuGn_scaleRev_orientMir_180.png","happy",1,5,5,"BuGn","orientMir","scaleRev","180",NA,NA
"","","","","","html-slider-response",117,397129,"0.0-111.0","vfnoyh37ds",51,NA,"<div style=""width:500px;"">
                            <p style=""font-size:50px; font-weight:bold;""
                            >happy</p>
                            <div style=""width:240px; margin: auto;"">
                                <img src=""images/map26_Blues_scaleDef_orientDef_090.png"" style= ""width:200px""alt=""img"">
                            </div>
                        </div>",0.885,"",0,"",NA,"","images/map26_Blues_scaleDef_orientDef_090.png","happy",1,26,26,"Blues","orientDef","scaleDef","090",NA,NA
"","","","","","html-slider-response",118,400049,"0.0-112.0","vfnoyh37ds",51,NA,"<div style=""width:500px;"">
                            <p style=""font-size:50px; font-weight:bold;""
                            >happy</p>
                            <div style=""width:240px; margin: auto;"">
                                <img src=""images/map10_RdBu_scaleRev_orientMir_000.png"" style= ""width:200px""alt=""img"">
                            </div>
                        </div>",0.105,"",0,"",NA,"","images/map10_RdBu_scaleRev_orientMir_000.png","happy",1,10,10,"RdBu","orientMir","scaleRev","000",NA,NA
"","","","","","html-slider-response",119,401900,"0.0-113.0","vfnoyh37ds",51,NA,"<div style=""width:500px;"">
                            <p style=""font-size:50px; font-weight:bold;""
                            >happy</p>
                            <div style=""width:240px; margin: auto;"">
                                <img src=""images/map05_YlGnBu_scaleDef_orientDef_090.png"" style= ""width:200px""alt=""img"">
                            </div>
                        </div>",0.92,"",0,"",NA,"","images/map05_YlGnBu_scaleDef_orientDef_090.png","happy",1,5,5,"YlGnBu","orientDef","scaleDef","090",NA,NA
"","","","","","html-slider-response",120,403700,"0.0-114.0","vfnoyh37ds",51,NA,"<div style=""width:500px;"">
                            <p style=""font-size:50px; font-weight:bold;""
                            >happy</p>
                            <div style=""width:240px; margin: auto;"">
                                <img src=""images/map12_Spectral_scaleRev_orientDef_180.png"" style= ""width:200px""alt=""img"">
                            </div>
                        </div>",0.2725,"",0,"",NA,"","images/map12_Spectral_scaleRev_orientDef_180.png","happy",1,12,12,"Spectral","orientDef","scaleRev","180",NA,NA
"","","","","","html-slider-response",121,405318,"0.0-115.0","vfnoyh37ds",51,NA,"<div style=""width:500px;"">
                            <p style=""font-size:50px; font-weight:bold;""
                            >happy</p>
                            <div style=""width:240px; margin: auto;"">
                                <img src=""images/map02_GnBu_scaleRev_orientMir_180.png"" style= ""width:200px""alt=""img"">
                            </div>
                        </div>",0.905,"",0,"",NA,"","images/map02_GnBu_scaleRev_orientMir_180.png","happy",1,2,2,"GnBu","orientMir","scaleRev","180",NA,NA
"","","","","","html-slider-response",122,411567,"0.0-116.0","vfnoyh37ds",51,NA,"<div style=""width:500px;"">
                            <p style=""font-size:50px; font-weight:bold;""
                            >happy</p>
                            <div style=""width:240px; margin: auto;"">
                                <img src=""images/map07_PuOr_scaleDef_orientMir_270.png"" style= ""width:200px""alt=""img"">
                            </div>
                        </div>",0.185,"",0,"",NA,"","images/map07_PuOr_scaleDef_orientMir_270.png","happy",1,7,7,"PuOr","orientMir","scaleDef","270",NA,NA
"","","","","","html-slider-response",123,413699,"0.0-117.0","vfnoyh37ds",51,NA,"<div style=""width:500px;"">
                            <p style=""font-size:50px; font-weight:bold;""
                            >happy</p>
                            <div style=""width:240px; margin: auto;"">
                                <img src=""images/map23_inferno_scaleRev_orientDef_000.png"" style= ""width:200px""alt=""img"">
                            </div>
                        </div>",0.165,"",0,"",NA,"","images/map23_inferno_scaleRev_orientDef_000.png","happy",1,23,23,"inferno","orientDef","scaleRev","000",NA,NA
"","","","","","html-slider-response",124,443286,"0.0-118.0","vfnoyh37ds",51,NA,"<div style=""width:500px;"">
                            <p style=""font-size:50px; font-weight:bold;""
                            >happy</p>
                            <div style=""width:240px; margin: auto;"">
                                <img src=""images/map15_plasma_scaleDef_orientMir_090.png"" style= ""width:200px""alt=""img"">
                            </div>
                        </div>",0.2225,"",0,"",NA,"","images/map15_plasma_scaleDef_orientMir_090.png","happy",1,15,15,"plasma","orientMir","scaleDef","090",NA,NA
"","","","","","html-slider-response",125,446418,"0.0-119.0","vfnoyh37ds",51,NA,"<div style=""width:500px;"">
                            <p style=""font-size:50px; font-weight:bold;""
                            >happy</p>
                            <div style=""width:240px; margin: auto;"">
                                <img src=""images/map23_Greys_scaleDef_orientMir_090.png"" style= ""width:200px""alt=""img"">
                            </div>
                        </div>",0.2325,"",0,"",NA,"","images/map23_Greys_scaleDef_orientMir_090.png","happy",1,23,23,"Greys","orientMir","scaleDef","090",NA,NA
"","","","","","html-slider-response",126,449552,"0.0-120.0","vfnoyh37ds",51,NA,"<div style=""width:500px;"">
                            <p style=""font-size:50px; font-weight:bold;""
                            >happy</p>
                            <div style=""width:240px; margin: auto;"">
                                <img src=""images/map02_RdPu_scaleRev_orientDef_180.png"" style= ""width:200px""alt=""img"">
                            </div>
                        </div>",0.7475,"",0,"",NA,"","images/map02_RdPu_scaleRev_orientDef_180.png","happy",1,2,2,"RdPu","orientDef","scaleRev","180",NA,NA
"","","","","","html-slider-response",127,451862,"0.0-121.0","vfnoyh37ds",51,NA,"<div style=""width:500px;"">
                            <p style=""font-size:50px; font-weight:bold;""
                            >happy</p>
                            <div style=""width:240px; margin: auto;"">
                                <img src=""images/map27_PuRd_scaleDef_orientMir_270.png"" style= ""width:200px""alt=""img"">
                            </div>
                        </div>",0.79,"",0,"",NA,"","images/map27_PuRd_scaleDef_orientMir_270.png","happy",1,27,27,"PuRd","orientMir","scaleDef","270",NA,NA
"","","","","","html-slider-response",128,455118,"0.0-122.0","vfnoyh37ds",51,NA,"<div style=""width:500px;"">
                            <p style=""font-size:50px; font-weight:bold;""
                            >happy</p>
                            <div style=""width:240px; margin: auto;"">
                                <img src=""images/map15_viridis_scaleRev_orientMir_000.png"" style= ""width:200px""alt=""img"">
                            </div>
                        </div>",0.825,"",0,"",NA,"","images/map15_viridis_scaleRev_orientMir_000.png","happy",1,15,15,"viridis","orientMir","scaleRev","000",NA,NA
"","","","","","html-slider-response",129,457267,"0.0-123.0","vfnoyh37ds",51,NA,"<div style=""width:500px;"">
                            <p style=""font-size:50px; font-weight:bold;""
                            >happy</p>
                            <div style=""width:240px; margin: auto;"">
                                <img src=""images/map07_BrBG_scaleRev_orientMir_180.png"" style= ""width:200px""alt=""img"">
                            </div>
                        </div>",0.105,"",0,"",NA,"","images/map07_BrBG_scaleRev_orientMir_180.png","happy",1,7,7,"BrBG","orientMir","scaleRev","180",NA,NA
"","","","","","html-slider-response",130,460364,"0.0-124.0","vfnoyh37ds",51,NA,"<div style=""width:500px;"">
                            <p style=""font-size:50px; font-weight:bold;""
                            >happy</p>
                            <div style=""width:240px; margin: auto;"">
                                <img src=""images/map07_PiYG_scaleDef_orientDef_090.png"" style= ""width:200px""alt=""img"">
                            </div>
                        </div>",0.7125,"",0,"",NA,"","images/map07_PiYG_scaleDef_orientDef_090.png","happy",1,7,7,"PiYG","orientDef","scaleDef","090",NA,NA
"","","","","","html-slider-response",131,463718,"0.0-125.0","vfnoyh37ds",51,NA,"<div style=""width:500px;"">
                            <p style=""font-size:50px; font-weight:bold;""
                            >happy</p>
                            <div style=""width:240px; margin: auto;"">
                                <img src=""images/map05_PuBuGn_scaleRev_orientMir_000.png"" style= ""width:200px""alt=""img"">
                            </div>
                        </div>",0.88,"",0,"",NA,"","images/map05_PuBuGn_scaleRev_orientMir_000.png","happy",1,5,5,"PuBuGn","orientMir","scaleRev","000",NA,NA
"","","","","","html-slider-response",132,469667,"0.0-126.0","vfnoyh37ds",51,NA,"<div style=""width:500px;"">
                            <p style=""font-size:50px; font-weight:bold;""
                            >happy</p>
                            <div style=""width:240px; margin: auto;"">
                                <img src=""images/map07_BrBG_scaleDef_orientMir_090.png"" style= ""width:200px""alt=""img"">
                            </div>
                        </div>",0.18,"",0,"",NA,"","images/map07_BrBG_scaleDef_orientMir_090.png","happy",1,7,7,"BrBG","orientMir","scaleDef","090",NA,NA
"","","","","","html-slider-response",133,474669,"0.0-127.0","vfnoyh37ds",51,NA,"<div style=""width:500px;"">
                            <p style=""font-size:50px; font-weight:bold;""
                            >happy</p>
                            <div style=""width:240px; margin: auto;"">
                                <img src=""images/map26_Oranges_scaleDef_orientMir_090.png"" style= ""width:200px""alt=""img"">
                            </div>
                        </div>",0.3075,"",0,"",NA,"","images/map26_Oranges_scaleDef_orientMir_090.png","happy",1,26,26,"Oranges","orientMir","scaleDef","090",NA,NA
"","","","","","html-slider-response",134,479818,"0.0-128.0","vfnoyh37ds",51,NA,"<div style=""width:500px;"">
                            <p style=""font-size:50px; font-weight:bold;""
                            >happy</p>
                            <div style=""width:240px; margin: auto;"">
                                <img src=""images/map26_Purples_scaleRev_orientDef_000.png"" style= ""width:200px""alt=""img"">
                            </div>
                        </div>",0.805,"",0,"",NA,"","images/map26_Purples_scaleRev_orientDef_000.png","happy",1,26,26,"Purples","orientDef","scaleRev","000",NA,NA
"","","","","","html-slider-response",135,485519,"0.0-129.0","vfnoyh37ds",51,NA,"<div style=""width:500px;"">
                            <p style=""font-size:50px; font-weight:bold;""
                            >happy</p>
                            <div style=""width:240px; margin: auto;"">
                                <img src=""images/map15_plasma_scaleRev_orientMir_180.png"" style= ""width:200px""alt=""img"">
                            </div>
                        </div>",0.59,"",0,"",NA,"","images/map15_plasma_scaleRev_orientMir_180.png","happy",1,15,15,"plasma","orientMir","scaleRev","180",NA,NA
"","","","","","html-slider-response",136,498135,"0.0-130.0","vfnoyh37ds",51,NA,"<div style=""width:500px;"">
                            <p style=""font-size:50px; font-weight:bold;""
                            >happy</p>
                            <div style=""width:240px; margin: auto;"">
                                <img src=""images/map27_YlOrRd_scaleDef_orientDef_270.png"" style= ""width:200px""alt=""img"">
                            </div>
                        </div>",0.3675,"",0,"",NA,"","images/map27_YlOrRd_scaleDef_orientDef_270.png","happy",1,27,27,"YlOrRd","orientDef","scaleDef","270",NA,NA
"","","","","","html-slider-response",137,500576,"0.0-131.0","vfnoyh37ds",51,NA,"<div style=""width:500px;"">
                            <p style=""font-size:50px; font-weight:bold;""
                            >happy</p>
                            <div style=""width:240px; margin: auto;"">
                                <img src=""images/map27_YlOrRd_scaleRev_orientMir_000.png"" style= ""width:200px""alt=""img"">
                            </div>
                        </div>",0.245,"",0,"",NA,"","images/map27_YlOrRd_scaleRev_orientMir_000.png","happy",1,27,27,"YlOrRd","orientMir","scaleRev","000",NA,NA
"","","","","","html-slider-response",138,502640,"0.0-132.0","vfnoyh37ds",51,NA,"<div style=""width:500px;"">
                            <p style=""font-size:50px; font-weight:bold;""
                            >happy</p>
                            <div style=""width:240px; margin: auto;"">
                                <img src=""images/map07_PiYG_scaleRev_orientDef_180.png"" style= ""width:200px""alt=""img"">
                            </div>
                        </div>",0.6275,"",0,"",NA,"","images/map07_PiYG_scaleRev_orientDef_180.png","happy",1,7,7,"PiYG","orientDef","scaleRev","180",NA,NA
"","","","","","html-slider-response",139,504681,"0.0-133.0","vfnoyh37ds",51,NA,"<div style=""width:500px;"">
                            <p style=""font-size:50px; font-weight:bold;""
                            >happy</p>
                            <div style=""width:240px; margin: auto;"">
                                <img src=""images/map10_RdYlGn_scaleDef_orientMir_270.png"" style= ""width:200px""alt=""img"">
                            </div>
                        </div>",0.305,"",0,"",NA,"","images/map10_RdYlGn_scaleDef_orientMir_270.png","happy",1,10,10,"RdYlGn","orientMir","scaleDef","270",NA,NA
"","","","","","html-slider-response",140,506482,"0.0-134.0","vfnoyh37ds",51,NA,"<div style=""width:500px;"">
                            <p style=""font-size:50px; font-weight:bold;""
                            >happy</p>
                            <div style=""width:240px; margin: auto;"">
                                <img src=""images/map23_Purples_scaleDef_orientMir_270.png"" style= ""width:200px""alt=""img"">
                            </div>
                        </div>",0.77,"",0,"",NA,"","images/map23_Purples_scaleDef_orientMir_270.png","happy",1,23,23,"Purples","orientMir","scaleDef","270",NA,NA
"","","","","","html-slider-response",141,508037,"0.0-135.0","vfnoyh37ds",51,NA,"<div style=""width:500px;"">
                            <p style=""font-size:50px; font-weight:bold;""
                            >happy</p>
                            <div style=""width:240px; margin: auto;"">
                                <img src=""images/map15_gist_earth_scaleRev_orientDef_000.png"" style= ""width:200px""alt=""img"">
                            </div>
                        </div>",0.6475,"",0,"",NA,"","images/map15_gist_earth_scaleRev_orientDef_000.png","happy",1,15,15,"gist","scaleRev","earth","orientDef",NA,NA
"","","","","","html-slider-response",142,509954,"0.0-136.0","vfnoyh37ds",51,NA,"<div style=""width:500px;"">
                            <p style=""font-size:50px; font-weight:bold;""
                            >happy</p>
                            <div style=""width:240px; margin: auto;"">
                                <img src=""images/map02_RdPu_scaleDef_orientDef_090.png"" style= ""width:200px""alt=""img"">
                            </div>
                        </div>",0.5725,"",0,"",NA,"","images/map02_RdPu_scaleDef_orientDef_090.png","happy",1,2,2,"RdPu","orientDef","scaleDef","090",NA,NA
"","","","","","html-button-response",143,512889,"0.0-137.0","vfnoyh37ds",51,2432,"<p>You are doing great!<br></br> You are halway done with the current block. When you are ready to continue, click the 'Continue' button.</p>",0.5,"",NA,"",NA,"","","",NA,NA,NA,"","","","",NA,NA
"","","","","","html-slider-response",144,518253,"0.0-138.0","vfnoyh37ds",51,NA,"<div style=""width:500px;"">
                            <p style=""font-size:50px; font-weight:bold;""
                            >happy</p>
                            <div style=""width:240px; margin: auto;"">
                                <img src=""images/map05_PuBu_scaleRev_orientDef_000.png"" style= ""width:200px""alt=""img"">
                            </div>
                        </div>",0.7275,"",0,"",NA,"","images/map05_PuBu_scaleRev_orientDef_000.png","happy",1,5,5,"PuBu","orientDef","scaleRev","000",NA,NA
"","","","","","html-slider-response",145,520964,"0.0-139.0","vfnoyh37ds",51,NA,"<div style=""width:500px;"">
                            <p style=""font-size:50px; font-weight:bold;""
                            >happy</p>
                            <div style=""width:240px; margin: auto;"">
                                <img src=""images/map27_OrRd_scaleRev_orientMir_180.png"" style= ""width:200px""alt=""img"">
                            </div>
                        </div>",0.2325,"",0,"",NA,"","images/map27_OrRd_scaleRev_orientMir_180.png","happy",1,27,27,"OrRd","orientMir","scaleRev","180",NA,NA
"","","","","","html-slider-response",146,522749,"0.0-140.0","vfnoyh37ds",51,NA,"<div style=""width:500px;"">
                            <p style=""font-size:50px; font-weight:bold;""
                            >happy</p>
                            <div style=""width:240px; margin: auto;"">
                                <img src=""images/map02_BuPu_scaleDef_orientDef_270.png"" style= ""width:200px""alt=""img"">
                            </div>
                        </div>",0.2925,"",0,"",NA,"","images/map02_BuPu_scaleDef_orientDef_270.png","happy",1,2,2,"BuPu","orientDef","scaleDef","270",NA,NA
"","","","","","html-slider-response",147,524482,"0.0-141.0","vfnoyh37ds",51,NA,"<div style=""width:500px;"">
                            <p style=""font-size:50px; font-weight:bold;""
                            >happy</p>
                            <div style=""width:240px; margin: auto;"">
                                <img src=""images/map07_PRGn_scaleDef_orientDef_270.png"" style= ""width:200px""alt=""img"">
                            </div>
                        </div>",0.1,"",0,"",NA,"","images/map07_PRGn_scaleDef_orientDef_270.png","happy",1,7,7,"PRGn","orientDef","scaleDef","270",NA,NA
"","","","","","html-slider-response",148,526341,"0.0-142.0","vfnoyh37ds",51,NA,"<div style=""width:500px;"">
                            <p style=""font-size:50px; font-weight:bold;""
                            >happy</p>
                            <div style=""width:240px; margin: auto;"">
                                <img src=""images/map13_vanimo_scaleRev_orientMir_180.png"" style= ""width:200px""alt=""img"">
                            </div>
                        </div>",0.305,"",0,"",NA,"","images/map13_vanimo_scaleRev_orientMir_180.png","happy",1,13,13,"vanimo","orientMir","scaleRev","180",NA,NA
"","","","","","html-slider-response",149,528001,"0.0-143.0","vfnoyh37ds",51,NA,"<div style=""width:500px;"">
                            <p style=""font-size:50px; font-weight:bold;""
                            >happy</p>
                            <div style=""width:240px; margin: auto;"">
                                <img src=""images/map23_Greys_scaleRev_orientMir_180.png"" style= ""width:200px""alt=""img"">
                            </div>
                        </div>",0.155,"",0,"",NA,"","images/map23_Greys_scaleRev_orientMir_180.png","happy",1,23,23,"Greys","orientMir","scaleRev","180",NA,NA
"","","","","","html-slider-response",150,529419,"0.0-144.0","vfnoyh37ds",51,NA,"<div style=""width:500px;"">
                            <p style=""font-size:50px; font-weight:bold;""
                            >happy</p>
                            <div style=""width:240px; margin: auto;"">
                                <img src=""images/map12_RdYlGn_scaleRev_orientDef_000.png"" style= ""width:200px""alt=""img"">
                            </div>
                        </div>",0.075,"",0,"",NA,"","images/map12_RdYlGn_scaleRev_orientDef_000.png","happy",1,12,12,"RdYlGn","orientDef","scaleRev","000",NA,NA
"","","","","","html-slider-response",151,536200,"0.0-145.0","vfnoyh37ds",51,NA,"<div style=""width:500px;"">
                            <p style=""font-size:50px; font-weight:bold;""
                            >happy</p>
                            <div style=""width:240px; margin: auto;"">
                                <img src=""images/map02_PuRd_scaleRev_orientDef_000.png"" style= ""width:200px""alt=""img"">
                            </div>
                        </div>",0.615,"",0,"",NA,"","images/map02_PuRd_scaleRev_orientDef_000.png","happy",1,2,2,"PuRd","orientDef","scaleRev","000",NA,NA
"","","","","","html-slider-response",152,542388,"0.0-146.0","vfnoyh37ds",51,NA,"<div style=""width:500px;"">
                            <p style=""font-size:50px; font-weight:bold;""
                            >happy</p>
                            <div style=""width:240px; margin: auto;"">
                                <img src=""images/map10_RdGy_scaleDef_orientDef_090.png"" style= ""width:200px""alt=""img"">
                            </div>
                        </div>",0.225,"",0,"",NA,"","images/map10_RdGy_scaleDef_orientDef_090.png","happy",1,10,10,"RdGy","orientDef","scaleDef","090",NA,NA
"","","","","","html-slider-response",153,546052,"0.0-147.0","vfnoyh37ds",51,NA,"<div style=""width:500px;"">
                            <p style=""font-size:50px; font-weight:bold;""
                            >happy</p>
                            <div style=""width:240px; margin: auto;"">
                                <img src=""images/map15_inferno_scaleDef_orientMir_270.png"" style= ""width:200px""alt=""img"">
                            </div>
                        </div>",0.28,"",0,"",NA,"","images/map15_inferno_scaleDef_orientMir_270.png","happy",1,15,15,"inferno","orientMir","scaleDef","270",NA,NA
"","","","","","html-slider-response",154,547765,"0.0-148.0","vfnoyh37ds",51,NA,"<div style=""width:500px;"">
                            <p style=""font-size:50px; font-weight:bold;""
                            >happy</p>
                            <div style=""width:240px; margin: auto;"">
                                <img src=""images/map07_PRGn_scaleRev_orientMir_000.png"" style= ""width:200px""alt=""img"">
                            </div>
                        </div>",0.3275,"",0,"",NA,"","images/map07_PRGn_scaleRev_orientMir_000.png","happy",1,7,7,"PRGn","orientMir","scaleRev","000",NA,NA
"","","","","","html-slider-response",155,556462,"0.0-149.0","vfnoyh37ds",51,NA,"<div style=""width:500px;"">
                            <p style=""font-size:50px; font-weight:bold;""
                            >happy</p>
                            <div style=""width:240px; margin: auto;"">
                                <img src=""images/map26_Oranges_scaleRev_orientMir_180.png"" style= ""width:200px""alt=""img"">
                            </div>
                        </div>",0.52,"",0,"",NA,"","images/map26_Oranges_scaleRev_orientMir_180.png","happy",1,26,26,"Oranges","orientMir","scaleRev","180",NA,NA
"","","","","","html-slider-response",156,567267,"0.0-150.0","vfnoyh37ds",51,NA,"<div style=""width:500px;"">
                            <p style=""font-size:50px; font-weight:bold;""
                            >happy</p>
                            <div style=""width:240px; margin: auto;"">
                                <img src=""images/map15_viridis_scaleDef_orientDef_270.png"" style= ""width:200px""alt=""img"">
                            </div>
                        </div>",0.78,"",0,"",NA,"","images/map15_viridis_scaleDef_orientDef_270.png","happy",1,15,15,"viridis","orientDef","scaleDef","270",NA,NA
"","","","","","html-slider-response",157,571542,"0.0-151.0","vfnoyh37ds",51,NA,"<div style=""width:500px;"">
                            <p style=""font-size:50px; font-weight:bold;""
                            >happy</p>
                            <div style=""width:240px; margin: auto;"">
                                <img src=""images/map10_PuOr_scaleRev_orientDef_000.png"" style= ""width:200px""alt=""img"">
                            </div>
                        </div>",0.255,"",0,"",NA,"","images/map10_PuOr_scaleRev_orientDef_000.png","happy",1,10,10,"PuOr","orientDef","scaleRev","000",NA,NA
"","","","","","html-slider-response",158,598016,"0.0-152.0","vfnoyh37ds",51,NA,"<div style=""width:500px;"">
                            <p style=""font-size:50px; font-weight:bold;""
                            >happy</p>
                            <div style=""width:240px; margin: auto;"">
                                <img src=""images/map13_vanimo_scaleDef_orientMir_090.png"" style= ""width:200px""alt=""img"">
                            </div>
                        </div>",0.1925,"",0,"",NA,"","images/map13_vanimo_scaleDef_orientMir_090.png","happy",1,13,13,"vanimo","orientMir","scaleDef","090",NA,NA
"","","","","","html-slider-response",159,600004,"0.0-153.0","vfnoyh37ds",51,NA,"<div style=""width:500px;"">
                            <p style=""font-size:50px; font-weight:bold;""
                            >happy</p>
                            <div style=""width:240px; margin: auto;"">
                                <img src=""images/map23_magma_scaleDef_orientDef_090.png"" style= ""width:200px""alt=""img"">
                            </div>
                        </div>",0.105,"",0,"",NA,"","images/map23_magma_scaleDef_orientDef_090.png","happy",1,23,23,"magma","orientDef","scaleDef","090",NA,NA
"","","","","","html-slider-response",160,601429,"0.0-154.0","vfnoyh37ds",51,NA,"<div style=""width:500px;"">
                            <p style=""font-size:50px; font-weight:bold;""
                            >happy</p>
                            <div style=""width:240px; margin: auto;"">
                                <img src=""images/map15_turbo_scaleRev_orientDef_180.png"" style= ""width:200px""alt=""img"">
                            </div>
                        </div>",0.105,"",0,"",NA,"","images/map15_turbo_scaleRev_orientDef_180.png","happy",1,15,15,"turbo","orientDef","scaleRev","180",NA,NA
"","","","","","html-slider-response",161,603005,"0.0-155.0","vfnoyh37ds",51,NA,"<div style=""width:500px;"">
                            <p style=""font-size:50px; font-weight:bold;""
                            >happy</p>
                            <div style=""width:240px; margin: auto;"">
                                <img src=""images/map15_turbo_scaleDef_orientDef_090.png"" style= ""width:200px""alt=""img"">
                            </div>
                        </div>",0.105,"",0,"",NA,"","images/map15_turbo_scaleDef_orientDef_090.png","happy",1,15,15,"turbo","orientDef","scaleDef","090",NA,NA
"","","","","","html-slider-response",162,604460,"0.0-156.0","vfnoyh37ds",51,NA,"<div style=""width:500px;"">
                            <p style=""font-size:50px; font-weight:bold;""
                            >happy</p>
                            <div style=""width:240px; margin: auto;"">
                                <img src=""images/map27_Reds_scaleRev_orientDef_000.png"" style= ""width:200px""alt=""img"">
                            </div>
                        </div>",0.105,"",0,"",NA,"","images/map27_Reds_scaleRev_orientDef_000.png","happy",1,27,27,"Reds","orientDef","scaleRev","000",NA,NA
"","","","","","html-slider-response",163,605885,"0.0-157.0","vfnoyh37ds",51,NA,"<div style=""width:500px;"">
                            <p style=""font-size:50px; font-weight:bold;""
