"success","timeout","failed_images","failed_audio","failed_video","trial_type","trial_index","time_elapsed","internal_node_id","subject_id","condition_num","rt","stimulus","response","question_order","slider_start","practiceTrial","practiceTrialNum","correct","image_path","concept","repetition","map_id","map_num","scale_name","orientation_code","mapping_code","rotation_code","ishihara_plate","correct_response"
"true","false","[]","[]","[]","preload",0,567,"0.0-0.0","suevhr8uoq",45,NA,"",NA,"",NA,"",NA,"","","",NA,NA,NA,"","","","",NA,NA
"","","","","","html-button-response",1,6074,"0.0-1.0","suevhr8uoq",45,5505,"Welcome to our experiment!<p>At the bottom of this screen, you will see a button that says ""Begin Experiment"".<br>Please only click that button when you are ready to complete the 30 minute experiment in one sitting.</p><p> Once you click that button, it will not be possible to restart the experiment.",0.5,"",NA,"",NA,"","","",NA,NA,NA,"","","","",NA,NA
"true","","","","","fullscreen",2,9106,"0.0-2.0","suevhr8uoq",45,2030,"",NA,"",NA,"",NA,"","","",NA,NA,NA,"","","","",NA,NA
"","","","","","survey-multi-select",3,39088,"0.0-3.0","suevhr8uoq",45,29980,"",NA,"[0]",NA,"",NA,"","","",NA,NA,NA,"","","","",NA,NA
"","","","","","html-button-response",4,40406,"0.0-4.0","suevhr8uoq",45,1317,"Welcome! <p> This experiment involves two parts: demographic information, followed by the experimental task.<p> It will take about 30 minutes to complete both parts.",0.5,"",NA,"",NA,"","","",NA,NA,NA,"","","","",NA,NA
"","","","","","survey-text",5,49405,"0.0-5.0","suevhr8uoq",45,8994,"",NA,"",NA,"",NA,"","","",NA,NA,NA,"","","","",NA,NA
"","","","","","html-slider-response",6,102490,"0.0-6.0","suevhr8uoq",45,53083,"<div style='text-align:left; font-size:20px; line-height:25px; width: 1000px;'>
                                During this experiment you will be asked to rate how much you associate maps with                    different concepts.<br> Below, you can see some examples of the maps you will be asked to rate. Above the maps
                    is the list of concepts.<br>You will be asked                    to rate how much you associate each map with each concept on a scale from 'not at all' to 'very much' like the
                    one below. <br><br>
                    Now, please look at the list of concepts and maps. For each concept, think about the map you associate 'very
                    much' with the concept.<br>                     When you see that map during the experiment, please rate it near the 'very much' endpoint of the
                    scale.<br>Now, please think about which map you associate 'not at all'                     with each concept. When you see that map during the experiment, please rate it near the 'not at all' endpoint
                    of the scale.<br>
                    Please use the full range of the scale. That is, if a map is somewhat associated with the concept, you would
                    click partway between the middle point and right side of the scale.                    You will be asked to rate each map for a given concept before moving on to the next concept.<br>Press the
                    'Continue' button for instructions on how to use the slider.                    <br>
                </div>

                <div style=""width: 500px; margin: 0 auto;"">
                    <!-- Centered text paragraphs -->
                    <div style=""text-align: center; width: 500px;"">
                        <p style=""font-size:25px; line-height:15px;"">
                            angry&nbsp;&nbsp;&nbsp;&nbsp;
                            sad&nbsp;&nbsp;&nbsp;&nbsp;
                            happy&nbsp;&nbsp;&nbsp;&nbsp;
                            disgust&nbsp;&nbsp;&nbsp;&nbsp;
                            fearful
                        </p>
                        <!-- <p style=""font-size:20px; line-height:15px;"">sad</p>
                        <p style=""font-size:20px;line-height:15px;"">happy</p>
                        <p style=""font-size:20px;line-height:15px;"">disgust</p>
                        <p style=""font-size:20px;line-height:15px;"">fearful</p> -->
                    </div>
            

                    <!-- Grid section -->
                   <div style=""display: flex; justify-content: center; padding-top: 15px;"">
                    <div style=""display: grid; grid-template-columns: repeat(10, 55px); grid-gap: 5px; width: auto;"">
                        <img src=""images/map26_YlOrBr_scaleRev_orientMir_000.png"" alt=""map"" style=""width: 100%;""><img src=""images/map26_OrRd_scaleDef_orientMir_270.png"" alt=""map"" style=""width: 100%;""><img src=""images/map13_turbo_scaleDef_orientDef_270.png"" alt=""map"" style=""width: 100%;""><img src=""images/map15_cividis_scaleDef_orientMir_090.png"" alt=""map"" style=""width: 100%;""><img src=""images/map07_RdGy_scaleRev_orientMir_000.png"" alt=""map"" style=""width: 100%;""><img src=""images/map12_bwr_scaleRev_orientDef_000.png"" alt=""map"" style=""width: 100%;""><img src=""images/map12_vanimo_scaleDef_orientMir_270.png"" alt=""map"" style=""width: 100%;""><img src=""images/map10_coolwarm_scaleRev_orientMir_180.png"" alt=""map"" style=""width: 100%;""><img src=""images/map10_Spectral_scaleRev_orientMir_000.png"" alt=""map"" style=""width: 100%;""><img src=""images/map05_YlGn_scaleDef_orientDef_090.png"" alt=""map"" style=""width: 100%;""><img src=""images/map10_RdYlGn_scaleDef_orientDef_090.png"" alt=""map"" style=""width: 100%;""><img src=""images/map27_RdPu_scaleRev_orientMir_000.png"" alt=""map"" style=""width: 100%;""><img src=""images/map10_RdYlBu_scaleRev_orientDef_000.png"" alt=""map"" style=""width: 100%;""><img src=""images/map27_PuRd_scaleRev_orientDef_180.png"" alt=""map"" style=""width: 100%;""><img src=""images/map23_Oranges_scaleDef_orientMir_270.png"" alt=""map"" style=""width: 100%;""><img src=""images/map02_YlGnBu_scaleRev_orientMir_000.png"" alt=""map"" style=""width: 100%;""><img src=""images/map05_BuGn_scaleRev_orientDef_000.png"" alt=""map"" style=""width: 100%;""><img src=""images/map15_inferno_scaleDef_orientDef_090.png"" alt=""map"" style=""width: 100%;""><img src=""images/map23_Blues_scaleDef_orientDef_270.png"" alt=""map"" style=""width: 100%;""><img src=""images/map13_viridis_scaleRev_orientMir_180.png"" alt=""map"" style=""width: 100%;""><img src=""images/map12_berlin_scaleDef_orientDef_270.png"" alt=""map"" style=""width: 100%;""><img src=""images/map05_PRGn_scaleRev_orientMir_180.png"" alt=""map"" style=""width: 100%;""><img src=""images/map27_BuPu_scaleRev_orientMir_180.png"" alt=""map"" style=""width: 100%;""><img src=""images/map05_BrBG_scaleDef_orientMir_270.png"" alt=""map"" style=""width: 100%;""><img src=""images/map13_plasma_scaleDef_orientMir_270.png"" alt=""map"" style=""width: 100%;""><img src=""images/map02_PuBu_scaleDef_orientDef_090.png"" alt=""map"" style=""width: 100%;""><img src=""images/map27_GnBu_scaleDef_orientMir_270.png"" alt=""map"" style=""width: 100%;""><img src=""images/map23_Greys_scaleRev_orientDef_000.png"" alt=""map"" style=""width: 100%;""><img src=""images/map02_PuBuGn_scaleRev_orientMir_180.png"" alt=""map"" style=""width: 100%;""><img src=""images/map05_PiYG_scaleRev_orientMir_000.png"" alt=""map"" style=""width: 100%;""><img src=""images/map12_seismic_scaleDef_orientDef_090.png"" alt=""map"" style=""width: 100%;""><img src=""images/map26_YlOrRd_scaleRev_orientMir_180.png"" alt=""map"" style=""width: 100%;""><img src=""images/map07_PuOr_scaleDef_orientDef_090.png"" alt=""map"" style=""width: 100%;""><img src=""images/map26_Reds_scaleRev_orientDef_180.png"" alt=""map"" style=""width: 100%;""><img src=""images/map07_RdBu_scaleRev_orientMir_180.png"" alt=""map"" style=""width: 100%;""><img src=""images/map23_Purples_scaleDef_orientDef_090.png"" alt=""map"" style=""width: 100%;""><img src=""images/map12_managua_scaleRev_orientMir_180.png"" alt=""map"" style=""width: 100%;""><img src=""images/map13_gist_earth_scaleRev_orientDef_180.png"" alt=""map"" style=""width: 100%;""><img src=""images/map23_Greens_scaleRev_orientMir_180.png"" alt=""map"" style=""width: 100%;""><img src=""images/map15_magma_scaleDef_orientDef_270.png"" alt=""map"" style=""width: 100%;"">
                    </div>
                </div>

                    <!-- Clear floats -->
                    <div style=""clear: both;""></div>
                </div>
                            ",NA,"",0,"true",NA,"","","",NA,NA,NA,"","","","",NA,NA
"","","","","","html-button-response",7,104790,"0.0-7.0","suevhr8uoq",45,2299,"<div style=""width:800px;""><p style=""text-align:left"">To move the slider, click and drag your cursor to the location of the scale where you would like to make your rating and then let go. When you let go of the slider, your response will be recorded and the next trial will begin. <br>
                    We are interested in your initial impressions of each map for the given concept, so please go with your first intuition. <br>
                    Before you begin the experiment, there will be four training trials for you to practice using the scale. <br>
                     When you are ready to start the training trials, please click ""Continue"".</p><br></div>",0.5,"",NA,"",NA,"","","",NA,NA,NA,"","","","",NA,NA
"","","","","","html-slider-response",8,108486,"0.0-8.0-0.0","suevhr8uoq",45,NA,"<div style=""width:500px;"">
                                    <p style=""font-size:25px;"">Please move the slider all the way to the <br> right endpoint of the scale</p>

                                    </div>
                                </div>",1,"",0,"true",0,"true","","",NA,NA,NA,"","","","",NA,NA
"","","","","","html-button-response",9,110239,"0.0-8.0-1.0","suevhr8uoq",45,1250,"<p align='center'><b>Good job!</b> Click on 'Continue' to proceed.</p>",0.5,"",NA,"",NA,"","","",NA,NA,NA,"","","","",NA,NA
"","","","","","html-slider-response",10,113016,"0.0-9.0-0.0","suevhr8uoq",45,NA,"<div style=""width:500px;"">
                                    <p style=""font-size:25px;"">Please move the slider all the way to the <br> left endpoint of the scale</p>

                                    </div>
                                </div>",0,"",0,"true",1,"true","","",NA,NA,NA,"","","","",NA,NA
"","","","","","html-button-response",11,114674,"0.0-9.0-1.0","suevhr8uoq",45,1154,"<p align='center'><b>Good job!</b> Click on 'Continue' to proceed.</p>",0.5,"",NA,"",NA,"","","",NA,NA,NA,"","","","",NA,NA
"","","","","","html-slider-response",12,121383,"0.0-10.0-0.0","suevhr8uoq",45,NA,"<div style=""width:500px;"">
                                    <p style=""font-size:25px;"">Please move the slider halfway between the center and right endpoint of the scale</p>

                                    </div>
                                </div>",0.7525,"",0,"true",2,"true","","",NA,NA,NA,"","","","",NA,NA
"","","","","","html-button-response",13,122889,"0.0-10.0-1.0","suevhr8uoq",45,1003,"<p align='center'><b>Good job!</b> Click on 'Continue' to proceed.</p>",0.5,"",NA,"",NA,"","","",NA,NA,NA,"","","","",NA,NA
"","","","","","html-slider-response",14,126501,"0.0-11.0-0.0","suevhr8uoq",45,NA,"<div style=""width:500px;"">
                                    <p style=""font-size:25px;"">Please move the slider halfway between the center and left endpoint of the scale</p>

                                    </div>
                                </div>",0.245,"",0,"true",3,"true","","",NA,NA,NA,"","","","",NA,NA
"","","","","","html-button-response",15,128039,"0.0-11.0-1.0","suevhr8uoq",45,1035,"<p align='center'><b>Good job!</b> Click on 'Continue' to proceed.</p>",0.5,"",NA,"",NA,"","","",NA,NA,NA,"","","","",NA,NA
"","","","","","html-button-response",16,129873,"0.0-12.0","suevhr8uoq",45,1834,"<p>Great job! You've completed the practice trials. Now you will begin the main task.</p>",0.5,"",NA,"",NA,"","","",NA,NA,NA,"","","","",NA,NA
"","","","","","html-button-response",17,132640,"0.0-13.0","suevhr8uoq",45,2766,"<p>In this block of trials, you will be asked to rate how much you associate each map with:</p > <p style = 'font-size:150%; font-weight: bold'>angry</p><br></br>",0.5,"",NA,"",NA,"","","",NA,NA,NA,"","","","",NA,NA
"","","","","","html-slider-response",18,136753,"0.0-14.0","suevhr8uoq",45,NA,"<div style=""width:500px;"">
                            <p style=""font-size:50px; font-weight:bold;""
                            >angry</p>
                            <div style=""width:240px; margin: auto;"">
                                <img src=""images/map15_inferno_scaleRev_orientDef_180.png"" style= ""width:200px""alt=""img"">
                            </div>
                        </div>",0.625,"",0,"",NA,"","images/map15_inferno_scaleRev_orientDef_180.png","angry",1,15,15,"inferno","orientDef","scaleRev","180",NA,NA
"","","","","","html-slider-response",19,140769,"0.0-15.0","suevhr8uoq",45,NA,"<div style=""width:500px;"">
                            <p style=""font-size:50px; font-weight:bold;""
                            >angry</p>
                            <div style=""width:240px; margin: auto;"">
                                <img src=""images/map23_Greys_scaleRev_orientDef_000.png"" style= ""width:200px""alt=""img"">
                            </div>
                        </div>",0.535,"",0,"",NA,"","images/map23_Greys_scaleRev_orientDef_000.png","angry",1,23,23,"Greys","orientDef","scaleRev","000",NA,NA
"","","","","","html-slider-response",20,145368,"0.0-16.0","suevhr8uoq",45,NA,"<div style=""width:500px;"">
                            <p style=""font-size:50px; font-weight:bold;""
                            >angry</p>
                            <div style=""width:240px; margin: auto;"">
                                <img src=""images/map12_seismic_scaleDef_orientDef_090.png"" style= ""width:200px""alt=""img"">
                            </div>
                        </div>",0.4525,"",0,"",NA,"","images/map12_seismic_scaleDef_orientDef_090.png","angry",1,12,12,"seismic","orientDef","scaleDef","090",NA,NA
"","","","","","html-slider-response",21,147851,"0.0-17.0","suevhr8uoq",45,NA,"<div style=""width:500px;"">
                            <p style=""font-size:50px; font-weight:bold;""
                            >angry</p>
                            <div style=""width:240px; margin: auto;"">
                                <img src=""images/map27_RdPu_scaleDef_orientDef_270.png"" style= ""width:200px""alt=""img"">
                            </div>
                        </div>",0.53,"",0,"",NA,"","images/map27_RdPu_scaleDef_orientDef_270.png","angry",1,27,27,"RdPu","orientDef","scaleDef","270",NA,NA
"","","","","","html-slider-response",22,151067,"0.0-18.0","suevhr8uoq",45,NA,"<div style=""width:500px;"">
                            <p style=""font-size:50px; font-weight:bold;""
                            >angry</p>
                            <div style=""width:240px; margin: auto;"">
                                <img src=""images/map02_YlGnBu_scaleRev_orientMir_000.png"" style= ""width:200px""alt=""img"">
                            </div>
                        </div>",0.655,"",0,"",NA,"","images/map02_YlGnBu_scaleRev_orientMir_000.png","angry",1,2,2,"YlGnBu","orientMir","scaleRev","000",NA,NA
"","","","","","html-slider-response",23,154418,"0.0-19.0","suevhr8uoq",45,NA,"<div style=""width:500px;"">
                            <p style=""font-size:50px; font-weight:bold;""
                            >angry</p>
                            <div style=""width:240px; margin: auto;"">
                                <img src=""images/map23_Greens_scaleRev_orientMir_180.png"" style= ""width:200px""alt=""img"">
                            </div>
                        </div>",0.1625,"",0,"",NA,"","images/map23_Greens_scaleRev_orientMir_180.png","angry",1,23,23,"Greens","orientMir","scaleRev","180",NA,NA
"","","","","","html-slider-response",24,157667,"0.0-20.0","suevhr8uoq",45,NA,"<div style=""width:500px;"">
                            <p style=""font-size:50px; font-weight:bold;""
                            >angry</p>
                            <div style=""width:240px; margin: auto;"">
                                <img src=""images/map12_berlin_scaleRev_orientMir_000.png"" style= ""width:200px""alt=""img"">
                            </div>
                        </div>",0.5125,"",0,"",NA,"","images/map12_berlin_scaleRev_orientMir_000.png","angry",1,12,12,"berlin","orientMir","scaleRev","000",NA,NA
"","","","","","html-slider-response",25,161668,"0.0-21.0","suevhr8uoq",45,NA,"<div style=""width:500px;"">
                            <p style=""font-size:50px; font-weight:bold;""
                            >angry</p>
                            <div style=""width:240px; margin: auto;"">
                                <img src=""images/map02_PuBu_scaleDef_orientDef_090.png"" style= ""width:200px""alt=""img"">
                            </div>
                        </div>",0.345,"",0,"",NA,"","images/map02_PuBu_scaleDef_orientDef_090.png","angry",1,2,2,"PuBu","orientDef","scaleDef","090",NA,NA
"","","","","","html-slider-response",26,164051,"0.0-22.0","suevhr8uoq",45,NA,"<div style=""width:500px;"">
                            <p style=""font-size:50px; font-weight:bold;""
                            >angry</p>
                            <div style=""width:240px; margin: auto;"">
                                <img src=""images/map13_turbo_scaleRev_orientMir_000.png"" style= ""width:200px""alt=""img"">
                            </div>
                        </div>",0.5575,"",0,"",NA,"","images/map13_turbo_scaleRev_orientMir_000.png","angry",1,13,13,"turbo","orientMir","scaleRev","000",NA,NA
"","","","","","html-slider-response",27,166370,"0.0-23.0","suevhr8uoq",45,NA,"<div style=""width:500px;"">
                            <p style=""font-size:50px; font-weight:bold;""
                            >angry</p>
                            <div style=""width:240px; margin: auto;"">
                                <img src=""images/map26_Oranges_scaleRev_orientDef_000.png"" style= ""width:200px""alt=""img"">
                            </div>
                        </div>",0.6575,"",0,"",NA,"","images/map26_Oranges_scaleRev_orientDef_000.png","angry",1,26,26,"Oranges","orientDef","scaleRev","000",NA,NA
"","","","","","html-slider-response",28,174451,"0.0-24.0","suevhr8uoq",45,NA,"<div style=""width:500px;"">
                            <p style=""font-size:50px; font-weight:bold;""
                            >angry</p>
                            <div style=""width:240px; margin: auto;"">
                                <img src=""images/map15_Greys_scaleDef_orientMir_270.png"" style= ""width:200px""alt=""img"">
                            </div>
                        </div>",0.55,"",0,"",NA,"","images/map15_Greys_scaleDef_orientMir_270.png","angry",1,15,15,"Greys","orientMir","scaleDef","270",NA,NA
"","","","","","html-slider-response",29,177651,"0.0-25.0","suevhr8uoq",45,NA,"<div style=""width:500px;"">
                            <p style=""font-size:50px; font-weight:bold;""
                            >angry</p>
                            <div style=""width:240px; margin: auto;"">
                                <img src=""images/map05_PRGn_scaleRev_orientMir_180.png"" style= ""width:200px""alt=""img"">
                            </div>
                        </div>",0.2375,"",0,"",NA,"","images/map05_PRGn_scaleRev_orientMir_180.png","angry",1,5,5,"PRGn","orientMir","scaleRev","180",NA,NA
"","","","","","html-slider-response",30,179935,"0.0-26.0","suevhr8uoq",45,NA,"<div style=""width:500px;"">
                            <p style=""font-size:50px; font-weight:bold;""
                            >angry</p>
                            <div style=""width:240px; margin: auto;"">
                                <img src=""images/map13_viridis_scaleRev_orientMir_180.png"" style= ""width:200px""alt=""img"">
                            </div>
                        </div>",0.235,"",0,"",NA,"","images/map13_viridis_scaleRev_orientMir_180.png","angry",1,13,13,"viridis","orientMir","scaleRev","180",NA,NA
"","","","","","html-slider-response",31,182317,"0.0-27.0","suevhr8uoq",45,NA,"<div style=""width:500px;"">
                            <p style=""font-size:50px; font-weight:bold;""
                            >angry</p>
                            <div style=""width:240px; margin: auto;"">
                                <img src=""images/map15_cividis_scaleDef_orientMir_090.png"" style= ""width:200px""alt=""img"">
                            </div>
                        </div>",0.2525,"",0,"",NA,"","images/map15_cividis_scaleDef_orientMir_090.png","angry",1,15,15,"cividis","orientMir","scaleDef","090",NA,NA
"","","","","","html-slider-response",32,184852,"0.0-28.0","suevhr8uoq",45,NA,"<div style=""width:500px;"">
                            <p style=""font-size:50px; font-weight:bold;""
                            >angry</p>
                            <div style=""width:240px; margin: auto;"">
                                <img src=""images/map02_BuGn_scaleDef_orientMir_270.png"" style= ""width:200px""alt=""img"">
                            </div>
                        </div>",0.25,"",0,"",NA,"","images/map02_BuGn_scaleDef_orientMir_270.png","angry",1,2,2,"BuGn","orientMir","scaleDef","270",NA,NA
"","","","","","html-slider-response",33,187233,"0.0-29.0","suevhr8uoq",45,NA,"<div style=""width:500px;"">
                            <p style=""font-size:50px; font-weight:bold;""
                            >angry</p>
                            <div style=""width:240px; margin: auto;"">
                                <img src=""images/map23_Blues_scaleDef_orientDef_270.png"" style= ""width:200px""alt=""img"">
                            </div>
                        </div>",0.2525,"",0,"",NA,"","images/map23_Blues_scaleDef_orientDef_270.png","angry",1,23,23,"Blues","orientDef","scaleDef","270",NA,NA
"","","","","","html-slider-response",34,189719,"0.0-30.0","suevhr8uoq",45,NA,"<div style=""width:500px;"">
                            <p style=""font-size:50px; font-weight:bold;""
                            >angry</p>
                            <div style=""width:240px; margin: auto;"">
                                <img src=""images/map26_YlOrRd_scaleRev_orientMir_180.png"" style= ""width:200px""alt=""img"">
                            </div>
                        </div>",0.845,"",0,"",NA,"","images/map26_YlOrRd_scaleRev_orientMir_180.png","angry",1,26,26,"YlOrRd","orientMir","scaleRev","180",NA,NA
"","","","","","html-slider-response",35,192185,"0.0-31.0","suevhr8uoq",45,NA,"<div style=""width:500px;"">
                            <p style=""font-size:50px; font-weight:bold;""
                            >angry</p>
                            <div style=""width:240px; margin: auto;"">
                                <img src=""images/map12_seismic_scaleRev_orientDef_180.png"" style= ""width:200px""alt=""img"">
                            </div>
                        </div>",0.665,"",0,"",NA,"","images/map12_seismic_scaleRev_orientDef_180.png","angry",1,12,12,"seismic","orientDef","scaleRev","180",NA,NA
"","","","","","html-slider-response",36,195485,"0.0-32.0","suevhr8uoq",45,NA,"<div style=""width:500px;"">
                            <p style=""font-size:50px; font-weight:bold;""
                            >angry</p>
                            <div style=""width:240px; margin: auto;"">
                                <img src=""images/map05_YlGn_scaleRev_orientDef_180.png"" style= ""width:200px""alt=""img"">
                            </div>
                        </div>",0.285,"",0,"",NA,"","images/map05_YlGn_scaleRev_orientDef_180.png","angry",1,5,5,"YlGn","orientDef","scaleRev","180",NA,NA
"","","","","","html-slider-response",37,197536,"0.0-33.0","suevhr8uoq",45,NA,"<div style=""width:500px;"">
                            <p style=""font-size:50px; font-weight:bold;""
                            >angry</p>
                            <div style=""width:240px; margin: auto;"">
                                <img src=""images/map26_OrRd_scaleDef_orientMir_270.png"" style= ""width:200px""alt=""img"">
                            </div>
                        </div>",0.6225,"",0,"",NA,"","images/map26_OrRd_scaleDef_orientMir_270.png","angry",1,26,26,"OrRd","orientMir","scaleDef","270",NA,NA
"","","","","","html-slider-response",38,199735,"0.0-34.0","suevhr8uoq",45,NA,"<div style=""width:500px;"">
                            <p style=""font-size:50px; font-weight:bold;""
                            >angry</p>
                            <div style=""width:240px; margin: auto;"">
                                <img src=""images/map05_PiYG_scaleDef_orientDef_270.png"" style= ""width:200px""alt=""img"">
                            </div>
                        </div>",0.3425,"",0,"",NA,"","images/map05_PiYG_scaleDef_orientDef_270.png","angry",1,5,5,"PiYG","orientDef","scaleDef","270",NA,NA
"","","","","","html-slider-response",39,202802,"0.0-35.0","suevhr8uoq",45,NA,"<div style=""width:500px;"">
                            <p style=""font-size:50px; font-weight:bold;""
                            >angry</p>
                            <div style=""width:240px; margin: auto;"">
                                <img src=""images/map27_BuPu_scaleDef_orientMir_090.png"" style= ""width:200px""alt=""img"">
                            </div>
                        </div>",0.4575,"",0,"",NA,"","images/map27_BuPu_scaleDef_orientMir_090.png","angry",1,27,27,"BuPu","orientMir","scaleDef","090",NA,NA
"","","","","","html-slider-response",40,204835,"0.0-36.0","suevhr8uoq",45,NA,"<div style=""width:500px;"">
                            <p style=""font-size:50px; font-weight:bold;""
                            >angry</p>
                            <div style=""width:240px; margin: auto;"">
                                <img src=""images/map23_Greens_scaleDef_orientMir_090.png"" style= ""width:200px""alt=""img"">
                            </div>
                        </div>",0.255,"",0,"",NA,"","images/map23_Greens_scaleDef_orientMir_090.png","angry",1,23,23,"Greens","orientMir","scaleDef","090",NA,NA
"","","","","","html-slider-response",41,207301,"0.0-37.0","suevhr8uoq",45,NA,"<div style=""width:500px;"">
                            <p style=""font-size:50px; font-weight:bold;""
                            >angry</p>
                            <div style=""width:240px; margin: auto;"">
                                <img src=""images/map15_magma_scaleDef_orientDef_270.png"" style= ""width:200px""alt=""img"">
                            </div>
                        </div>",0.655,"",0,"",NA,"","images/map15_magma_scaleDef_orientDef_270.png","angry",1,15,15,"magma","orientDef","scaleDef","270",NA,NA
"","","","","","html-slider-response",42,209686,"0.0-38.0","suevhr8uoq",45,NA,"<div style=""width:500px;"">
                            <p style=""font-size:50px; font-weight:bold;""
                            >angry</p>
                            <div style=""width:240px; margin: auto;"">
                                <img src=""images/map07_PuOr_scaleRev_orientDef_180.png"" style= ""width:200px""alt=""img"">
                            </div>
                        </div>",0.545,"",0,"",NA,"","images/map07_PuOr_scaleRev_orientDef_180.png","angry",1,7,7,"PuOr","orientDef","scaleRev","180",NA,NA
"","","","","","html-slider-response",43,211819,"0.0-39.0","suevhr8uoq",45,NA,"<div style=""width:500px;"">
                            <p style=""font-size:50px; font-weight:bold;""
                            >angry</p>
                            <div style=""width:240px; margin: auto;"">
                                <img src=""images/map27_BuPu_scaleRev_orientMir_180.png"" style= ""width:200px""alt=""img"">
                            </div>
                        </div>",0.455,"",0,"",NA,"","images/map27_BuPu_scaleRev_orientMir_180.png","angry",1,27,27,"BuPu","orientMir","scaleRev","180",NA,NA
"","","","","","html-slider-response",44,213902,"0.0-40.0","suevhr8uoq",45,NA,"<div style=""width:500px;"">
                            <p style=""font-size:50px; font-weight:bold;""
                            >angry</p>
                            <div style=""width:240px; margin: auto;"">
                                <img src=""images/map05_PRGn_scaleDef_orientMir_090.png"" style= ""width:200px""alt=""img"">
                            </div>
                        </div>",0.335,"",0,"",NA,"","images/map05_PRGn_scaleDef_orientMir_090.png","angry",1,5,5,"PRGn","orientMir","scaleDef","090",NA,NA
"","","","","","html-slider-response",45,216885,"0.0-41.0","suevhr8uoq",45,NA,"<div style=""width:500px;"">
                            <p style=""font-size:50px; font-weight:bold;""
                            >angry</p>
                            <div style=""width:240px; margin: auto;"">
                                <img src=""images/map02_GnBu_scaleRev_orientDef_000.png"" style= ""width:200px""alt=""img"">
                            </div>
                        </div>",0.4375,"",0,"",NA,"","images/map02_GnBu_scaleRev_orientDef_000.png","angry",1,2,2,"GnBu","orientDef","scaleRev","000",NA,NA
"","","","","","html-slider-response",46,218652,"0.0-42.0","suevhr8uoq",45,NA,"<div style=""width:500px;"">
                            <p style=""font-size:50px; font-weight:bold;""
                            >angry</p>
                            <div style=""width:240px; margin: auto;"">
                                <img src=""images/map05_BuGn_scaleRev_orientDef_000.png"" style= ""width:200px""alt=""img"">
                            </div>
                        </div>",0.305,"",0,"",NA,"","images/map05_BuGn_scaleRev_orientDef_000.png","angry",1,5,5,"BuGn","orientDef","scaleRev","000",NA,NA
"","","","","","html-slider-response",47,222117,"0.0-43.0","suevhr8uoq",45,NA,"<div style=""width:500px;"">
                            <p style=""font-size:50px; font-weight:bold;""
                            >angry</p>
                            <div style=""width:240px; margin: auto;"">
                                <img src=""images/map10_coolwarm_scaleRev_orientMir_180.png"" style= ""width:200px""alt=""img"">
                            </div>
                        </div>",0.4525,"",0,"",NA,"","images/map10_coolwarm_scaleRev_orientMir_180.png","angry",1,10,10,"coolwarm","orientMir","scaleRev","180",NA,NA
"","","","","","html-slider-response",48,223952,"0.0-44.0","suevhr8uoq",45,NA,"<div style=""width:500px;"">
                            <p style=""font-size:50px; font-weight:bold;""
                            >angry</p>
                            <div style=""width:240px; margin: auto;"">
                                <img src=""images/map27_OrRd_scaleRev_orientDef_000.png"" style= ""width:200px""alt=""img"">
                            </div>
                        </div>",0.56,"",0,"",NA,"","images/map27_OrRd_scaleRev_orientDef_000.png","angry",1,27,27,"OrRd","orientDef","scaleRev","000",NA,NA
"","","","","","html-slider-response",49,226919,"0.0-45.0","suevhr8uoq",45,NA,"<div style=""width:500px;"">
                            <p style=""font-size:50px; font-weight:bold;""
                            >angry</p>
                            <div style=""width:240px; margin: auto;"">
                                <img src=""images/map10_Spectral_scaleDef_orientDef_270.png"" style= ""width:200px""alt=""img"">
                            </div>
                        </div>",0.575,"",0,"",NA,"","images/map10_Spectral_scaleDef_orientDef_270.png","angry",1,10,10,"Spectral","orientDef","scaleDef","270",NA,NA
"","","","","","html-slider-response",50,229317,"0.0-46.0","suevhr8uoq",45,NA,"<div style=""width:500px;"">
                            <p style=""font-size:50px; font-weight:bold;""
                            >angry</p>
                            <div style=""width:240px; margin: auto;"">
                                <img src=""images/map05_BrBG_scaleDef_orientMir_270.png"" style= ""width:200px""alt=""img"">
                            </div>
                        </div>",0.45,"",0,"",NA,"","images/map05_BrBG_scaleDef_orientMir_270.png","angry",1,5,5,"BrBG","orientMir","scaleDef","270",NA,NA
"","","","","","html-slider-response",51,231469,"0.0-47.0","suevhr8uoq",45,NA,"<div style=""width:500px;"">
                            <p style=""font-size:50px; font-weight:bold;""
                            >angry</p>
                            <div style=""width:240px; margin: auto;"">
                                <img src=""images/map07_RdBu_scaleDef_orientMir_090.png"" style= ""width:200px""alt=""img"">
                            </div>
                        </div>",0.595,"",0,"",NA,"","images/map07_RdBu_scaleDef_orientMir_090.png","angry",1,7,7,"RdBu","orientMir","scaleDef","090",NA,NA
"","","","","","html-slider-response",52,232702,"0.0-48.0","suevhr8uoq",45,NA,"<div style=""width:500px;"">
                            <p style=""font-size:50px; font-weight:bold;""
                            >angry</p>
                            <div style=""width:240px; margin: auto;"">
                                <img src=""images/map07_RdYlBu_scaleDef_orientMir_270.png"" style= ""width:200px""alt=""img"">
                            </div>
                        </div>",0.595,"",0,"",NA,"","images/map07_RdYlBu_scaleDef_orientMir_270.png","angry",1,7,7,"RdYlBu","orientMir","scaleDef","270",NA,NA
"","","","","","html-slider-response",53,236250,"0.0-49.0","suevhr8uoq",45,NA,"<div style=""width:500px;"">
                            <p style=""font-size:50px; font-weight:bold;""
                            >angry</p>
                            <div style=""width:240px; margin: auto;"">
                                <img src=""images/map15_plasma_scaleRev_orientDef_000.png"" style= ""width:200px""alt=""img"">
                            </div>
                        </div>",0.415,"",0,"",NA,"","images/map15_plasma_scaleRev_orientDef_000.png","angry",1,15,15,"plasma","orientDef","scaleRev","000",NA,NA
"","","","","","html-slider-response",54,239685,"0.0-50.0","suevhr8uoq",45,NA,"<div style=""width:500px;"">
                            <p style=""font-size:50px; font-weight:bold;""
                            >angry</p>
                            <div style=""width:240px; margin: auto;"">
                                <img src=""images/map27_PuRd_scaleDef_orientDef_090.png"" style= ""width:200px""alt=""img"">
                            </div>
                        </div>",0.075,"",0,"",NA,"","images/map27_PuRd_scaleDef_orientDef_090.png","angry",1,27,27,"PuRd","orientDef","scaleDef","090",NA,NA
"","","","","","html-slider-response",55,241786,"0.0-51.0","suevhr8uoq",45,NA,"<div style=""width:500px;"">
                            <p style=""font-size:50px; font-weight:bold;""
                            >angry</p>
                            <div style=""width:240px; margin: auto;"">
                                <img src=""images/map10_coolwarm_scaleDef_orientMir_090.png"" style= ""width:200px""alt=""img"">
                            </div>
                        </div>",0.6375,"",0,"",NA,"","images/map10_coolwarm_scaleDef_orientMir_090.png","angry",1,10,10,"coolwarm","orientMir","scaleDef","090",NA,NA
"","","","","","html-slider-response",56,245902,"0.0-52.0","suevhr8uoq",45,NA,"<div style=""width:500px;"">
                            <p style=""font-size:50px; font-weight:bold;""
                            >angry</p>
                            <div style=""width:240px; margin: auto;"">
                                <img src=""images/map02_PuBuGn_scaleDef_orientMir_090.png"" style= ""width:200px""alt=""img"">
                            </div>
                        </div>",0.6125,"",0,"",NA,"","images/map02_PuBuGn_scaleDef_orientMir_090.png","angry",1,2,2,"PuBuGn","orientMir","scaleDef","090",NA,NA
"","","","","","html-slider-response",57,248602,"0.0-53.0","suevhr8uoq",45,NA,"<div style=""width:500px;"">
                            <p style=""font-size:50px; font-weight:bold;""
                            >angry</p>
                            <div style=""width:240px; margin: auto;"">
                                <img src=""images/map13_plasma_scaleDef_orientMir_270.png"" style= ""width:200px""alt=""img"">
                            </div>
                        </div>",0.6125,"",0,"",NA,"","images/map13_plasma_scaleDef_orientMir_270.png","angry",1,13,13,"plasma","orientMir","scaleDef","270",NA,NA
"","","","","","html-button-response",58,251106,"0.0-54.0","suevhr8uoq",45,2002,"<p>You are doing great!<br></br> You are halway done with the current block. When you are ready to continue, click the 'Continue' button.</p>",0.5,"",NA,"",NA,"","","",NA,NA,NA,"","","","",NA,NA
"","","","","","html-slider-response",59,254769,"0.0-55.0","suevhr8uoq",45,NA,"<div style=""width:500px;"">
                            <p style=""font-size:50px; font-weight:bold;""
                            >angry</p>
                            <div style=""width:240px; margin: auto;"">
                                <img src=""images/map12_managua_scaleDef_orientMir_090.png"" style= ""width:200px""alt=""img"">
                            </div>
                        </div>",0.395,"",0,"",NA,"","images/map12_managua_scaleDef_orientMir_090.png","angry",1,12,12,"managua","orientMir","scaleDef","090",NA,NA
"","","","","","html-slider-response",60,256969,"0.0-56.0","suevhr8uoq",45,NA,"<div style=""width:500px;"">
                            <p style=""font-size:50px; font-weight:bold;""
                            >angry</p>
                            <div style=""width:240px; margin: auto;"">
                                <img src=""images/map13_turbo_scaleDef_orientDef_270.png"" style= ""width:200px""alt=""img"">
                            </div>
                        </div>",0.565,"",0,"",NA,"","images/map13_turbo_scaleDef_orientDef_270.png","angry",1,13,13,"turbo","orientDef","scaleDef","270",NA,NA
"","","","","","html-slider-response",61,258385,"0.0-57.0","suevhr8uoq",45,NA,"<div style=""width:500px;"">
                            <p style=""font-size:50px; font-weight:bold;""
                            >angry</p>
                            <div style=""width:240px; margin: auto;"">
                                <img src=""images/map26_YlOrRd_scaleDef_orientMir_090.png"" style= ""width:200px""alt=""img"">
                            </div>
                        </div>",0.565,"",0,"",NA,"","images/map26_YlOrRd_scaleDef_orientMir_090.png","angry",1,26,26,"YlOrRd","orientMir","scaleDef","090",NA,NA
"","","","","","html-slider-response",62,259935,"0.0-58.0","suevhr8uoq",45,NA,"<div style=""width:500px;"">
                            <p style=""font-size:50px; font-weight:bold;""
                            >angry</p>
                            <div style=""width:240px; margin: auto;"">
                                <img src=""images/map07_RdGy_scaleRev_orientMir_000.png"" style= ""width:200px""alt=""img"">
                            </div>
                        </div>",0.565,"",0,"",NA,"","images/map07_RdGy_scaleRev_orientMir_000.png","angry",1,7,7,"RdGy","orientMir","scaleRev","000",NA,NA
"","","","","","html-slider-response",63,262486,"0.0-59.0","suevhr8uoq",45,NA,"<div style=""width:500px;"">
                            <p style=""font-size:50px; font-weight:bold;""
                            >angry</p>
                            <div style=""width:240px; margin: auto;"">
                                <img src=""images/map12_managua_scaleRev_orientMir_180.png"" style= ""width:200px""alt=""img"">
                            </div>
                        </div>",0.405,"",0,"",NA,"","images/map12_managua_scaleRev_orientMir_180.png","angry",1,12,12,"managua","orientMir","scaleRev","180",NA,NA
"","","","","","html-slider-response",64,264552,"0.0-60.0","suevhr8uoq",45,NA,"<div style=""width:500px;"">
                            <p style=""font-size:50px; font-weight:bold;""
                            >angry</p>
                            <div style=""width:240px; margin: auto;"">
                                <img src=""images/map15_cividis_scaleRev_orientMir_180.png"" style= ""width:200px""alt=""img"">
                            </div>
                        </div>",0.54,"",0,"",NA,"","images/map15_cividis_scaleRev_orientMir_180.png","angry",1,15,15,"cividis","orientMir","scaleRev","180",NA,NA
"","","","","","html-slider-response",65,267519,"0.0-61.0","suevhr8uoq",45,NA,"<div style=""width:500px;"">
                            <p style=""font-size:50px; font-weight:bold;""
                            >angry</p>
                            <div style=""width:240px; margin: auto;"">
                                <img src=""images/map10_Spectral_scaleRev_orientMir_000.png"" style= ""width:200px""alt=""img"">
                            </div>
                        </div>",0.545,"",0,"",NA,"","images/map10_Spectral_scaleRev_orientMir_000.png","angry",1,10,10,"Spectral","orientMir","scaleRev","000",NA,NA
"","","","","","html-slider-response",66,270150,"0.0-62.0","suevhr8uoq",45,NA,"<div style=""width:500px;"">
                            <p style=""font-size:50px; font-weight:bold;""
                            >angry</p>
                            <div style=""width:240px; margin: auto;"">
                                <img src=""images/map02_PuBu_scaleRev_orientDef_180.png"" style= ""width:200px""alt=""img"">
                            </div>
                        </div>",0.7625,"",0,"",NA,"","images/map02_PuBu_scaleRev_orientDef_180.png","angry",1,2,2,"PuBu","orientDef","scaleRev","180",NA,NA
"","","","","","html-slider-response",67,273067,"0.0-63.0","suevhr8uoq",45,NA,"<div style=""width:500px;"">
                            <p style=""font-size:50px; font-weight:bold;""
                            >angry</p>
                            <div style=""width:240px; margin: auto;"">
                                <img src=""images/map07_RdBu_scaleRev_orientMir_180.png"" style= ""width:200px""alt=""img"">
                            </div>
                        </div>",0.5525,"",0,"",NA,"","images/map07_RdBu_scaleRev_orientMir_180.png","angry",1,7,7,"RdBu","orientMir","scaleRev","180",NA,NA
"","","","","","html-slider-response",68,275034,"0.0-64.0","suevhr8uoq",45,NA,"<div style=""width:500px;"">
                            <p style=""font-size:50px; font-weight:bold;""
                            >angry</p>
                            <div style=""width:240px; margin: auto;"">
                                <img src=""images/map02_PuBuGn_scaleRev_orientMir_180.png"" style= ""width:200px""alt=""img"">
                            </div>
                        </div>",0.4275,"",0,"",NA,"","images/map02_PuBuGn_scaleRev_orientMir_180.png","angry",1,2,2,"PuBuGn","orientMir","scaleRev","180",NA,NA
"","","","","","html-slider-response",69,277200,"0.0-65.0","suevhr8uoq",45,NA,"<div style=""width:500px;"">
                            <p style=""font-size:50px; font-weight:bold;""
                            >angry</p>
                            <div style=""width:240px; margin: auto;"">
                                <img src=""images/map26_YlOrBr_scaleRev_orientMir_000.png"" style= ""width:200px""alt=""img"">
                            </div>
                        </div>",0.62,"",0,"",NA,"","images/map26_YlOrBr_scaleRev_orientMir_000.png","angry",1,26,26,"YlOrBr","orientMir","scaleRev","000",NA,NA
"","","","","","html-slider-response",70,278952,"0.0-66.0","suevhr8uoq",45,NA,"<div style=""width:500px;"">
                            <p style=""font-size:50px; font-weight:bold;""
                            >angry</p>
                            <div style=""width:240px; margin: auto;"">
                                <img src=""images/map13_viridis_scaleDef_orientMir_090.png"" style= ""width:200px""alt=""img"">
                            </div>
                        </div>",0.185,"",0,"",NA,"","images/map13_viridis_scaleDef_orientMir_090.png","angry",1,13,13,"viridis","orientMir","scaleDef","090",NA,NA
"","","","","","html-slider-response",71,280386,"0.0-67.0","suevhr8uoq",45,NA,"<div style=""width:500px;"">
                            <p style=""font-size:50px; font-weight:bold;""
                            >angry</p>
                            <div style=""width:240px; margin: auto;"">
                                <img src=""images/map27_PuRd_scaleRev_orientDef_180.png"" style= ""width:200px""alt=""img"">
                            </div>
                        </div>",0.185,"",0,"",NA,"","images/map27_PuRd_scaleRev_orientDef_180.png","angry",1,27,27,"PuRd","orientDef","scaleRev","180",NA,NA
"","","","","","html-slider-response",72,282669,"0.0-68.0","suevhr8uoq",45,NA,"<div style=""width:500px;"">
                            <p style=""font-size:50px; font-weight:bold;""
                            >angry</p>
                            <div style=""width:240px; margin: auto;"">
                                <img src=""images/map10_RdYlBu_scaleRev_orientDef_000.png"" style= ""width:200px""alt=""img"">
                            </div>
                        </div>",0.535,"",0,"",NA,"","images/map10_RdYlBu_scaleRev_orientDef_000.png","angry",1,10,10,"RdYlBu","orientDef","scaleRev","000",NA,NA
"","","","","","html-slider-response",73,285018,"0.0-69.0","suevhr8uoq",45,NA,"<div style=""width:500px;"">
                            <p style=""font-size:50px; font-weight:bold;""
                            >angry</p>
                            <div style=""width:240px; margin: auto;"">
                                <img src=""images/map27_RdPu_scaleRev_orientMir_000.png"" style= ""width:200px""alt=""img"">
                            </div>
                        </div>",0.245,"",0,"",NA,"","images/map27_RdPu_scaleRev_orientMir_000.png","angry",1,27,27,"RdPu","orientMir","scaleRev","000",NA,NA
"","","","","","html-slider-response",74,287553,"0.0-70.0","suevhr8uoq",45,NA,"<div style=""width:500px;"">
                            <p style=""font-size:50px; font-weight:bold;""
                            >angry</p>
                            <div style=""width:240px; margin: auto;"">
                                <img src=""images/map07_RdGy_scaleDef_orientDef_270.png"" style= ""width:200px""alt=""img"">
                            </div>
                        </div>",0.5975,"",0,"",NA,"","images/map07_RdGy_scaleDef_orientDef_270.png","angry",1,7,7,"RdGy","orientDef","scaleDef","270",NA,NA
"","","","","","html-slider-response",75,289535,"0.0-71.0","suevhr8uoq",45,NA,"<div style=""width:500px;"">
                            <p style=""font-size:50px; font-weight:bold;""
                            >angry</p>
                            <div style=""width:240px; margin: auto;"">
                                <img src=""images/map12_vanimo_scaleDef_orientMir_270.png"" style= ""width:200px""alt=""img"">
                            </div>
                        </div>",0.705,"",0,"",NA,"","images/map12_vanimo_scaleDef_orientMir_270.png","angry",1,12,12,"vanimo","orientMir","scaleDef","270",NA,NA
"","","","","","html-slider-response",76,291819,"0.0-72.0","suevhr8uoq",45,NA,"<div style=""width:500px;"">
                            <p style=""font-size:50px; font-weight:bold;""
                            >angry</p>
                            <div style=""width:240px; margin: auto;"">
                                <img src=""images/map27_GnBu_scaleDef_orientMir_270.png"" style= ""width:200px""alt=""img"">
                            </div>
                        </div>",0.145,"",0,"",NA,"","images/map27_GnBu_scaleDef_orientMir_270.png","angry",1,27,27,"GnBu","orientMir","scaleDef","270",NA,NA
"","","","","","html-slider-response",77,295936,"0.0-73.0","suevhr8uoq",45,NA,"<div style=""width:500px;"">
                            <p style=""font-size:50px; font-weight:bold;""
                            >angry</p>
                            <div style=""width:240px; margin: auto;"">
                                <img src=""images/map07_BrBG_scaleRev_orientDef_000.png"" style= ""width:200px""alt=""img"">
                            </div>
                        </div>",0.3725,"",0,"",NA,"","images/map07_BrBG_scaleRev_orientDef_000.png","angry",1,7,7,"BrBG","orientDef","scaleRev","000",NA,NA
"","","","","","html-slider-response",78,297786,"0.0-74.0","suevhr8uoq",45,NA,"<div style=""width:500px;"">
                            <p style=""font-size:50px; font-weight:bold;""
                            >angry</p>
                            <div style=""width:240px; margin: auto;"">
                                <img src=""images/map10_RdYlGn_scaleDef_orientDef_090.png"" style= ""width:200px""alt=""img"">
                            </div>
                        </div>",0.5875,"",0,"",NA,"","images/map10_RdYlGn_scaleDef_orientDef_090.png","angry",1,10,10,"RdYlGn","orientDef","scaleDef","090",NA,NA
"","","","","","html-slider-response",79,300084,"0.0-75.0","suevhr8uoq",45,NA,"<div style=""width:500px;"">
                            <p style=""font-size:50px; font-weight:bold;""
                            >angry</p>
                            <div style=""width:240px; margin: auto;"">
                                <img src=""images/map07_PuOr_scaleDef_orientDef_090.png"" style= ""width:200px""alt=""img"">
                            </div>
                        </div>",0.5525,"",0,"",NA,"","images/map07_PuOr_scaleDef_orientDef_090.png","angry",1,7,7,"PuOr","orientDef","scaleDef","090",NA,NA
"","","","","","html-slider-response",80,301519,"0.0-76.0","suevhr8uoq",45,NA,"<div style=""width:500px;"">
                            <p style=""font-size:50px; font-weight:bold;""
                            >angry</p>
                            <div style=""width:240px; margin: auto;"">
                                <img src=""images/map15_inferno_scaleDef_orientDef_090.png"" style= ""width:200px""alt=""img"">
                            </div>
                        </div>",0.5525,"",0,"",NA,"","images/map15_inferno_scaleDef_orientDef_090.png","angry",1,15,15,"inferno","orientDef","scaleDef","090",NA,NA
"","","","","","html-slider-response",81,303267,"0.0-77.0","suevhr8uoq",45,NA,"<div style=""width:500px;"">
                            <p style=""font-size:50px; font-weight:bold;""
                            >angry</p>
                            <div style=""width:240px; margin: auto;"">
                                <img src=""images/map23_Oranges_scaleDef_orientMir_270.png"" style= ""width:200px""alt=""img"">
                            </div>
                        </div>",0.385,"",0,"",NA,"","images/map23_Oranges_scaleDef_orientMir_270.png","angry",1,23,23,"Oranges","orientMir","scaleDef","270",NA,NA
"","","","","","html-slider-response",82,306184,"0.0-78.0","suevhr8uoq",45,NA,"<div style=""width:500px;"">
                            <p style=""font-size:50px; font-weight:bold;""
                            >angry</p>
                            <div style=""width:240px; margin: auto;"">
                                <img src=""images/map13_gist_earth_scaleRev_orientDef_180.png"" style= ""width:200px""alt=""img"">
                            </div>
                        </div>",0.3075,"",0,"",NA,"","images/map13_gist_earth_scaleRev_orientDef_180.png","angry",1,13,13,"gist","scaleRev","earth","orientDef",NA,NA
"","","","","","html-slider-response",83,308669,"0.0-79.0","suevhr8uoq",45,NA,"<div style=""width:500px;"">
                            <p style=""font-size:50px; font-weight:bold;""
                            >angry</p>
                            <div style=""width:240px; margin: auto;"">
                                <img src=""images/map23_Purples_scaleRev_orientDef_180.png"" style= ""width:200px""alt=""img"">
                            </div>
                        </div>",0.4025,"",0,"",NA,"","images/map23_Purples_scaleRev_orientDef_180.png","angry",1,23,23,"Purples","orientDef","scaleRev","180",NA,NA
"","","","","","html-slider-response",84,310351,"0.0-80.0","suevhr8uoq",45,NA,"<div style=""width:500px;"">
                            <p style=""font-size:50px; font-weight:bold;""
                            >angry</p>
                            <div style=""width:240px; margin: auto;"">
                                <img src=""images/map26_YlOrBr_scaleDef_orientDef_270.png"" style= ""width:200px""alt=""img"">
                            </div>
                        </div>",0.5625,"",0,"",NA,"","images/map26_YlOrBr_scaleDef_orientDef_270.png","angry",1,26,26,"YlOrBr","orientDef","scaleDef","270",NA,NA
"","","","","","html-slider-response",85,314702,"0.0-81.0","suevhr8uoq",45,NA,"<div style=""width:500px;"">
                            <p style=""font-size:50px; font-weight:bold;""
                            >angry</p>
                            <div style=""width:240px; margin: auto;"">
                                <img src=""images/map23_Blues_scaleRev_orientMir_000.png"" style= ""width:200px""alt=""img"">
                            </div>
                        </div>",0.385,"",0,"",NA,"","images/map23_Blues_scaleRev_orientMir_000.png","angry",1,23,23,"Blues","orientMir","scaleRev","000",NA,NA
"","","","","","html-slider-response",86,316402,"0.0-82.0","suevhr8uoq",45,NA,"<div style=""width:500px;"">
                            <p style=""font-size:50px; font-weight:bold;""
                            >angry</p>
                            <div style=""width:240px; margin: auto;"">
                                <img src=""images/map13_vanimo_scaleRev_orientDef_000.png"" style= ""width:200px""alt=""img"">
                            </div>
                        </div>",0.5625,"",0,"",NA,"","images/map13_vanimo_scaleRev_orientDef_000.png","angry",1,13,13,"vanimo","orientDef","scaleRev","000",NA,NA
"","","","","","html-slider-response",87,318067,"0.0-83.0","suevhr8uoq",45,NA,"<div style=""width:500px;"">
                            <p style=""font-size:50px; font-weight:bold;""
                            >angry</p>
                            <div style=""width:240px; margin: auto;"">
                                <img src=""images/map13_gist_earth_scaleDef_orientDef_090.png"" style= ""width:200px""alt=""img"">
                            </div>
                        </div>",0.365,"",0,"",NA,"","images/map13_gist_earth_scaleDef_orientDef_090.png","angry",1,13,13,"gist","scaleDef","earth","orientDef",NA,NA
"","","","","","html-slider-response",88,319969,"0.0-84.0","suevhr8uoq",45,NA,"<div style=""width:500px;"">
                            <p style=""font-size:50px; font-weight:bold;""
                            >angry</p>
                            <div style=""width:240px; margin: auto;"">
                                <img src=""images/map12_berlin_scaleDef_orientDef_270.png"" style= ""width:200px""alt=""img"">
                            </div>
                        </div>",0.7025,"",0,"",NA,"","images/map12_berlin_scaleDef_orientDef_270.png","angry",1,12,12,"berlin","orientDef","scaleDef","270",NA,NA
"","","","","","html-slider-response",89,322134,"0.0-85.0","suevhr8uoq",45,NA,"<div style=""width:500px;"">
                            <p style=""font-size:50px; font-weight:bold;""
                            >angry</p>
                            <div style=""width:240px; margin: auto;"">
                                <img src=""images/map12_bwr_scaleRev_orientDef_000.png"" style= ""width:200px""alt=""img"">
                            </div>
                        </div>",0.235,"",0,"",NA,"","images/map12_bwr_scaleRev_orientDef_000.png","angry",1,12,12,"bwr","orientDef","scaleRev","000",NA,NA
"","","","","","html-slider-response",90,324302,"0.0-86.0","suevhr8uoq",45,NA,"<div style=""width:500px;"">
                            <p style=""font-size:50px; font-weight:bold;""
                            >angry</p>
                            <div style=""width:240px; margin: auto;"">
                                <img src=""images/map26_Reds_scaleRev_orientDef_180.png"" style= ""width:200px""alt=""img"">
                            </div>
                        </div>",0.8275,"",0,"",NA,"","images/map26_Reds_scaleRev_orientDef_180.png","angry",1,26,26,"Reds","orientDef","scaleRev","180",NA,NA
"","","","","","html-slider-response",91,326419,"0.0-87.0","suevhr8uoq",45,NA,"<div style=""width:500px;"">
                            <p style=""font-size:50px; font-weight:bold;""
                            >angry</p>
                            <div style=""width:240px; margin: auto;"">
                                <img src=""images/map02_YlGnBu_scaleDef_orientDef_270.png"" style= ""width:200px""alt=""img"">
                            </div>
                        </div>",0.3125,"",0,"",NA,"","images/map02_YlGnBu_scaleDef_orientDef_270.png","angry",1,2,2,"YlGnBu","orientDef","scaleDef","270",NA,NA
"","","","","","html-slider-response",92,328686,"0.0-88.0","suevhr8uoq",45,NA,"<div style=""width:500px;"">
                            <p style=""font-size:50px; font-weight:bold;""
                            >angry</p>
                            <div style=""width:240px; margin: auto;"">
                                <img src=""images/map10_RdYlGn_scaleRev_orientDef_180.png"" style= ""width:200px""alt=""img"">
                            </div>
                        </div>",0.565,"",0,"",NA,"","images/map10_RdYlGn_scaleRev_orientDef_180.png","angry",1,10,10,"RdYlGn","orientDef","scaleRev","180",NA,NA
"","","","","","html-slider-response",93,330335,"0.0-89.0","suevhr8uoq",45,NA,"<div style=""width:500px;"">
                            <p style=""font-size:50px; font-weight:bold;""
                            >angry</p>
                            <div style=""width:240px; margin: auto;"">
                                <img src=""images/map23_Purples_scaleDef_orientDef_090.png"" style= ""width:200px""alt=""img"">
                            </div>
                        </div>",0.43,"",0,"",NA,"","images/map23_Purples_scaleDef_orientDef_090.png","angry",1,23,23,"Purples","orientDef","scaleDef","090",NA,NA
"","","","","","html-slider-response",94,332234,"0.0-90.0","suevhr8uoq",45,NA,"<div style=""width:500px;"">
                            <p style=""font-size:50px; font-weight:bold;""
                            >angry</p>
                            <div style=""width:240px; margin: auto;"">
                                <img src=""images/map05_PiYG_scaleRev_orientMir_000.png"" style= ""width:200px""alt=""img"">
                            </div>
                        </div>",0.355,"",0,"",NA,"","images/map05_PiYG_scaleRev_orientMir_000.png","angry",1,5,5,"PiYG","orientMir","scaleRev","000",NA,NA
"","","","","","html-slider-response",95,334569,"0.0-91.0","suevhr8uoq",45,NA,"<div style=""width:500px;"">
                            <p style=""font-size:50px; font-weight:bold;""
                            >angry</p>
                            <div style=""width:240px; margin: auto;"">
                                <img src=""images/map10_bwr_scaleDef_orientMir_270.png"" style= ""width:200px""alt=""img"">
                            </div>
                        </div>",0.355,"",0,"",NA,"","images/map10_bwr_scaleDef_orientMir_270.png","angry",1,10,10,"bwr","orientMir","scaleDef","270",NA,NA
"","","","","","html-slider-response",96,335903,"0.0-92.0","suevhr8uoq",45,NA,"<div style=""width:500px;"">
                            <p style=""font-size:50px; font-weight:bold;""
                            >angry</p>
                            <div style=""width:240px; margin: auto;"">
                                <img src=""images/map05_YlGn_scaleDef_orientDef_090.png"" style= ""width:200px""alt=""img"">
                            </div>
                        </div>",0.355,"",0,"",NA,"","images/map05_YlGn_scaleDef_orientDef_090.png","angry",1,5,5,"YlGn","orientDef","scaleDef","090",NA,NA
"","","","","","html-slider-response",97,337819,"0.0-93.0","suevhr8uoq",45,NA,"<div style=""width:500px;"">
                            <p style=""font-size:50px; font-weight:bold;""
                            >angry</p>
                            <div style=""width:240px; margin: auto;"">
                                <img src=""images/map15_magma_scaleRev_orientMir_000.png"" style= ""width:200px""alt=""img"">
                            </div>
                        </div>",0.565,"",0,"",NA,"","images/map15_magma_scaleRev_orientMir_000.png","angry",1,15,15,"magma","orientMir","scaleRev","000",NA,NA
"","","","","","html-slider-response",98,339752,"0.0-94.0","suevhr8uoq",45,NA,"<div style=""width:500px;"">
                            <p style=""font-size:50px; font-weight:bold;""
                            >angry</p>
                            <div style=""width:240px; margin: auto;"">
                                <img src=""images/map26_Reds_scaleDef_orientDef_090.png"" style= ""width:200px""alt=""img"">
                            </div>
                        </div>",0.775,"",0,"",NA,"","images/map26_Reds_scaleDef_orientDef_090.png","angry",1,26,26,"Reds","orientDef","scaleDef","090",NA,NA
"","","","","","html-button-response",99,342375,"0.0-95.0","suevhr8uoq",45,2120,"<p>Great Job! You've finished block 1.<br></br> You have 4 block(s) left to go.<br></br></p>",0.5,"",NA,"",NA,"","","",NA,NA,NA,"","","","",NA,NA
"","","","","","html-button-response",100,343391,"0.0-96.0","suevhr8uoq",45,1016,"<p>In this block of trials, you will be asked to rate how much you associate each map with:</p > <p style = 'font-size:150%; font-weight: bold'>sad</p><br></br>",0.5,"",NA,"",NA,"","","",NA,NA,NA,"","","","",NA,NA
"","","","","","html-slider-response",101,349602,"0.0-97.0","suevhr8uoq",45,NA,"<div style=""width:500px;"">
                            <p style=""font-size:50px; font-weight:bold;""
                            >sad</p>
                            <div style=""width:240px; margin: auto;"">
                                <img src=""images/map26_YlOrBr_scaleRev_orientMir_000.png"" style= ""width:200px""alt=""img"">
                            </div>
                        </div>",0.5725,"",0,"",NA,"","images/map26_YlOrBr_scaleRev_orientMir_000.png","sad",1,26,26,"YlOrBr","orientMir","scaleRev","000",NA,NA
"","","","","","html-slider-response",102,351301,"0.0-98.0","suevhr8uoq",45,NA,"<div style=""width:500px;"">
                            <p style=""font-size:50px; font-weight:bold;""
                            >sad</p>
                            <div style=""width:240px; margin: auto;"">
                                <img src=""images/map27_BuPu_scaleRev_orientMir_180.png"" style= ""width:200px""alt=""img"">
                            </div>
                        </div>",0.5725,"",0,"",NA,"","images/map27_BuPu_scaleRev_orientMir_180.png","sad",1,27,27,"BuPu","orientMir","scaleRev","180",NA,NA
"","","","","","html-slider-response",103,353301,"0.0-99.0","suevhr8uoq",45,NA,"<div style=""width:500px;"">
                            <p style=""font-size:50px; font-weight:bold;""
                            >sad</p>
                            <div style=""width:240px; margin: auto;"">
                                <img src=""images/map15_inferno_scaleRev_orientDef_180.png"" style= ""width:200px""alt=""img"">
                            </div>
                        </div>",0.325,"",0,"",NA,"","images/map15_inferno_scaleRev_orientDef_180.png","sad",1,15,15,"inferno","orientDef","scaleRev","180",NA,NA
"","","","","","html-slider-response",104,355018,"0.0-100.0","suevhr8uoq",45,NA,"<div style=""width:500px;"">
                            <p style=""font-size:50px; font-weight:bold;""
                            >sad</p>
                            <div style=""width:240px; margin: auto;"">
                                <img src=""images/map02_PuBu_scaleDef_orientDef_090.png"" style= ""width:200px""alt=""img"">
                            </div>
                        </div>",0.945,"",0,"",NA,"","images/map02_PuBu_scaleDef_orientDef_090.png","sad",1,2,2,"PuBu","orientDef","scaleDef","090",NA,NA
"","","","","","html-slider-response",105,357084,"0.0-101.0","suevhr8uoq",45,NA,"<div style=""width:500px;"">
                            <p style=""font-size:50px; font-weight:bold;""
                            >sad</p>
                            <div style=""width:240px; margin: auto;"">
                                <img src=""images/map02_YlGnBu_scaleDef_orientDef_270.png"" style= ""width:200px""alt=""img"">
                            </div>
                        </div>",0.09,"",0,"",NA,"","images/map02_YlGnBu_scaleDef_orientDef_270.png","sad",1,2,2,"YlGnBu","orientDef","scaleDef","270",NA,NA
"","","","","","html-slider-response",106,359586,"0.0-102.0","suevhr8uoq",45,NA,"<div style=""width:500px;"">
                            <p style=""font-size:50px; font-weight:bold;""
                            >sad</p>
                            <div style=""width:240px; margin: auto;"">
                                <img src=""images/map13_vanimo_scaleRev_orientDef_000.png"" style= ""width:200px""alt=""img"">
                            </div>
                        </div>",0.625,"",0,"",NA,"","images/map13_vanimo_scaleRev_orientDef_000.png","sad",1,13,13,"vanimo","orientDef","scaleRev","000",NA,NA
"","","","","","html-slider-response",107,361736,"0.0-103.0","suevhr8uoq",45,NA,"<div style=""width:500px;"">
                            <p style=""font-size:50px; font-weight:bold;""
                            >sad</p>
                            <div style=""width:240px; margin: auto;"">
                                <img src=""images/map12_seismic_scaleDef_orientDef_090.png"" style= ""width:200px""alt=""img"">
                            </div>
                        </div>",0.2225,"",0,"",NA,"","images/map12_seismic_scaleDef_orientDef_090.png","sad",1,12,12,"seismic","orientDef","scaleDef","090",NA,NA
"","","","","","html-slider-response",108,363334,"0.0-104.0","suevhr8uoq",45,NA,"<div style=""width:500px;"">
                            <p style=""font-size:50px; font-weight:bold;""
                            >sad</p>
                            <div style=""width:240px; margin: auto;"">
                                <img src=""images/map10_RdYlGn_scaleDef_orientDef_090.png"" style= ""width:200px""alt=""img"">
                            </div>
                        </div>",0.2325,"",0,"",NA,"","images/map10_RdYlGn_scaleDef_orientDef_090.png","sad",1,10,10,"RdYlGn","orientDef","scaleDef","090",NA,NA
"","","","","","html-slider-response",109,366201,"0.0-105.0","suevhr8uoq",45,NA,"<div style=""width:500px;"">
                            <p style=""font-size:50px; font-weight:bold;""
                            >sad</p>
                            <div style=""width:240px; margin: auto;"">
                                <img src=""images/map12_berlin_scaleDef_orientDef_270.png"" style= ""width:200px""alt=""img"">
                            </div>
                        </div>",0.69,"",0,"",NA,"","images/map12_berlin_scaleDef_orientDef_270.png","sad",1,12,12,"berlin","orientDef","scaleDef","270",NA,NA
"","","","","","html-slider-response",110,368218,"0.0-106.0","suevhr8uoq",45,NA,"<div style=""width:500px;"">
                            <p style=""font-size:50px; font-weight:bold;""
                            >sad</p>
                            <div style=""width:240px; margin: auto;"">
                                <img src=""images/map15_plasma_scaleRev_orientDef_000.png"" style= ""width:200px""alt=""img"">
                            </div>
                        </div>",0.225,"",0,"",NA,"","images/map15_plasma_scaleRev_orientDef_000.png","sad",1,15,15,"plasma","orientDef","scaleRev","000",NA,NA
"","","","","","html-slider-response",111,370051,"0.0-107.0","suevhr8uoq",45,NA,"<div style=""width:500px;"">
                            <p style=""font-size:50px; font-weight:bold;""
                            >sad</p>
                            <div style=""width:240px; margin: auto;"">
                                <img src=""images/map13_gist_earth_scaleRev_orientDef_180.png"" style= ""width:200px""alt=""img"">
                            </div>
                        </div>",0.1825,"",0,"",NA,"","images/map13_gist_earth_scaleRev_orientDef_180.png","sad",1,13,13,"gist","scaleRev","earth","orientDef",NA,NA
"","","","","","html-slider-response",112,372303,"0.0-108.0","suevhr8uoq",45,NA,"<div style=""width:500px;"">
                            <p style=""font-size:50px; font-weight:bold;""
                            >sad</p>
                            <div style=""width:240px; margin: auto;"">
                                <img src=""images/map15_cividis_scaleDef_orientMir_090.png"" style= ""width:200px""alt=""img"">
                            </div>
                        </div>",0.1825,"",0,"",NA,"","images/map15_cividis_scaleDef_orientMir_090.png","sad",1,15,15,"cividis","orientMir","scaleDef","090",NA,NA
"","","","","","html-slider-response",113,373553,"0.0-109.0","suevhr8uoq",45,NA,"<div style=""width:500px;"">
                            <p style=""font-size:50px; font-weight:bold;""
                            >sad</p>
                            <div style=""width:240px; margin: auto;"">
                                <img src=""images/map27_RdPu_scaleRev_orientMir_000.png"" style= ""width:200px""alt=""img"">
                            </div>
                        </div>",0.1825,"",0,"",NA,"","images/map27_RdPu_scaleRev_orientMir_000.png","sad",1,27,27,"RdPu","orientMir","scaleRev","000",NA,NA
"","","","","","html-slider-response",114,376168,"0.0-110.0","suevhr8uoq",45,NA,"<div style=""width:500px;"">
                            <p style=""font-size:50px; font-weight:bold;""
                            >sad</p>
                            <div style=""width:240px; margin: auto;"">
                                <img src=""images/map10_RdYlBu_scaleRev_orientDef_000.png"" style= ""width:200px""alt=""img"">
                            </div>
                        </div>",0.5575,"",0,"",NA,"","images/map10_RdYlBu_scaleRev_orientDef_000.png","sad",1,10,10,"RdYlBu","orientDef","scaleRev","000",NA,NA
"","","","","","html-slider-response",115,378051,"0.0-111.0","suevhr8uoq",45,NA,"<div style=""width:500px;"">
                            <p style=""font-size:50px; font-weight:bold;""
                            >sad</p>
                            <div style=""width:240px; margin: auto;"">
                                <img src=""images/map07_RdBu_scaleDef_orientMir_090.png"" style= ""width:200px""alt=""img"">
                            </div>
                        </div>",0.6475,"",0,"",NA,"","images/map07_RdBu_scaleDef_orientMir_090.png","sad",1,7,7,"RdBu","orientMir","scaleDef","090",NA,NA
"","","","","","html-slider-response",116,380220,"0.0-112.0","suevhr8uoq",45,NA,"<div style=""width:500px;"">
                            <p style=""font-size:50px; font-weight:bold;""
                            >sad</p>
                            <div style=""width:240px; margin: auto;"">
                                <img src=""images/map13_viridis_scaleDef_orientMir_090.png"" style= ""width:200px""alt=""img"">
                            </div>
                        </div>",0.3125,"",0,"",NA,"","images/map13_viridis_scaleDef_orientMir_090.png","sad",1,13,13,"viridis","orientMir","scaleDef","090",NA,NA
"","","","","","html-slider-response",117,382635,"0.0-113.0","suevhr8uoq",45,NA,"<div style=""width:500px;"">
                            <p style=""font-size:50px; font-weight:bold;""
                            >sad</p>
                            <div style=""width:240px; margin: auto;"">
                                <img src=""images/map27_RdPu_scaleDef_orientDef_270.png"" style= ""width:200px""alt=""img"">
                            </div>
                        </div>",0.185,"",0,"",NA,"","images/map27_RdPu_scaleDef_orientDef_270.png","sad",1,27,27,"RdPu","orientDef","scaleDef","270",NA,NA
"","","","","","html-slider-response",118,384435,"0.0-114.0","suevhr8uoq",45,NA,"<div style=""width:500px;"">
                            <p style=""font-size:50px; font-weight:bold;""
                            >sad</p>
                            <div style=""width:240px; margin: auto;"">
                                <img src=""images/map13_turbo_scaleDef_orientDef_270.png"" style= ""width:200px""alt=""img"">
                            </div>
                        </div>",0.14,"",0,"",NA,"","images/map13_turbo_scaleDef_orientDef_270.png","sad",1,13,13,"turbo","orientDef","scaleDef","270",NA,NA
"","","","","","html-slider-response",119,387187,"0.0-115.0","suevhr8uoq",45,NA,"<div style=""width:500px;"">
                            <p style=""font-size:50px; font-weight:bold;""
                            >sad</p>
                            <div style=""width:240px; margin: auto;"">
                                <img src=""images/map02_YlGnBu_scaleRev_orientMir_000.png"" style= ""width:200px""alt=""img"">
                            </div>
                        </div>",0.6025,"",0,"",NA,"","images/map02_YlGnBu_scaleRev_orientMir_000.png","sad",1,2,2,"YlGnBu","orientMir","scaleRev","000",NA,NA
"","","","","","html-slider-response",120,399037,"0.0-116.0","suevhr8uoq",45,NA,"<div style=""width:500px;"">
                            <p style=""font-size:50px; font-weight:bold;""
                            >sad</p>
                            <div style=""width:240px; margin: auto;"">
                                <img src=""images/map15_cividis_scaleRev_orientMir_180.png"" style= ""width:200px""alt=""img"">
                            </div>
                        </div>",0.595,"",0,"",NA,"","images/map15_cividis_scaleRev_orientMir_180.png","sad",1,15,15,"cividis","orientMir","scaleRev","180",NA,NA
"","","","","","html-slider-response",121,405753,"0.0-117.0","suevhr8uoq",45,NA,"<div style=""width:500px;"">
                            <p style=""font-size:50px; font-weight:bold;""
                            >sad</p>
                            <div style=""width:240px; margin: auto;"">
                                <img src=""images/map12_seismic_scaleRev_orientDef_180.png"" style= ""width:200px""alt=""img"">
                            </div>
                        </div>",0.3275,"",0,"",NA,"","images/map12_seismic_scaleRev_orientDef_180.png","sad",1,12,12,"seismic","orientDef","scaleRev","180",NA,NA
"","","","","","html-slider-response",122,407836,"0.0-118.0","suevhr8uoq",45,NA,"<div style=""width:500px;"">
                            <p style=""font-size:50px; font-weight:bold;""
                            >sad</p>
                            <div style=""width:240px; margin: auto;"">
                                <img src=""images/map27_PuRd_scaleDef_orientDef_090.png"" style= ""width:200px""alt=""img"">
                            </div>
                        </div>",0.175,"",0,"",NA,"","images/map27_PuRd_scaleDef_orientDef_090.png","sad",1,27,27,"PuRd","orientDef","scaleDef","090",NA,NA
"","","","","","html-slider-response",123,415553,"0.0-119.0","suevhr8uoq",45,NA,"<div style=""width:500px;"">
                            <p style=""font-size:50px; font-weight:bold;""
                            >sad</p>
                            <div style=""width:240px; margin: auto;"">
                                <img src=""images/map23_Blues_scaleDef_orientDef_270.png"" style= ""width:200px""alt=""img"">
                            </div>
                        </div>",0.9025,"",0,"",NA,"","images/map23_Blues_scaleDef_orientDef_270.png","sad",1,23,23,"Blues","orientDef","scaleDef","270",NA,NA
"","","","","","html-slider-response",124,428719,"0.0-120.0","suevhr8uoq",45,NA,"<div style=""width:500px;"">
                            <p style=""font-size:50px; font-weight:bold;""
                            >sad</p>
                            <div style=""width:240px; margin: auto;"">
                                <img src=""images/map05_YlGn_scaleDef_orientDef_090.png"" style= ""width:200px""alt=""img"">
                            </div>
                        </div>",0.3275,"",0,"",NA,"","images/map05_YlGn_scaleDef_orientDef_090.png","sad",1,5,5,"YlGn","orientDef","scaleDef","090",NA,NA
"","","","","","html-slider-response",125,430602,"0.0-121.0","suevhr8uoq",45,NA,"<div style=""width:500px;"">
                            <p style=""font-size:50px; font-weight:bold;""
                            >sad</p>
                            <div style=""width:240px; margin: auto;"">
                                <img src=""images/map13_viridis_scaleRev_orientMir_180.png"" style= ""width:200px""alt=""img"">
                            </div>
                        </div>",0.3275,"",0,"",NA,"","images/map13_viridis_scaleRev_orientMir_180.png","sad",1,13,13,"viridis","orientMir","scaleRev","180",NA,NA
"","","","","","html-slider-response",126,432352,"0.0-122.0","suevhr8uoq",45,NA,"<div style=""width:500px;"">
                            <p style=""font-size:50px; font-weight:bold;""
                            >sad</p>
                            <div style=""width:240px; margin: auto;"">
                                <img src=""images/map05_PiYG_scaleDef_orientDef_270.png"" style= ""width:200px""alt=""img"">
                            </div>
                        </div>",0.22,"",0,"",NA,"","images/map05_PiYG_scaleDef_orientDef_270.png","sad",1,5,5,"PiYG","orientDef","scaleDef","270",NA,NA
"","","","","","html-slider-response",127,434336,"0.0-123.0","suevhr8uoq",45,NA,"<div style=""width:500px;"">
                            <p style=""font-size:50px; font-weight:bold;""
                            >sad</p>
                            <div style=""width:240px; margin: auto;"">
                                <img src=""images/map27_PuRd_scaleRev_orientDef_180.png"" style= ""width:200px""alt=""img"">
                            </div>
                        </div>",0.125,"",0,"",NA,"","images/map27_PuRd_scaleRev_orientDef_180.png","sad",1,27,27,"PuRd","orientDef","scaleRev","180",NA,NA
"","","","","","html-slider-response",128,437586,"0.0-124.0","suevhr8uoq",45,NA,"<div style=""width:500px;"">
                            <p style=""font-size:50px; font-weight:bold;""
                            >sad</p>
                            <div style=""width:240px; margin: auto;"">
                                <img src=""images/map26_YlOrBr_scaleDef_orientDef_270.png"" style= ""width:200px""alt=""img"">
                            </div>
                        </div>",0.565,"",0,"",NA,"","images/map26_YlOrBr_scaleDef_orientDef_270.png","sad",1,26,26,"YlOrBr","orientDef","scaleDef","270",NA,NA
"","","","","","html-slider-response",129,440286,"0.0-125.0","suevhr8uoq",45,NA,"<div style=""width:500px;"">
                            <p style=""font-size:50px; font-weight:bold;""
                            >sad</p>
                            <div style=""width:240px; margin: auto;"">
                                <img src=""images/map12_bwr_scaleRev_orientDef_000.png"" style= ""width:200px""alt=""img"">
                            </div>
                        </div>",0.215,"",0,"",NA,"","images/map12_bwr_scaleRev_orientDef_000.png","sad",1,12,12,"bwr","orientDef","scaleRev","000",NA,NA
"","","","","","html-slider-response",130,441853,"0.0-126.0","suevhr8uoq",45,NA,"<div style=""width:500px;"">
                            <p style=""font-size:50px; font-weight:bold;""
                            >sad</p>
                            <div style=""width:240px; margin: auto;"">
                                <img src=""images/map12_vanimo_scaleDef_orientMir_270.png"" style= ""width:200px""alt=""img"">
                            </div>
                        </div>",0.215,"",0,"",NA,"","images/map12_vanimo_scaleDef_orientMir_270.png","sad",1,12,12,"vanimo","orientMir","scaleDef","270",NA,NA
"","","","","","html-slider-response",131,444386,"0.0-127.0","suevhr8uoq",45,NA,"<div style=""width:500px;"">
                            <p style=""font-size:50px; font-weight:bold;""
                            >sad</p>
                            <div style=""width:240px; margin: auto;"">
                                <img src=""images/map15_magma_scaleDef_orientDef_270.png"" style= ""width:200px""alt=""img"">
                            </div>
                        </div>",0.545,"",0,"",NA,"","images/map15_magma_scaleDef_orientDef_270.png","sad",1,15,15,"magma","orientDef","scaleDef","270",NA,NA
"","","","","","html-slider-response",132,446486,"0.0-128.0","suevhr8uoq",45,NA,"<div style=""width:500px;"">
                            <p style=""font-size:50px; font-weight:bold;""
                            >sad</p>
                            <div style=""width:240px; margin: auto;"">
                                <img src=""images/map27_BuPu_scaleDef_orientMir_090.png"" style= ""width:200px""alt=""img"">
                            </div>
                        </div>",0.635,"",0,"",NA,"","images/map27_BuPu_scaleDef_orientMir_090.png","sad",1,27,27,"BuPu","orientMir","scaleDef","090",NA,NA
"","","","","","html-slider-response",133,448185,"0.0-129.0","suevhr8uoq",45,NA,"<div style=""width:500px;"">
                            <p style=""font-size:50px; font-weight:bold;""
                            >sad</p>
                            <div style=""width:240px; margin: auto;"">
                                <img src=""images/map07_RdBu_scaleRev_orientMir_180.png"" style= ""width:200px""alt=""img"">
                            </div>
                        </div>",0.695,"",0,"",NA,"","images/map07_RdBu_scaleRev_orientMir_180.png","sad",1,7,7,"RdBu","orientMir","scaleRev","180",NA,NA
"","","","","","html-slider-response",134,449853,"0.0-130.0","suevhr8uoq",45,NA,"<div style=""width:500px;"">
                            <p style=""font-size:50px; font-weight:bold;""
                            >sad</p>
                            <div style=""width:240px; margin: auto;"">
                                <img src=""images/map10_coolwarm_scaleRev_orientMir_180.png"" style= ""width:200px""alt=""img"">
                            </div>
                        </div>",0.7475,"",0,"",NA,"","images/map10_coolwarm_scaleRev_orientMir_180.png","sad",1,10,10,"coolwarm","orientMir","scaleRev","180",NA,NA
"","","","","","html-slider-response",135,451653,"0.0-131.0","suevhr8uoq",45,NA,"<div style=""width:500px;"">
                            <p style=""font-size:50px; font-weight:bold;""
                            >sad</p>
                            <div style=""width:240px; margin: auto;"">
                                <img src=""images/map23_Blues_scaleRev_orientMir_000.png"" style= ""width:200px""alt=""img"">
                            </div>
                        </div>",0.875,"",0,"",NA,"","images/map23_Blues_scaleRev_orientMir_000.png","sad",1,23,23,"Blues","orientMir","scaleRev","000",NA,NA
"","","","","","html-slider-response",136,453419,"0.0-132.0","suevhr8uoq",45,NA,"<div style=""width:500px;"">
                            <p style=""font-size:50px; font-weight:bold;""
                            >sad</p>
                            <div style=""width:240px; margin: auto;"">
                                <img src=""images/map23_Greens_scaleDef_orientMir_090.png"" style= ""width:200px""alt=""img"">
                            </div>
                        </div>",0.245,"",0,"",NA,"","images/map23_Greens_scaleDef_orientMir_090.png","sad",1,23,23,"Greens","orientMir","scaleDef","090",NA,NA
"","","","","","html-slider-response",137,455386,"0.0-133.0","suevhr8uoq",45,NA,"<div style=""width:500px;"">
                            <p style=""font-size:50px; font-weight:bold;""
                            >sad</p>
                            <div style=""width:240px; margin: auto;"">
                                <img src=""images/map07_RdYlBu_scaleDef_orientMir_270.png"" style= ""width:200px""alt=""img"">
                            </div>
                        </div>",0.5675,"",0,"",NA,"","images/map07_RdYlBu_scaleDef_orientMir_270.png","sad",1,7,7,"RdYlBu","orientMir","scaleDef","270",NA,NA
"","","","","","html-slider-response",138,457586,"0.0-134.0","suevhr8uoq",45,NA,"<div style=""width:500px;"">
                            <p style=""font-size:50px; font-weight:bold;""
                            >sad</p>
                            <div style=""width:240px; margin: auto;"">
                                <img src=""images/map02_GnBu_scaleRev_orientDef_000.png"" style= ""width:200px""alt=""img"">
                            </div>
                        </div>",0.715,"",0,"",NA,"","images/map02_GnBu_scaleRev_orientDef_000.png","sad",1,2,2,"GnBu","orientDef","scaleRev","000",NA,NA
"","","","","","html-slider-response",139,459771,"0.0-135.0","suevhr8uoq",45,NA,"<div style=""width:500px;"">
                            <p style=""font-size:50px; font-weight:bold;""
                            >sad</p>
                            <div style=""width:240px; margin: auto;"">
                                <img src=""images/map07_BrBG_scaleRev_orientDef_000.png"" style= ""width:200px""alt=""img"">
                            </div>
                        </div>",0.305,"",0,"",NA,"","images/map07_BrBG_scaleRev_orientDef_000.png","sad",1,7,7,"BrBG","orientDef","scaleRev","000",NA,NA
"","","","","","html-slider-response",140,462268,"0.0-136.0","suevhr8uoq",45,NA,"<div style=""width:500px;"">
                            <p style=""font-size:50px; font-weight:bold;""
                            >sad</p>
                            <div style=""width:240px; margin: auto;"">
                                <img src=""images/map23_Oranges_scaleDef_orientMir_270.png"" style= ""width:200px""alt=""img"">
                            </div>
                        </div>",0.2175,"",0,"",NA,"","images/map23_Oranges_scaleDef_orientMir_270.png","sad",1,23,23,"Oranges","orientMir","scaleDef","270",NA,NA
"","","","","","html-button-response",141,464575,"0.0-137.0","suevhr8uoq",45,1805,"<p>You are doing great!<br></br> You are halway done with the current block. When you are ready to continue, click the 'Continue' button.</p>",0.5,"",NA,"",NA,"","","",NA,NA,NA,"","","","",NA,NA
"","","","","","html-slider-response",142,469486,"0.0-138.0","suevhr8uoq",45,NA,"<div style=""width:500px;"">
                            <p style=""font-size:50px; font-weight:bold;""
                            >sad</p>
                            <div style=""width:240px; margin: auto;"">
                                <img src=""images/map10_Spectral_scaleDef_orientDef_270.png"" style= ""width:200px""alt=""img"">
                            </div>
                        </div>",0.45,"",0,"",NA,"","images/map10_Spectral_scaleDef_orientDef_270.png","sad",1,10,10,"Spectral","orientDef","scaleDef","270",NA,NA
"","","","","","html-slider-response",143,471519,"0.0-139.0","suevhr8uoq",45,NA,"<div style=""width:500px;"">
                            <p style=""font-size:50px; font-weight:bold;""
                            >sad</p>
                            <div style=""width:240px; margin: auto;"">
                                <img src=""images/map05_YlGn_scaleRev_orientDef_180.png"" style= ""width:200px""alt=""img"">
                            </div>
                        </div>",0.1875,"",0,"",NA,"","images/map05_YlGn_scaleRev_orientDef_180.png","sad",1,5,5,"YlGn","orientDef","scaleRev","180",NA,NA
"","","","","","html-slider-response",144,474035,"0.0-140.0","suevhr8uoq",45,NA,"<div style=""width:500px;"">
                            <p style=""font-size:50px; font-weight:bold;""
                            >sad</p>
                            <div style=""width:240px; margin: auto;"">
                                <img src=""images/map05_PRGn_scaleRev_orientMir_180.png"" style= ""width:200px""alt=""img"">
                            </div>
                        </div>",0.6175,"",0,"",NA,"","images/map05_PRGn_scaleRev_orientMir_180.png","sad",1,5,5,"PRGn","orientMir","scaleRev","180",NA,NA
"","","","","","html-slider-response",145,476318,"0.0-141.0","suevhr8uoq",45,NA,"<div style=""width:500px;"">
                            <p style=""font-size:50px; font-weight:bold;""
                            >sad</p>
                            <div style=""width:240px; margin: auto;"">
                                <img src=""images/map26_OrRd_scaleDef_orientMir_270.png"" style= ""width:200px""alt=""img"">
                            </div>
                        </div>",0.1625,"",0,"",NA,"","images/map26_OrRd_scaleDef_orientMir_270.png","sad",1,26,26,"OrRd","orientMir","scaleDef","270",NA,NA
"","","","","","html-slider-response",146,478251,"0.0-142.0","suevhr8uoq",45,NA,"<div style=""width:500px;"">
                            <p style=""font-size:50px; font-weight:bold;""
                            >sad</p>
                            <div style=""width:240px; margin: auto;"">
                                <img src=""images/map05_BuGn_scaleRev_orientDef_000.png"" style= ""width:200px""alt=""img"">
                            </div>
                        </div>",0.145,"",0,"",NA,"","images/map05_BuGn_scaleRev_orientDef_000.png","sad",1,5,5,"BuGn","orientDef","scaleRev","000",NA,NA
"","","","","","html-slider-response",147,479986,"0.0-143.0","suevhr8uoq",45,NA,"<div style=""width:500px;"">
                            <p style=""font-size:50px; font-weight:bold;""
                            >sad</p>
                            <div style=""width:240px; margin: auto;"">
                                <img src=""images/map10_coolwarm_scaleDef_orientMir_090.png"" style= ""width:200px""alt=""img"">
                            </div>
                        </div>",0.595,"",0,"",NA,"","images/map10_coolwarm_scaleDef_orientMir_090.png","sad",1,10,10,"coolwarm","orientMir","scaleDef","090",NA,NA
"","","","","","html-slider-response",148,483268,"0.0-144.0","suevhr8uoq",45,NA,"<div style=""width:500px;"">
                            <p style=""font-size:50px; font-weight:bold;""
                            >sad</p>
                            <div style=""width:240px; margin: auto;"">
                                <img src=""images/map02_PuBuGn_scaleDef_orientMir_090.png"" style= ""width:200px""alt=""img"">
                            </div>
                        </div>",0.69,"",0,"",NA,"","images/map02_PuBuGn_scaleDef_orientMir_090.png","sad",1,2,2,"PuBuGn","orientMir","scaleDef","090",NA,NA
"","","","","","html-slider-response",149,485352,"0.0-145.0","suevhr8uoq",45,NA,"<div style=""width:500px;"">
                            <p style=""font-size:50px; font-weight:bold;""
                            >sad</p>
                            <div style=""width:240px; margin: auto;"">
                                <img src=""images/map15_Greys_scaleDef_orientMir_270.png"" style= ""width:200px""alt=""img"">
                            </div>
                        </div>",0.91,"",0,"",NA,"","images/map15_Greys_scaleDef_orientMir_270.png","sad",1,15,15,"Greys","orientMir","scaleDef","270",NA,NA
"","","","","","html-slider-response",150,487201,"0.0-146.0","suevhr8uoq",45,NA,"<div style=""width:500px;"">
                            <p style=""font-size:50px; font-weight:bold;""
                            >sad</p>
                            <div style=""width:240px; margin: auto;"">
                                <img src=""images/map26_Reds_scaleDef_orientDef_090.png"" style= ""width:200px""alt=""img"">
                            </div>
                        </div>",0.405,"",0,"",NA,"","images/map26_Reds_scaleDef_orientDef_090.png","sad",1,26,26,"Reds","orientDef","scaleDef","090",NA,NA
"","","","","","html-slider-response",151,489203,"0.0-147.0","suevhr8uoq",45,NA,"<div style=""width:500px;"">
                            <p style=""font-size:50px; font-weight:bold;""
                            >sad</p>
                            <div style=""width:240px; margin: auto;"">
                                <img src=""images/map26_YlOrRd_scaleRev_orientMir_180.png"" style= ""width:200px""alt=""img"">
                            </div>
                        </div>",0.25,"",0,"",NA,"","images/map26_YlOrRd_scaleRev_orientMir_180.png","sad",1,26,26,"YlOrRd","orientMir","scaleRev","180",NA,NA
"","","","","","html-slider-response",152,491103,"0.0-148.0","suevhr8uoq",45,NA,"<div style=""width:500px;"">
                            <p style=""font-size:50px; font-weight:bold;""
                            >sad</p>
                            <div style=""width:240px; margin: auto;"">
                                <img src=""images/map02_BuGn_scaleDef_orientMir_270.png"" style= ""width:200px""alt=""img"">
                            </div>
                        </div>",0.215,"",0,"",NA,"","images/map02_BuGn_scaleDef_orientMir_270.png","sad",1,2,2,"BuGn","orientMir","scaleDef","270",NA,NA
"","","","","","html-slider-response",153,492619,"0.0-149.0","suevhr8uoq",45,NA,"<div style=""width:500px;"">
                            <p style=""font-size:50px; font-weight:bold;""
                            >sad</p>
                            <div style=""width:240px; margin: auto;"">
                                <img src=""images/map27_OrRd_scaleRev_orientDef_000.png"" style= ""width:200px""alt=""img"">
                            </div>
                        </div>",0.2125,"",0,"",NA,"","images/map27_OrRd_scaleRev_orientDef_000.png","sad",1,27,27,"OrRd","orientDef","scaleRev","000",NA,NA
"","","","","","html-slider-response",154,494520,"0.0-150.0","suevhr8uoq",45,NA,"<div style=""width:500px;"">
                            <p style=""font-size:50px; font-weight:bold;""
                            >sad</p>
                            <div style=""width:240px; margin: auto;"">
                                <img src=""images/map10_RdYlGn_scaleRev_orientDef_180.png"" style= ""width:200px""alt=""img"">
                            </div>
                        </div>",0.145,"",0,"",NA,"","images/map10_RdYlGn_scaleRev_orientDef_180.png","sad",1,10,10,"RdYlGn","orientDef","scaleRev","180",NA,NA
"","","","","","html-slider-response",155,496619,"0.0-151.0","suevhr8uoq",45,NA,"<div style=""width:500px;"">
                            <p style=""font-size:50px; font-weight:bold;""
                            >sad</p>
                            <div style=""width:240px; margin: auto;"">
                                <img src=""images/map12_managua_scaleDef_orientMir_090.png"" style= ""width:200px""alt=""img"">
                            </div>
                        </div>",0.5425,"",0,"",NA,"","images/map12_managua_scaleDef_orientMir_090.png","sad",1,12,12,"managua","orientMir","scaleDef","090",NA,NA
"","","","","","html-slider-response",156,498369,"0.0-152.0","suevhr8uoq",45,NA,"<div style=""width:500px;"">
                            <p style=""font-size:50px; font-weight:bold;""
                            >sad</p>
                            <div style=""width:240px; margin: auto;"">
                                <img src=""images/map23_Greys_scaleRev_orientDef_000.png"" style= ""width:200px""alt=""img"">
                            </div>
                        </div>",0.91,"",0,"",NA,"","images/map23_Greys_scaleRev_orientDef_000.png","sad",1,23,23,"Greys","orientDef","scaleRev","000",NA,NA
"","","","","","html-slider-response",157,500386,"0.0-153.0","suevhr8uoq",45,NA,"<div style=""width:500px;"">
                            <p style=""font-size:50px; font-weight:bold;""
                            >sad</p>
                            <div style=""width:240px; margin: auto;"">
                                <img src=""images/map02_PuBu_scaleRev_orientDef_180.png"" style= ""width:200px""alt=""img"">
                            </div>
                        </div>",0.885,"",0,"",NA,"","images/map02_PuBu_scaleRev_orientDef_180.png","sad",1,2,2,"PuBu","orientDef","scaleRev","180",NA,NA
"","","","","","html-slider-response",158,502586,"0.0-154.0","suevhr8uoq",45,NA,"<div style=""width:500px;"">
                            <p style=""font-size:50px; font-weight:bold;""
                            >sad</p>
                            <div style=""width:240px; margin: auto;"">
                                <img src=""images/map05_PiYG_scaleRev_orientMir_000.png"" style= ""width:200px""alt=""img"">
                            </div>
                        </div>",0.4325,"",0,"",NA,"","images/map05_PiYG_scaleRev_orientMir_000.png","sad",1,5,5,"PiYG","orientMir","scaleRev","000",NA,NA
"","","","","","html-slider-response",159,504770,"0.0-155.0","suevhr8uoq",45,NA,"<div style=""width:500px;"">
                            <p style=""font-size:50px; font-weight:bold;""
                            >sad</p>
                            <div style=""width:240px; margin: auto;"">
                                <img src=""images/map07_PuOr_scaleRev_orientDef_180.png"" style= ""width:200px""alt=""img"">
                            </div>
                        </div>",0.4125,"",0,"",NA,"","images/map07_PuOr_scaleRev_orientDef_180.png","sad",1,7,7,"PuOr","orientDef","scaleRev","180",NA,NA
"","","","","","html-slider-response",160,508352,"0.0-156.0","suevhr8uoq",45,NA,"<div style=""width:500px;"">
                            <p style=""font-size:50px; font-weight:bold;""
                            >sad</p>
                            <div style=""width:240px; margin: auto;"">
                                <img src=""images/map10_Spectral_scaleRev_orientMir_000.png"" style= ""width:200px""alt=""img"">
                            </div>
                        </div>",0.395,"",0,"",NA,"","images/map10_Spectral_scaleRev_orientMir_000.png","sad",1,10,10,"Spectral","orientMir","scaleRev","000",NA,NA
"","","","","","html-slider-response",161,510235,"0.0-157.0","suevhr8uoq",45,NA,"<div style=""width:500px;"">
                            <p style=""font-size:50px; font-weight:bold;""
                            >sad</p>
                            <div style=""width:240px; margin: auto;"">
                                <img src=""images/map02_PuBuGn_scaleRev_orientMir_180.png"" style= ""width:200px""alt=""img"">
                            </div>
                        </div>",0.6825,"",0,"",NA,"","images/map02_PuBuGn_scaleRev_orientMir_180.png","sad",1,2,2,"PuBuGn","orientMir","scaleRev","180",NA,NA
"","","","","","html-slider-response",162,512487,"0.0-158.0","suevhr8uoq",45,NA,"<div style=""width:500px;"">
                            <p style=""font-size:50px; font-weight:bold;""
                            >sad</p>
                            <div style=""width:240px; margin: auto;"">
                                <img src=""images/map07_RdGy_scaleRev_orientMir_000.png"" style= ""width:200px""alt=""img"">
                            </div>
                        </div>",0.595,"",0,"",NA,"","images/map07_RdGy_scaleRev_orientMir_000.png","sad",1,7,7,"RdGy","orientMir","scaleRev","000",NA,NA
"","","","","","html-slider-response",163,514485,"0.0-159.0","suevhr8uoq",45,NA,"<div style=""width:500px;"">
