"success","timeout","failed_images","failed_audio","failed_video","trial_type","trial_index","time_elapsed","internal_node_id","subject_id","condition_num","rt","stimulus","response","question_order","slider_start","practiceTrial","practiceTrialNum","correct","image_path","concept","repetition","map_id","map_num","scale_name","orientation_code","mapping_code","rotation_code","ishihara_plate","correct_response"
"true","false","[]","[]","[]","preload",0,575,"0.0-0.0","s6n3h35zk2",9,NA,"",NA,"",NA,"",NA,"","","",NA,NA,NA,"","","","",NA,NA
"","","","","","html-button-response",1,2479,"0.0-1.0","s6n3h35zk2",9,1903,"Welcome to our experiment!<p>At the bottom of this screen, you will see a button that says ""Begin Experiment"".<br>Please only click that button when you are ready to complete the 30 minute experiment in one sitting.</p><p> Once you click that button, it will not be possible to restart the experiment.",0.5,"",NA,"",NA,"","","",NA,NA,NA,"","","","",NA,NA
"true","","","","","fullscreen",2,4378,"0.0-2.0","s6n3h35zk2",9,894,"",NA,"",NA,"",NA,"","","",NA,NA,NA,"","","","",NA,NA
"","","","","","survey-multi-select",3,17985,"0.0-3.0","s6n3h35zk2",9,13603,"",NA,"[0]",NA,"",NA,"","","",NA,NA,NA,"","","","",NA,NA
"","","","","","html-button-response",4,19444,"0.0-4.0","s6n3h35zk2",9,1458,"Welcome! <p> This experiment involves two parts: demographic information, followed by the experimental task.<p> It will take about 30 minutes to complete both parts.",0.5,"",NA,"",NA,"","","",NA,NA,NA,"","","","",NA,NA
"","","","","","survey-text",5,52286,"0.0-5.0","s6n3h35zk2",9,32828,"",NA,"",NA,"",NA,"","","",NA,NA,NA,"","","","",NA,NA
"","","","","","html-slider-response",6,95964,"0.0-6.0","s6n3h35zk2",9,43675,"<div style='text-align:left; font-size:20px; line-height:25px; width: 1000px;'>
                                During this experiment you will be asked to rate how much you associate maps with                    different concepts.<br> Below, you can see some examples of the maps you will be asked to rate. Above the maps
                    is the list of concepts.<br>You will be asked                    to rate how much you associate each map with each concept on a scale from 'not at all' to 'very much' like the
                    one below. <br><br>
                    Now, please look at the list of concepts and maps. For each concept, think about the map you associate 'very
                    much' with the concept.<br>                     When you see that map during the experiment, please rate it near the 'very much' endpoint of the
                    scale.<br>Now, please think about which map you associate 'not at all'                     with each concept. When you see that map during the experiment, please rate it near the 'not at all' endpoint
                    of the scale.<br>
                    Please use the full range of the scale. That is, if a map is somewhat associated with the concept, you would
                    click partway between the middle point and right side of the scale.                    You will be asked to rate each map for a given concept before moving on to the next concept.<br>Press the
                    'Continue' button for instructions on how to use the slider.                    <br>
                </div>

                <div style=""width: 500px; margin: 0 auto;"">
                    <!-- Centered text paragraphs -->
                    <div style=""text-align: center; width: 500px;"">
                        <p style=""font-size:25px; line-height:15px;"">
                            disgust&nbsp;&nbsp;&nbsp;&nbsp;
                            happy&nbsp;&nbsp;&nbsp;&nbsp;
                            sad&nbsp;&nbsp;&nbsp;&nbsp;
                            fearful&nbsp;&nbsp;&nbsp;&nbsp;
                            angry
                        </p>
                        <!-- <p style=""font-size:20px; line-height:15px;"">happy</p>
                        <p style=""font-size:20px;line-height:15px;"">sad</p>
                        <p style=""font-size:20px;line-height:15px;"">fearful</p>
                        <p style=""font-size:20px;line-height:15px;"">angry</p> -->
                    </div>
            

                    <!-- Grid section -->
                   <div style=""display: flex; justify-content: center; padding-top: 15px;"">
                    <div style=""display: grid; grid-template-columns: repeat(10, 55px); grid-gap: 5px; width: auto;"">
                        <img src=""images/map26_RdGy_scaleRev_orientDef_000.png"" alt=""map"" style=""width: 100%;""><img src=""images/map27_seismic_scaleRev_orientMir_180.png"" alt=""map"" style=""width: 100%;""><img src=""images/map12_OrRd_scaleDef_orientDef_270.png"" alt=""map"" style=""width: 100%;""><img src=""images/map23_PuOr_scaleRev_orientMir_180.png"" alt=""map"" style=""width: 100%;""><img src=""images/map15_PuBuGn_scaleRev_orientDef_180.png"" alt=""map"" style=""width: 100%;""><img src=""images/map05_turbo_scaleRev_orientDef_000.png"" alt=""map"" style=""width: 100%;""><img src=""images/map07_Blues_scaleDef_orientMir_270.png"" alt=""map"" style=""width: 100%;""><img src=""images/map07_Greys_scaleDef_orientDef_270.png"" alt=""map"" style=""width: 100%;""><img src=""images/map07_Purples_scaleDef_orientMir_090.png"" alt=""map"" style=""width: 100%;""><img src=""images/map05_viridis_scaleRev_orientDef_180.png"" alt=""map"" style=""width: 100%;""><img src=""images/map02_gist_earth_scaleDef_orientMir_090.png"" alt=""map"" style=""width: 100%;""><img src=""images/map12_PuRd_scaleRev_orientMir_180.png"" alt=""map"" style=""width: 100%;""><img src=""images/map05_inferno_scaleRev_orientMir_180.png"" alt=""map"" style=""width: 100%;""><img src=""images/map13_BuPu_scaleRev_orientDef_180.png"" alt=""map"" style=""width: 100%;""><img src=""images/map15_YlGn_scaleRev_orientMir_180.png"" alt=""map"" style=""width: 100%;""><img src=""images/map12_RdPu_scaleDef_orientMir_270.png"" alt=""map"" style=""width: 100%;""><img src=""images/map13_PuBu_scaleDef_orientMir_090.png"" alt=""map"" style=""width: 100%;""><img src=""images/map10_Reds_scaleDef_orientMir_090.png"" alt=""map"" style=""width: 100%;""><img src=""images/map26_Spectral_scaleDef_orientMir_270.png"" alt=""map"" style=""width: 100%;""><img src=""images/map05_plasma_scaleDef_orientDef_270.png"" alt=""map"" style=""width: 100%;""><img src=""images/map07_cividis_scaleDef_orientDef_090.png"" alt=""map"" style=""width: 100%;""><img src=""images/map13_YlGnBu_scaleDef_orientMir_270.png"" alt=""map"" style=""width: 100%;""><img src=""images/map10_Greens_scaleDef_orientDef_090.png"" alt=""map"" style=""width: 100%;""><img src=""images/map26_RdYlGn_scaleDef_orientMir_090.png"" alt=""map"" style=""width: 100%;""><img src=""images/map27_berlin_scaleDef_orientMir_270.png"" alt=""map"" style=""width: 100%;""><img src=""images/map07_magma_scaleRev_orientDef_000.png"" alt=""map"" style=""width: 100%;""><img src=""images/map23_PRGn_scaleDef_orientDef_090.png"" alt=""map"" style=""width: 100%;""><img src=""images/map26_RdBu_scaleDef_orientDef_090.png"" alt=""map"" style=""width: 100%;""><img src=""images/map13_GnBu_scaleDef_orientDef_270.png"" alt=""map"" style=""width: 100%;""><img src=""images/map27_bwr_scaleRev_orientMir_000.png"" alt=""map"" style=""width: 100%;""><img src=""images/map27_coolwarm_scaleRev_orientDef_180.png"" alt=""map"" style=""width: 100%;""><img src=""images/map23_BrBG_scaleRev_orientMir_000.png"" alt=""map"" style=""width: 100%;""><img src=""images/map02_managua_scaleDef_orientDef_090.png"" alt=""map"" style=""width: 100%;""><img src=""images/map26_RdYlBu_scaleDef_orientDef_270.png"" alt=""map"" style=""width: 100%;""><img src=""images/map10_YlOrBr_scaleDef_orientMir_270.png"" alt=""map"" style=""width: 100%;""><img src=""images/map12_YlOrRd_scaleRev_orientDef_180.png"" alt=""map"" style=""width: 100%;""><img src=""images/map02_vanimo_scaleRev_orientMir_000.png"" alt=""map"" style=""width: 100%;""><img src=""images/map23_PiYG_scaleRev_orientDef_000.png"" alt=""map"" style=""width: 100%;""><img src=""images/map15_BuGn_scaleRev_orientMir_000.png"" alt=""map"" style=""width: 100%;""><img src=""images/map10_Oranges_scaleRev_orientMir_000.png"" alt=""map"" style=""width: 100%;"">
                    </div>
                </div>

                    <!-- Clear floats -->
                    <div style=""clear: both;""></div>
                </div>
                            ",0.505,"",0,"true",NA,"","","",NA,NA,NA,"","","","",NA,NA
"","","","","","html-button-response",7,97525,"0.0-7.0","s6n3h35zk2",9,1560,"<div style=""width:800px;""><p style=""text-align:left"">To move the slider, click and drag your cursor to the location of the scale where you would like to make your rating and then let go. When you let go of the slider, your response will be recorded and the next trial will begin. <br>
                    We are interested in your initial impressions of each map for the given concept, so please go with your first intuition. <br>
                    Before you begin the experiment, there will be four training trials for you to practice using the scale. <br>
                     When you are ready to start the training trials, please click ""Continue"".</p><br></div>",0.5,"",NA,"",NA,"","","",NA,NA,NA,"","","","",NA,NA
"","","","","","html-slider-response",8,99969,"0.0-8.0-0.0","s6n3h35zk2",9,NA,"<div style=""width:500px;"">
                                    <p style=""font-size:25px;"">Please move the slider all the way to the <br> right endpoint of the scale</p>

                                    </div>
                                </div>",0.785,"",0,"true",0,"false","","",NA,NA,NA,"","","","",NA,NA
"","","","","","html-button-response",9,102188,"0.0-8.0-1.0","s6n3h35zk2",9,1717,"<p align='center'><b>Not quite!</b> The slider was not placed near the instructed located. Click on 'Continue' to try again. </p>",0.5,"",NA,"",NA,"","","",NA,NA,NA,"","","","",NA,NA
"","","","","","html-slider-response",10,105634,"0.0-8.1-0.1","s6n3h35zk2",9,NA,"<div style=""width:500px;"">
                                    <p style=""font-size:25px;"">Please move the slider all the way to the <br> right endpoint of the scale</p>

                                    </div>
                                </div>",1,"",0,"true",0,"true","","",NA,NA,NA,"","","","",NA,NA
"","","","","","html-button-response",11,106852,"0.0-8.1-1.1","s6n3h35zk2",9,716,"<p align='center'><b>Good job!</b> Click on 'Continue' to proceed.</p>",0.5,"",NA,"",NA,"","","",NA,NA,NA,"","","","",NA,NA
"","","","","","html-slider-response",12,108116,"0.0-9.0-0.0","s6n3h35zk2",9,NA,"<div style=""width:500px;"">
                                    <p style=""font-size:25px;"">Please move the slider all the way to the <br> left endpoint of the scale</p>

                                    </div>
                                </div>",0,"",0,"true",1,"true","","",NA,NA,NA,"","","","",NA,NA
"","","","","","html-button-response",13,109550,"0.0-9.0-1.0","s6n3h35zk2",9,932,"<p align='center'><b>Good job!</b> Click on 'Continue' to proceed.</p>",0.5,"",NA,"",NA,"","","",NA,NA,NA,"","","","",NA,NA
"","","","","","html-slider-response",14,111366,"0.0-10.0-0.0","s6n3h35zk2",9,NA,"<div style=""width:500px;"">
                                    <p style=""font-size:25px;"">Please move the slider halfway between the center and right endpoint of the scale</p>

                                    </div>
                                </div>",0.51,"",0,"true",2,"false","","",NA,NA,NA,"","","","",NA,NA
"","","","","","html-button-response",15,112629,"0.0-10.0-1.0","s6n3h35zk2",9,761,"<p align='center'><b>Not quite!</b> The slider was not placed near the instructed located. Click on 'Continue' to try again. </p>",0.5,"",NA,"",NA,"","","",NA,NA,NA,"","","","",NA,NA
"","","","","","html-slider-response",16,114436,"0.0-10.1-0.1","s6n3h35zk2",9,NA,"<div style=""width:500px;"">
                                    <p style=""font-size:25px;"">Please move the slider halfway between the center and right endpoint of the scale</p>

                                    </div>
                                </div>",0.4975,"",0,"true",2,"false","","",NA,NA,NA,"","","","",NA,NA
"","","","","","html-button-response",17,115955,"0.0-10.1-1.1","s6n3h35zk2",9,1017,"<p align='center'><b>Not quite!</b> The slider was not placed near the instructed located. Click on 'Continue' to try again. </p>",0.5,"",NA,"",NA,"","","",NA,NA,NA,"","","","",NA,NA
"","","","","","html-slider-response",18,120079,"0.0-10.2-0.2","s6n3h35zk2",9,NA,"<div style=""width:500px;"">
                                    <p style=""font-size:25px;"">Please move the slider halfway between the center and right endpoint of the scale</p>

                                    </div>
                                </div>",0.7775,"",0,"true",2,"false","","",NA,NA,NA,"","","","",NA,NA
"","","","","","html-button-response",19,121347,"0.0-10.2-1.2","s6n3h35zk2",9,765,"<p align='center'><b>Not quite!</b> The slider was not placed near the instructed located. Click on 'Continue' to try again. </p>",0.5,"",NA,"",NA,"","","",NA,NA,NA,"","","","",NA,NA
"","","","","","html-slider-response",20,124024,"0.0-10.3-0.3","s6n3h35zk2",9,NA,"<div style=""width:500px;"">
                                    <p style=""font-size:25px;"">Please move the slider halfway between the center and right endpoint of the scale</p>

                                    </div>
                                </div>",0.7575,"",0,"true",2,"true","","",NA,NA,NA,"","","","",NA,NA
"","","","","","html-button-response",21,125237,"0.0-10.3-1.3","s6n3h35zk2",9,711,"<p align='center'><b>Good job!</b> Click on 'Continue' to proceed.</p>",0.5,"",NA,"",NA,"","","",NA,NA,NA,"","","","",NA,NA
"","","","","","html-slider-response",22,127014,"0.0-11.0-0.0","s6n3h35zk2",9,NA,"<div style=""width:500px;"">
                                    <p style=""font-size:25px;"">Please move the slider halfway between the center and left endpoint of the scale</p>

                                    </div>
                                </div>",0.2475,"",0,"true",3,"true","","",NA,NA,NA,"","","","",NA,NA
"","","","","","html-button-response",23,128030,"0.0-11.0-1.0","s6n3h35zk2",9,515,"<p align='center'><b>Good job!</b> Click on 'Continue' to proceed.</p>",0.5,"",NA,"",NA,"","","",NA,NA,NA,"","","","",NA,NA
"","","","","","html-button-response",24,129025,"0.0-12.0","s6n3h35zk2",9,993,"<p>Great job! You've completed the practice trials. Now you will begin the main task.</p>",0.5,"",NA,"",NA,"","","",NA,NA,NA,"","","","",NA,NA
"","","","","","html-button-response",25,130566,"0.0-13.0","s6n3h35zk2",9,1540,"<p>In this block of trials, you will be asked to rate how much you associate each map with:</p > <p style = 'font-size:150%; font-weight: bold'>disgust</p><br></br>",0.5,"",NA,"",NA,"","","",NA,NA,NA,"","","","",NA,NA
"","","","","","html-slider-response",26,135890,"0.0-14.0","s6n3h35zk2",9,NA,"<div style=""width:500px;"">
                            <p style=""font-size:50px; font-weight:bold;""
                            >disgust</p>
                            <div style=""width:240px; margin: auto;"">
                                <img src=""images/map27_bwr_scaleRev_orientMir_000.png"" style= ""width:200px""alt=""img"">
                            </div>
                        </div>",0.1575,"",0,"",NA,"","images/map27_bwr_scaleRev_orientMir_000.png","disgust",1,27,27,"bwr","orientMir","scaleRev","000",NA,NA
"","","","","","html-slider-response",27,139976,"0.0-15.0","s6n3h35zk2",9,NA,"<div style=""width:500px;"">
                            <p style=""font-size:50px; font-weight:bold;""
                            >disgust</p>
                            <div style=""width:240px; margin: auto;"">
                                <img src=""images/map05_plasma_scaleDef_orientDef_270.png"" style= ""width:200px""alt=""img"">
                            </div>
                        </div>",0.9175,"",0,"",NA,"","images/map05_plasma_scaleDef_orientDef_270.png","disgust",1,5,5,"plasma","orientDef","scaleDef","270",NA,NA
"","","","","","html-slider-response",28,142766,"0.0-16.0","s6n3h35zk2",9,NA,"<div style=""width:500px;"">
                            <p style=""font-size:50px; font-weight:bold;""
                            >disgust</p>
                            <div style=""width:240px; margin: auto;"">
                                <img src=""images/map27_bwr_scaleDef_orientDef_270.png"" style= ""width:200px""alt=""img"">
                            </div>
                        </div>",0.0525,"",0,"",NA,"","images/map27_bwr_scaleDef_orientDef_270.png","disgust",1,27,27,"bwr","orientDef","scaleDef","270",NA,NA
"","","","","","html-slider-response",29,144897,"0.0-17.0","s6n3h35zk2",9,NA,"<div style=""width:500px;"">
                            <p style=""font-size:50px; font-weight:bold;""
                            >disgust</p>
                            <div style=""width:240px; margin: auto;"">
                                <img src=""images/map07_Blues_scaleDef_orientMir_270.png"" style= ""width:200px""alt=""img"">
                            </div>
                        </div>",0.0525,"",0,"",NA,"","images/map07_Blues_scaleDef_orientMir_270.png","disgust",1,7,7,"Blues","orientMir","scaleDef","270",NA,NA
"","","","","","html-slider-response",30,147072,"0.0-18.0","s6n3h35zk2",9,NA,"<div style=""width:500px;"">
                            <p style=""font-size:50px; font-weight:bold;""
                            >disgust</p>
                            <div style=""width:240px; margin: auto;"">
                                <img src=""images/map23_RdGy_scaleDef_orientMir_270.png"" style= ""width:200px""alt=""img"">
                            </div>
                        </div>",0.9175,"",0,"",NA,"","images/map23_RdGy_scaleDef_orientMir_270.png","disgust",1,23,23,"RdGy","orientMir","scaleDef","270",NA,NA
"","","","","","html-slider-response",31,150260,"0.0-19.0","s6n3h35zk2",9,NA,"<div style=""width:500px;"">
                            <p style=""font-size:50px; font-weight:bold;""
                            >disgust</p>
                            <div style=""width:240px; margin: auto;"">
                                <img src=""images/map26_RdYlBu_scaleDef_orientDef_270.png"" style= ""width:200px""alt=""img"">
                            </div>
                        </div>",0.895,"",0,"",NA,"","images/map26_RdYlBu_scaleDef_orientDef_270.png","disgust",1,26,26,"RdYlBu","orientDef","scaleDef","270",NA,NA
"","","","","","html-slider-response",32,152643,"0.0-20.0","s6n3h35zk2",9,NA,"<div style=""width:500px;"">
                            <p style=""font-size:50px; font-weight:bold;""
                            >disgust</p>
                            <div style=""width:240px; margin: auto;"">
                                <img src=""images/map07_Greys_scaleDef_orientDef_270.png"" style= ""width:200px""alt=""img"">
                            </div>
                        </div>",0.845,"",0,"",NA,"","images/map07_Greys_scaleDef_orientDef_270.png","disgust",1,7,7,"Greys","orientDef","scaleDef","270",NA,NA
"","","","","","html-slider-response",33,154794,"0.0-21.0","s6n3h35zk2",9,NA,"<div style=""width:500px;"">
                            <p style=""font-size:50px; font-weight:bold;""
                            >disgust</p>
                            <div style=""width:240px; margin: auto;"">
                                <img src=""images/map12_PuRd_scaleDef_orientMir_090.png"" style= ""width:200px""alt=""img"">
                            </div>
                        </div>",0.0425,"",0,"",NA,"","images/map12_PuRd_scaleDef_orientMir_090.png","disgust",1,12,12,"PuRd","orientMir","scaleDef","090",NA,NA
"","","","","","html-slider-response",34,156618,"0.0-22.0","s6n3h35zk2",9,NA,"<div style=""width:500px;"">
                            <p style=""font-size:50px; font-weight:bold;""
                            >disgust</p>
                            <div style=""width:240px; margin: auto;"">
                                <img src=""images/map02_vanimo_scaleDef_orientDef_270.png"" style= ""width:200px""alt=""img"">
                            </div>
                        </div>",1,"",0,"",NA,"","images/map02_vanimo_scaleDef_orientDef_270.png","disgust",1,2,2,"vanimo","orientDef","scaleDef","270",NA,NA
"","","","","","html-slider-response",35,158326,"0.0-23.0","s6n3h35zk2",9,NA,"<div style=""width:500px;"">
                            <p style=""font-size:50px; font-weight:bold;""
                            >disgust</p>
                            <div style=""width:240px; margin: auto;"">
                                <img src=""images/map26_RdYlGn_scaleDef_orientMir_090.png"" style= ""width:200px""alt=""img"">
                            </div>
                        </div>",1,"",0,"",NA,"","images/map26_RdYlGn_scaleDef_orientMir_090.png","disgust",1,26,26,"RdYlGn","orientMir","scaleDef","090",NA,NA
"","","","","","html-slider-response",36,160978,"0.0-24.0","s6n3h35zk2",9,NA,"<div style=""width:500px;"">
                            <p style=""font-size:50px; font-weight:bold;""
                            >disgust</p>
                            <div style=""width:240px; margin: auto;"">
                                <img src=""images/map27_coolwarm_scaleDef_orientDef_090.png"" style= ""width:200px""alt=""img"">
                            </div>
                        </div>",0.645,"",0,"",NA,"","images/map27_coolwarm_scaleDef_orientDef_090.png","disgust",1,27,27,"coolwarm","orientDef","scaleDef","090",NA,NA
"","","","","","html-slider-response",37,162755,"0.0-25.0","s6n3h35zk2",9,NA,"<div style=""width:500px;"">
                            <p style=""font-size:50px; font-weight:bold;""
                            >disgust</p>
                            <div style=""width:240px; margin: auto;"">
                                <img src=""images/map13_GnBu_scaleRev_orientMir_000.png"" style= ""width:200px""alt=""img"">
                            </div>
                        </div>",0,"",0,"",NA,"","images/map13_GnBu_scaleRev_orientMir_000.png","disgust",1,13,13,"GnBu","orientMir","scaleRev","000",NA,NA
"","","","","","html-slider-response",38,164476,"0.0-26.0","s6n3h35zk2",9,NA,"<div style=""width:500px;"">
                            <p style=""font-size:50px; font-weight:bold;""
                            >disgust</p>
                            <div style=""width:240px; margin: auto;"">
                                <img src=""images/map02_gist_earth_scaleRev_orientMir_180.png"" style= ""width:200px""alt=""img"">
                            </div>
                        </div>",1,"",0,"",NA,"","images/map02_gist_earth_scaleRev_orientMir_180.png","disgust",1,2,2,"gist","scaleRev","earth","orientMir",NA,NA
"","","","","","html-slider-response",39,167216,"0.0-27.0","s6n3h35zk2",9,NA,"<div style=""width:500px;"">
                            <p style=""font-size:50px; font-weight:bold;""
                            >disgust</p>
                            <div style=""width:240px; margin: auto;"">
                                <img src=""images/map10_Reds_scaleRev_orientMir_180.png"" style= ""width:200px""alt=""img"">
                            </div>
                        </div>",0.26,"",0,"",NA,"","images/map10_Reds_scaleRev_orientMir_180.png","disgust",1,10,10,"Reds","orientMir","scaleRev","180",NA,NA
"","","","","","html-slider-response",40,168896,"0.0-28.0","s6n3h35zk2",9,NA,"<div style=""width:500px;"">
                            <p style=""font-size:50px; font-weight:bold;""
                            >disgust</p>
                            <div style=""width:240px; margin: auto;"">
                                <img src=""images/map23_BrBG_scaleRev_orientMir_000.png"" style= ""width:200px""alt=""img"">
                            </div>
                        </div>",0.9825,"",0,"",NA,"","images/map23_BrBG_scaleRev_orientMir_000.png","disgust",1,23,23,"BrBG","orientMir","scaleRev","000",NA,NA
"","","","","","html-slider-response",41,171355,"0.0-29.0","s6n3h35zk2",9,NA,"<div style=""width:500px;"">
                            <p style=""font-size:50px; font-weight:bold;""
                            >disgust</p>
                            <div style=""width:240px; margin: auto;"">
                                <img src=""images/map10_Oranges_scaleDef_orientDef_270.png"" style= ""width:200px""alt=""img"">
                            </div>
                        </div>",0.6425,"",0,"",NA,"","images/map10_Oranges_scaleDef_orientDef_270.png","disgust",1,10,10,"Oranges","orientDef","scaleDef","270",NA,NA
"","","","","","html-slider-response",42,173659,"0.0-30.0","s6n3h35zk2",9,NA,"<div style=""width:500px;"">
                            <p style=""font-size:50px; font-weight:bold;""
                            >disgust</p>
                            <div style=""width:240px; margin: auto;"">
                                <img src=""images/map07_cividis_scaleRev_orientDef_180.png"" style= ""width:200px""alt=""img"">
                            </div>
                        </div>",0.7475,"",0,"",NA,"","images/map07_cividis_scaleRev_orientDef_180.png","disgust",1,7,7,"cividis","orientDef","scaleRev","180",NA,NA
"","","","","","html-slider-response",43,175854,"0.0-31.0","s6n3h35zk2",9,NA,"<div style=""width:500px;"">
                            <p style=""font-size:50px; font-weight:bold;""
                            >disgust</p>
                            <div style=""width:240px; margin: auto;"">
                                <img src=""images/map23_PRGn_scaleDef_orientDef_090.png"" style= ""width:200px""alt=""img"">
                            </div>
                        </div>",0.87,"",0,"",NA,"","images/map23_PRGn_scaleDef_orientDef_090.png","disgust",1,23,23,"PRGn","orientDef","scaleDef","090",NA,NA
"","","","","","html-slider-response",44,178151,"0.0-32.0","s6n3h35zk2",9,NA,"<div style=""width:500px;"">
                            <p style=""font-size:50px; font-weight:bold;""
                            >disgust</p>
                            <div style=""width:240px; margin: auto;"">
                                <img src=""images/map02_managua_scaleRev_orientDef_180.png"" style= ""width:200px""alt=""img"">
                            </div>
                        </div>",0.875,"",0,"",NA,"","images/map02_managua_scaleRev_orientDef_180.png","disgust",1,2,2,"managua","orientDef","scaleRev","180",NA,NA
"","","","","","html-slider-response",45,180012,"0.0-33.0","s6n3h35zk2",9,NA,"<div style=""width:500px;"">
                            <p style=""font-size:50px; font-weight:bold;""
                            >disgust</p>
                            <div style=""width:240px; margin: auto;"">
                                <img src=""images/map26_RdGy_scaleRev_orientDef_000.png"" style= ""width:200px""alt=""img"">
                            </div>
                        </div>",0.84,"",0,"",NA,"","images/map26_RdGy_scaleRev_orientDef_000.png","disgust",1,26,26,"RdGy","orientDef","scaleRev","000",NA,NA
"","","","","","html-slider-response",46,184861,"0.0-34.0","s6n3h35zk2",9,NA,"<div style=""width:500px;"">
                            <p style=""font-size:50px; font-weight:bold;""
                            >disgust</p>
                            <div style=""width:240px; margin: auto;"">
                                <img src=""images/map13_YlGnBu_scaleDef_orientMir_270.png"" style= ""width:200px""alt=""img"">
                            </div>
                        </div>",0.285,"",0,"",NA,"","images/map13_YlGnBu_scaleDef_orientMir_270.png","disgust",1,13,13,"YlGnBu","orientMir","scaleDef","270",NA,NA
"","","","","","html-slider-response",47,186622,"0.0-35.0","s6n3h35zk2",9,NA,"<div style=""width:500px;"">
                            <p style=""font-size:50px; font-weight:bold;""
                            >disgust</p>
                            <div style=""width:240px; margin: auto;"">
                                <img src=""images/map05_viridis_scaleDef_orientDef_090.png"" style= ""width:200px""alt=""img"">
                            </div>
                        </div>",1,"",0,"",NA,"","images/map05_viridis_scaleDef_orientDef_090.png","disgust",1,5,5,"viridis","orientDef","scaleDef","090",NA,NA
"","","","","","html-slider-response",48,188239,"0.0-36.0","s6n3h35zk2",9,NA,"<div style=""width:500px;"">
                            <p style=""font-size:50px; font-weight:bold;""
                            >disgust</p>
                            <div style=""width:240px; margin: auto;"">
                                <img src=""images/map07_Greys_scaleRev_orientMir_000.png"" style= ""width:200px""alt=""img"">
                            </div>
                        </div>",0.6325,"",0,"",NA,"","images/map07_Greys_scaleRev_orientMir_000.png","disgust",1,7,7,"Greys","orientMir","scaleRev","000",NA,NA
"","","","","","html-slider-response",49,195763,"0.0-37.0","s6n3h35zk2",9,NA,"<div style=""width:500px;"">
                            <p style=""font-size:50px; font-weight:bold;""
                            >disgust</p>
                            <div style=""width:240px; margin: auto;"">
                                <img src=""images/map27_coolwarm_scaleRev_orientDef_180.png"" style= ""width:200px""alt=""img"">
                            </div>
                        </div>",0.26,"",0,"",NA,"","images/map27_coolwarm_scaleRev_orientDef_180.png","disgust",1,27,27,"coolwarm","orientDef","scaleRev","180",NA,NA
"","","","","","html-slider-response",50,197612,"0.0-38.0","s6n3h35zk2",9,NA,"<div style=""width:500px;"">
                            <p style=""font-size:50px; font-weight:bold;""
                            >disgust</p>
                            <div style=""width:240px; margin: auto;"">
                                <img src=""images/map12_OrRd_scaleRev_orientMir_000.png"" style= ""width:200px""alt=""img"">
                            </div>
                        </div>",0.735,"",0,"",NA,"","images/map12_OrRd_scaleRev_orientMir_000.png","disgust",1,12,12,"OrRd","orientMir","scaleRev","000",NA,NA
"","","","","","html-slider-response",51,199280,"0.0-39.0","s6n3h35zk2",9,NA,"<div style=""width:500px;"">
                            <p style=""font-size:50px; font-weight:bold;""
                            >disgust</p>
                            <div style=""width:240px; margin: auto;"">
                                <img src=""images/map23_PuOr_scaleRev_orientMir_180.png"" style= ""width:200px""alt=""img"">
                            </div>
                        </div>",0.935,"",0,"",NA,"","images/map23_PuOr_scaleRev_orientMir_180.png","disgust",1,23,23,"PuOr","orientMir","scaleRev","180",NA,NA
"","","","","","html-slider-response",52,201096,"0.0-40.0","s6n3h35zk2",9,NA,"<div style=""width:500px;"">
                            <p style=""font-size:50px; font-weight:bold;""
                            >disgust</p>
                            <div style=""width:240px; margin: auto;"">
                                <img src=""images/map02_berlin_scaleRev_orientDef_000.png"" style= ""width:200px""alt=""img"">
                            </div>
                        </div>",0.8,"",0,"",NA,"","images/map02_berlin_scaleRev_orientDef_000.png","disgust",1,2,2,"berlin","orientDef","scaleRev","000",NA,NA
"","","","","","html-slider-response",53,202851,"0.0-41.0","s6n3h35zk2",9,NA,"<div style=""width:500px;"">
                            <p style=""font-size:50px; font-weight:bold;""
                            >disgust</p>
                            <div style=""width:240px; margin: auto;"">
                                <img src=""images/map13_GnBu_scaleDef_orientDef_270.png"" style= ""width:200px""alt=""img"">
                            </div>
                        </div>",0.0675,"",0,"",NA,"","images/map13_GnBu_scaleDef_orientDef_270.png","disgust",1,13,13,"GnBu","orientDef","scaleDef","270",NA,NA
"","","","","","html-slider-response",54,204380,"0.0-42.0","s6n3h35zk2",9,NA,"<div style=""width:500px;"">
                            <p style=""font-size:50px; font-weight:bold;""
                            >disgust</p>
                            <div style=""width:240px; margin: auto;"">
                                <img src=""images/map07_Purples_scaleDef_orientMir_090.png"" style= ""width:200px""alt=""img"">
                            </div>
                        </div>",0,"",0,"",NA,"","images/map07_Purples_scaleDef_orientMir_090.png","disgust",1,7,7,"Purples","orientMir","scaleDef","090",NA,NA
"","","","","","html-slider-response",55,206068,"0.0-43.0","s6n3h35zk2",9,NA,"<div style=""width:500px;"">
                            <p style=""font-size:50px; font-weight:bold;""
                            >disgust</p>
                            <div style=""width:240px; margin: auto;"">
                                <img src=""images/map10_Blues_scaleRev_orientDef_000.png"" style= ""width:200px""alt=""img"">
                            </div>
                        </div>",0,"",0,"",NA,"","images/map10_Blues_scaleRev_orientDef_000.png","disgust",1,10,10,"Blues","orientDef","scaleRev","000",NA,NA
"","","","","","html-slider-response",56,207767,"0.0-44.0","s6n3h35zk2",9,NA,"<div style=""width:500px;"">
                            <p style=""font-size:50px; font-weight:bold;""
                            >disgust</p>
                            <div style=""width:240px; margin: auto;"">
                                <img src=""images/map02_managua_scaleDef_orientDef_090.png"" style= ""width:200px""alt=""img"">
                            </div>
                        </div>",0.81,"",0,"",NA,"","images/map02_managua_scaleDef_orientDef_090.png","disgust",1,2,2,"managua","orientDef","scaleDef","090",NA,NA
"","","","","","html-slider-response",57,209269,"0.0-45.0","s6n3h35zk2",9,NA,"<div style=""width:500px;"">
                            <p style=""font-size:50px; font-weight:bold;""
                            >disgust</p>
                            <div style=""width:240px; margin: auto;"">
                                <img src=""images/map15_BuGn_scaleRev_orientMir_000.png"" style= ""width:200px""alt=""img"">
                            </div>
                        </div>",1,"",0,"",NA,"","images/map15_BuGn_scaleRev_orientMir_000.png","disgust",1,15,15,"BuGn","orientMir","scaleRev","000",NA,NA
"","","","","","html-slider-response",58,211406,"0.0-46.0","s6n3h35zk2",9,NA,"<div style=""width:500px;"">
                            <p style=""font-size:50px; font-weight:bold;""
                            >disgust</p>
                            <div style=""width:240px; margin: auto;"">
                                <img src=""images/map05_inferno_scaleDef_orientMir_090.png"" style= ""width:200px""alt=""img"">
                            </div>
                        </div>",0.8425,"",0,"",NA,"","images/map05_inferno_scaleDef_orientMir_090.png","disgust",1,5,5,"inferno","orientMir","scaleDef","090",NA,NA
"","","","","","html-slider-response",59,213110,"0.0-47.0","s6n3h35zk2",9,NA,"<div style=""width:500px;"">
                            <p style=""font-size:50px; font-weight:bold;""
                            >disgust</p>
                            <div style=""width:240px; margin: auto;"">
                                <img src=""images/map05_turbo_scaleRev_orientDef_000.png"" style= ""width:200px""alt=""img"">
                            </div>
                        </div>",0.8575,"",0,"",NA,"","images/map05_turbo_scaleRev_orientDef_000.png","disgust",1,5,5,"turbo","orientDef","scaleRev","000",NA,NA
"","","","","","html-slider-response",60,214871,"0.0-48.0","s6n3h35zk2",9,NA,"<div style=""width:500px;"">
                            <p style=""font-size:50px; font-weight:bold;""
                            >disgust</p>
                            <div style=""width:240px; margin: auto;"">
                                <img src=""images/map10_Greens_scaleRev_orientDef_180.png"" style= ""width:200px""alt=""img"">
                            </div>
                        </div>",1,"",0,"",NA,"","images/map10_Greens_scaleRev_orientDef_180.png","disgust",1,10,10,"Greens","orientDef","scaleRev","180",NA,NA
"","","","","","html-slider-response",61,216489,"0.0-49.0","s6n3h35zk2",9,NA,"<div style=""width:500px;"">
                            <p style=""font-size:50px; font-weight:bold;""
                            >disgust</p>
                            <div style=""width:240px; margin: auto;"">
                                <img src=""images/map23_BrBG_scaleDef_orientDef_270.png"" style= ""width:200px""alt=""img"">
                            </div>
                        </div>",0.825,"",0,"",NA,"","images/map23_BrBG_scaleDef_orientDef_270.png","disgust",1,23,23,"BrBG","orientDef","scaleDef","270",NA,NA
"","","","","","html-slider-response",62,218588,"0.0-50.0","s6n3h35zk2",9,NA,"<div style=""width:500px;"">
                            <p style=""font-size:50px; font-weight:bold;""
                            >disgust</p>
                            <div style=""width:240px; margin: auto;"">
                                <img src=""images/map13_RdPu_scaleRev_orientDef_000.png"" style= ""width:200px""alt=""img"">
                            </div>
                        </div>",0,"",0,"",NA,"","images/map13_RdPu_scaleRev_orientDef_000.png","disgust",1,13,13,"RdPu","orientDef","scaleRev","000",NA,NA
"","","","","","html-slider-response",63,220713,"0.0-51.0","s6n3h35zk2",9,NA,"<div style=""width:500px;"">
                            <p style=""font-size:50px; font-weight:bold;""
                            >disgust</p>
                            <div style=""width:240px; margin: auto;"">
                                <img src=""images/map23_PRGn_scaleRev_orientDef_180.png"" style= ""width:200px""alt=""img"">
                            </div>
                        </div>",0.86,"",0,"",NA,"","images/map23_PRGn_scaleRev_orientDef_180.png","disgust",1,23,23,"PRGn","orientDef","scaleRev","180",NA,NA
"","","","","","html-slider-response",64,222846,"0.0-52.0","s6n3h35zk2",9,NA,"<div style=""width:500px;"">
                            <p style=""font-size:50px; font-weight:bold;""
                            >disgust</p>
                            <div style=""width:240px; margin: auto;"">
                                <img src=""images/map10_Greens_scaleDef_orientDef_090.png"" style= ""width:200px""alt=""img"">
                            </div>
                        </div>",0,"",0,"",NA,"","images/map10_Greens_scaleDef_orientDef_090.png","disgust",1,10,10,"Greens","orientDef","scaleDef","090",NA,NA
"","","","","","html-slider-response",65,227667,"0.0-53.0","s6n3h35zk2",9,NA,"<div style=""width:500px;"">
                            <p style=""font-size:50px; font-weight:bold;""
                            >disgust</p>
                            <div style=""width:240px; margin: auto;"">
                                <img src=""images/map02_turbo_scaleDef_orientMir_270.png"" style= ""width:200px""alt=""img"">
                            </div>
                        </div>",0.6825,"",0,"",NA,"","images/map02_turbo_scaleDef_orientMir_270.png","disgust",1,2,2,"turbo","orientMir","scaleDef","270",NA,NA
"","","","","","html-button-response",66,231995,"0.0-54.0","s6n3h35zk2",9,3826,"<p>You are doing great!<br></br> You are halway done with the current block. When you are ready to continue, click the 'Continue' button.</p>",0.5,"",NA,"",NA,"","","",NA,NA,NA,"","","","",NA,NA
"","","","","","html-slider-response",67,237302,"0.0-55.0","s6n3h35zk2",9,NA,"<div style=""width:500px;"">
                            <p style=""font-size:50px; font-weight:bold;""
                            >disgust</p>
                            <div style=""width:240px; margin: auto;"">
                                <img src=""images/map26_Spectral_scaleDef_orientMir_270.png"" style= ""width:200px""alt=""img"">
                            </div>
                        </div>",0.625,"",0,"",NA,"","images/map26_Spectral_scaleDef_orientMir_270.png","disgust",1,26,26,"Spectral","orientMir","scaleDef","270",NA,NA
"","","","","","html-slider-response",68,238713,"0.0-56.0","s6n3h35zk2",9,NA,"<div style=""width:500px;"">
                            <p style=""font-size:50px; font-weight:bold;""
                            >disgust</p>
                            <div style=""width:240px; margin: auto;"">
                                <img src=""images/map02_gist_earth_scaleDef_orientMir_090.png"" style= ""width:200px""alt=""img"">
                            </div>
                        </div>",1,"",0,"",NA,"","images/map02_gist_earth_scaleDef_orientMir_090.png","disgust",1,2,2,"gist","scaleDef","earth","orientMir",NA,NA
"","","","","","html-slider-response",69,240589,"0.0-57.0","s6n3h35zk2",9,NA,"<div style=""width:500px;"">
                            <p style=""font-size:50px; font-weight:bold;""
                            >disgust</p>
                            <div style=""width:240px; margin: auto;"">
                                <img src=""images/map12_PuRd_scaleRev_orientMir_180.png"" style= ""width:200px""alt=""img"">
                            </div>
                        </div>",0,"",0,"",NA,"","images/map12_PuRd_scaleRev_orientMir_180.png","disgust",1,12,12,"PuRd","orientMir","scaleRev","180",NA,NA
"","","","","","html-slider-response",70,242296,"0.0-58.0","s6n3h35zk2",9,NA,"<div style=""width:500px;"">
                            <p style=""font-size:50px; font-weight:bold;""
                            >disgust</p>
                            <div style=""width:240px; margin: auto;"">
                                <img src=""images/map10_Oranges_scaleRev_orientMir_000.png"" style= ""width:200px""alt=""img"">
                            </div>
                        </div>",0.645,"",0,"",NA,"","images/map10_Oranges_scaleRev_orientMir_000.png","disgust",1,10,10,"Oranges","orientMir","scaleRev","000",NA,NA
"","","","","","html-slider-response",71,244034,"0.0-59.0","s6n3h35zk2",9,NA,"<div style=""width:500px;"">
                            <p style=""font-size:50px; font-weight:bold;""
                            >disgust</p>
                            <div style=""width:240px; margin: auto;"">
                                <img src=""images/map26_RdYlBu_scaleRev_orientMir_000.png"" style= ""width:200px""alt=""img"">
                            </div>
                        </div>",0.675,"",0,"",NA,"","images/map26_RdYlBu_scaleRev_orientMir_000.png","disgust",1,26,26,"RdYlBu","orientMir","scaleRev","000",NA,NA
"","","","","","html-slider-response",72,245538,"0.0-60.0","s6n3h35zk2",9,NA,"<div style=""width:500px;"">
                            <p style=""font-size:50px; font-weight:bold;""
                            >disgust</p>
                            <div style=""width:240px; margin: auto;"">
                                <img src=""images/map12_YlOrRd_scaleRev_orientDef_180.png"" style= ""width:200px""alt=""img"">
                            </div>
                        </div>",0.6525,"",0,"",NA,"","images/map12_YlOrRd_scaleRev_orientDef_180.png","disgust",1,12,12,"YlOrRd","orientDef","scaleRev","180",NA,NA
"","","","","","html-slider-response",73,247200,"0.0-61.0","s6n3h35zk2",9,NA,"<div style=""width:500px;"">
                            <p style=""font-size:50px; font-weight:bold;""
                            >disgust</p>
                            <div style=""width:240px; margin: auto;"">
                                <img src=""images/map10_Reds_scaleDef_orientMir_090.png"" style= ""width:200px""alt=""img"">
                            </div>
                        </div>",0.105,"",0,"",NA,"","images/map10_Reds_scaleDef_orientMir_090.png","disgust",1,10,10,"Reds","orientMir","scaleDef","090",NA,NA
"","","","","","html-slider-response",74,248647,"0.0-62.0","s6n3h35zk2",9,NA,"<div style=""width:500px;"">
                            <p style=""font-size:50px; font-weight:bold;""
                            >disgust</p>
                            <div style=""width:240px; margin: auto;"">
                                <img src=""images/map15_BuGn_scaleDef_orientDef_270.png"" style= ""width:200px""alt=""img"">
                            </div>
                        </div>",1,"",0,"",NA,"","images/map15_BuGn_scaleDef_orientDef_270.png","disgust",1,15,15,"BuGn","orientDef","scaleDef","270",NA,NA
"","","","","","html-slider-response",75,250177,"0.0-63.0","s6n3h35zk2",9,NA,"<div style=""width:500px;"">
                            <p style=""font-size:50px; font-weight:bold;""
                            >disgust</p>
                            <div style=""width:240px; margin: auto;"">
                                <img src=""images/map15_YlGn_scaleDef_orientMir_090.png"" style= ""width:200px""alt=""img"">
                            </div>
                        </div>",1,"",0,"",NA,"","images/map15_YlGn_scaleDef_orientMir_090.png","disgust",1,15,15,"YlGn","orientMir","scaleDef","090",NA,NA
"","","","","","html-slider-response",76,251938,"0.0-64.0","s6n3h35zk2",9,NA,"<div style=""width:500px;"">
                            <p style=""font-size:50px; font-weight:bold;""
                            >disgust</p>
                            <div style=""width:240px; margin: auto;"">
                                <img src=""images/map12_OrRd_scaleDef_orientDef_270.png"" style= ""width:200px""alt=""img"">
                            </div>
                        </div>",0.72,"",0,"",NA,"","images/map12_OrRd_scaleDef_orientDef_270.png","disgust",1,12,12,"OrRd","orientDef","scaleDef","270",NA,NA
"","","","","","html-slider-response",77,253418,"0.0-65.0","s6n3h35zk2",9,NA,"<div style=""width:500px;"">
                            <p style=""font-size:50px; font-weight:bold;""
                            >disgust</p>
                            <div style=""width:240px; margin: auto;"">
                                <img src=""images/map05_inferno_scaleRev_orientMir_180.png"" style= ""width:200px""alt=""img"">
                            </div>
                        </div>",1,"",0,"",NA,"","images/map05_inferno_scaleRev_orientMir_180.png","disgust",1,5,5,"inferno","orientMir","scaleRev","180",NA,NA
"","","","","","html-slider-response",78,255463,"0.0-66.0","s6n3h35zk2",9,NA,"<div style=""width:500px;"">
                            <p style=""font-size:50px; font-weight:bold;""
                            >disgust</p>
                            <div style=""width:240px; margin: auto;"">
                                <img src=""images/map26_RdBu_scaleRev_orientDef_180.png"" style= ""width:200px""alt=""img"">
                            </div>
                        </div>",0.2775,"",0,"",NA,"","images/map26_RdBu_scaleRev_orientDef_180.png","disgust",1,26,26,"RdBu","orientDef","scaleRev","180",NA,NA
"","","","","","html-slider-response",79,257339,"0.0-67.0","s6n3h35zk2",9,NA,"<div style=""width:500px;"">
                            <p style=""font-size:50px; font-weight:bold;""
                            >disgust</p>
                            <div style=""width:240px; margin: auto;"">
                                <img src=""images/map27_Spectral_scaleRev_orientDef_000.png"" style= ""width:200px""alt=""img"">
                            </div>
                        </div>",0.675,"",0,"",NA,"","images/map27_Spectral_scaleRev_orientDef_000.png","disgust",1,27,27,"Spectral","orientDef","scaleRev","000",NA,NA
"","","","","","html-slider-response",80,259188,"0.0-68.0","s6n3h35zk2",9,NA,"<div style=""width:500px;"">
                            <p style=""font-size:50px; font-weight:bold;""
                            >disgust</p>
                            <div style=""width:240px; margin: auto;"">
                                <img src=""images/map05_magma_scaleDef_orientMir_270.png"" style= ""width:200px""alt=""img"">
                            </div>
                        </div>",0.5975,"",0,"",NA,"","images/map05_magma_scaleDef_orientMir_270.png","disgust",1,5,5,"magma","orientMir","scaleDef","270",NA,NA
"","","","","","html-slider-response",81,260658,"0.0-69.0","s6n3h35zk2",9,NA,"<div style=""width:500px;"">
                            <p style=""font-size:50px; font-weight:bold;""
                            >disgust</p>
                            <div style=""width:240px; margin: auto;"">
                                <img src=""images/map10_YlOrBr_scaleDef_orientMir_270.png"" style= ""width:200px""alt=""img"">
                            </div>
                        </div>",1,"",0,"",NA,"","images/map10_YlOrBr_scaleDef_orientMir_270.png","disgust",1,10,10,"YlOrBr","orientMir","scaleDef","270",NA,NA
"","","","","","html-slider-response",82,262438,"0.0-70.0","s6n3h35zk2",9,NA,"<div style=""width:500px;"">
                            <p style=""font-size:50px; font-weight:bold;""
                            >disgust</p>
                            <div style=""width:240px; margin: auto;"">
                                <img src=""images/map26_RdBu_scaleDef_orientDef_090.png"" style= ""width:200px""alt=""img"">
                            </div>
                        </div>",0.37,"",0,"",NA,"","images/map26_RdBu_scaleDef_orientDef_090.png","disgust",1,26,26,"RdBu","orientDef","scaleDef","090",NA,NA
"","","","","","html-slider-response",83,264193,"0.0-71.0","s6n3h35zk2",9,NA,"<div style=""width:500px;"">
                            <p style=""font-size:50px; font-weight:bold;""
                            >disgust</p>
                            <div style=""width:240px; margin: auto;"">
                                <img src=""images/map13_BuPu_scaleRev_orientDef_180.png"" style= ""width:200px""alt=""img"">
                            </div>
                        </div>",0,"",0,"",NA,"","images/map13_BuPu_scaleRev_orientDef_180.png","disgust",1,13,13,"BuPu","orientDef","scaleRev","180",NA,NA
"","","","","","html-slider-response",84,265708,"0.0-72.0","s6n3h35zk2",9,NA,"<div style=""width:500px;"">
                            <p style=""font-size:50px; font-weight:bold;""
                            >disgust</p>
                            <div style=""width:240px; margin: auto;"">
                                <img src=""images/map05_viridis_scaleRev_orientDef_180.png"" style= ""width:200px""alt=""img"">
                            </div>
                        </div>",1,"",0,"",NA,"","images/map05_viridis_scaleRev_orientDef_180.png","disgust",1,5,5,"viridis","orientDef","scaleRev","180",NA,NA
"","","","","","html-slider-response",85,267858,"0.0-73.0","s6n3h35zk2",9,NA,"<div style=""width:500px;"">
                            <p style=""font-size:50px; font-weight:bold;""
                            >disgust</p>
                            <div style=""width:240px; margin: auto;"">
                                <img src=""images/map12_YlOrRd_scaleDef_orientDef_090.png"" style= ""width:200px""alt=""img"">
                            </div>
                        </div>",0.6425,"",0,"",NA,"","images/map12_YlOrRd_scaleDef_orientDef_090.png","disgust",1,12,12,"YlOrRd","orientDef","scaleDef","090",NA,NA
"","","","","","html-slider-response",86,269396,"0.0-74.0","s6n3h35zk2",9,NA,"<div style=""width:500px;"">
                            <p style=""font-size:50px; font-weight:bold;""
                            >disgust</p>
                            <div style=""width:240px; margin: auto;"">
                                <img src=""images/map12_YlOrBr_scaleRev_orientDef_000.png"" style= ""width:200px""alt=""img"">
                            </div>
                        </div>",0.6375,"",0,"",NA,"","images/map12_YlOrBr_scaleRev_orientDef_000.png","disgust",1,12,12,"YlOrBr","orientDef","scaleRev","000",NA,NA
"","","","","","html-slider-response",87,272225,"0.0-75.0","s6n3h35zk2",9,NA,"<div style=""width:500px;"">
                            <p style=""font-size:50px; font-weight:bold;""
                            >disgust</p>
                            <div style=""width:240px; margin: auto;"">
                                <img src=""images/map23_PuOr_scaleDef_orientMir_090.png"" style= ""width:200px""alt=""img"">
                            </div>
                        </div>",0.915,"",0,"",NA,"","images/map23_PuOr_scaleDef_orientMir_090.png","disgust",1,23,23,"PuOr","orientMir","scaleDef","090",NA,NA
"","","","","","html-slider-response",88,273888,"0.0-76.0","s6n3h35zk2",9,NA,"<div style=""width:500px;"">
                            <p style=""font-size:50px; font-weight:bold;""
                            >disgust</p>
                            <div style=""width:240px; margin: auto;"">
                                <img src=""images/map27_berlin_scaleDef_orientMir_270.png"" style= ""width:200px""alt=""img"">
                            </div>
                        </div>",1,"",0,"",NA,"","images/map27_berlin_scaleDef_orientMir_270.png","disgust",1,27,27,"berlin","orientMir","scaleDef","270",NA,NA
"","","","","","html-slider-response",89,276038,"0.0-77.0","s6n3h35zk2",9,NA,"<div style=""width:500px;"">
                            <p style=""font-size:50px; font-weight:bold;""
                            >disgust</p>
                            <div style=""width:240px; margin: auto;"">
                                <img src=""images/map07_Purples_scaleRev_orientMir_180.png"" style= ""width:200px""alt=""img"">
                            </div>
                        </div>",0.1125,"",0,"",NA,"","images/map07_Purples_scaleRev_orientMir_180.png","disgust",1,7,7,"Purples","orientMir","scaleRev","180",NA,NA
"","","","","","html-slider-response",90,277472,"0.0-78.0","s6n3h35zk2",9,NA,"<div style=""width:500px;"">
                            <p style=""font-size:50px; font-weight:bold;""
                            >disgust</p>
                            <div style=""width:240px; margin: auto;"">
                                <img src=""images/map27_seismic_scaleRev_orientMir_180.png"" style= ""width:200px""alt=""img"">
                            </div>
                        </div>",1,"",0,"",NA,"","images/map27_seismic_scaleRev_orientMir_180.png","disgust",1,27,27,"seismic","orientMir","scaleRev","180",NA,NA
"","","","","","html-slider-response",91,278963,"0.0-79.0","s6n3h35zk2",9,NA,"<div style=""width:500px;"">
                            <p style=""font-size:50px; font-weight:bold;""
                            >disgust</p>
                            <div style=""width:240px; margin: auto;"">
                                <img src=""images/map27_seismic_scaleDef_orientMir_090.png"" style= ""width:200px""alt=""img"">
                            </div>
                        </div>",1,"",0,"",NA,"","images/map27_seismic_scaleDef_orientMir_090.png","disgust",1,27,27,"seismic","orientMir","scaleDef","090",NA,NA
"","","","","","html-slider-response",92,280451,"0.0-80.0","s6n3h35zk2",9,NA,"<div style=""width:500px;"">
                            <p style=""font-size:50px; font-weight:bold;""
                            >disgust</p>
                            <div style=""width:240px; margin: auto;"">
                                <img src=""images/map05_plasma_scaleRev_orientMir_000.png"" style= ""width:200px""alt=""img"">
                            </div>
                        </div>",1,"",0,"",NA,"","images/map05_plasma_scaleRev_orientMir_000.png","disgust",1,5,5,"plasma","orientMir","scaleRev","000",NA,NA
"","","","","","html-slider-response",93,281911,"0.0-81.0","s6n3h35zk2",9,NA,"<div style=""width:500px;"">
                            <p style=""font-size:50px; font-weight:bold;""
                            >disgust</p>
                            <div style=""width:240px; margin: auto;"">
                                <img src=""images/map07_magma_scaleRev_orientDef_000.png"" style= ""width:200px""alt=""img"">
                            </div>
                        </div>",1,"",0,"",NA,"","images/map07_magma_scaleRev_orientDef_000.png","disgust",1,7,7,"magma","orientDef","scaleRev","000",NA,NA
"","","","","","html-slider-response",94,283388,"0.0-82.0","s6n3h35zk2",9,NA,"<div style=""width:500px;"">
                            <p style=""font-size:50px; font-weight:bold;""
                            >disgust</p>
                            <div style=""width:240px; margin: auto;"">
                                <img src=""images/map23_PiYG_scaleRev_orientDef_000.png"" style= ""width:200px""alt=""img"">
                            </div>
                        </div>",1,"",0,"",NA,"","images/map23_PiYG_scaleRev_orientDef_000.png","disgust",1,23,23,"PiYG","orientDef","scaleRev","000",NA,NA
"","","","","","html-slider-response",95,285529,"0.0-83.0","s6n3h35zk2",9,NA,"<div style=""width:500px;"">
                            <p style=""font-size:50px; font-weight:bold;""
                            >disgust</p>
                            <div style=""width:240px; margin: auto;"">
                                <img src=""images/map15_PuBuGn_scaleRev_orientDef_180.png"" style= ""width:200px""alt=""img"">
                            </div>
                        </div>",0.085,"",0,"",NA,"","images/map15_PuBuGn_scaleRev_orientDef_180.png","disgust",1,15,15,"PuBuGn","orientDef","scaleRev","180",NA,NA
"","","","","","html-slider-response",96,287121,"0.0-84.0","s6n3h35zk2",9,NA,"<div style=""width:500px;"">
                            <p style=""font-size:50px; font-weight:bold;""
                            >disgust</p>
                            <div style=""width:240px; margin: auto;"">
                                <img src=""images/map07_cividis_scaleDef_orientDef_090.png"" style= ""width:200px""alt=""img"">
                            </div>
                        </div>",1,"",0,"",NA,"","images/map07_cividis_scaleDef_orientDef_090.png","disgust",1,7,7,"cividis","orientDef","scaleDef","090",NA,NA
"","","","","","html-slider-response",97,288767,"0.0-85.0","s6n3h35zk2",9,NA,"<div style=""width:500px;"">
                            <p style=""font-size:50px; font-weight:bold;""
                            >disgust</p>
                            <div style=""width:240px; margin: auto;"">
                                <img src=""images/map26_RdYlGn_scaleRev_orientMir_180.png"" style= ""width:200px""alt=""img"">
                            </div>
                        </div>",1,"",0,"",NA,"","images/map26_RdYlGn_scaleRev_orientMir_180.png","disgust",1,26,26,"RdYlGn","orientMir","scaleRev","180",NA,NA
"","","","","","html-slider-response",98,290371,"0.0-86.0","s6n3h35zk2",9,NA,"<div style=""width:500px;"">
                            <p style=""font-size:50px; font-weight:bold;""
                            >disgust</p>
                            <div style=""width:240px; margin: auto;"">
                                <img src=""images/map13_PuBu_scaleDef_orientMir_090.png"" style= ""width:200px""alt=""img"">
                            </div>
                        </div>",0,"",0,"",NA,"","images/map13_PuBu_scaleDef_orientMir_090.png","disgust",1,13,13,"PuBu","orientMir","scaleDef","090",NA,NA
"","","","","","html-slider-response",99,291791,"0.0-87.0","s6n3h35zk2",9,NA,"<div style=""width:500px;"">
                            <p style=""font-size:50px; font-weight:bold;""
                            >disgust</p>
                            <div style=""width:240px; margin: auto;"">
                                <img src=""images/map02_vanimo_scaleRev_orientMir_000.png"" style= ""width:200px""alt=""img"">
                            </div>
                        </div>",1,"",0,"",NA,"","images/map02_vanimo_scaleRev_orientMir_000.png","disgust",1,2,2,"vanimo","orientMir","scaleRev","000",NA,NA
"","","","","","html-slider-response",100,294603,"0.0-88.0","s6n3h35zk2",9,NA,"<div style=""width:500px;"">
                            <p style=""font-size:50px; font-weight:bold;""
                            >disgust</p>
                            <div style=""width:240px; margin: auto;"">
                                <img src=""images/map15_PuBuGn_scaleDef_orientDef_090.png"" style= ""width:200px""alt=""img"">
                            </div>
                        </div>",0.285,"",0,"",NA,"","images/map15_PuBuGn_scaleDef_orientDef_090.png","disgust",1,15,15,"PuBuGn","orientDef","scaleDef","090",NA,NA
"","","","","","html-slider-response",101,296383,"0.0-89.0","s6n3h35zk2",9,NA,"<div style=""width:500px;"">
                            <p style=""font-size:50px; font-weight:bold;""
                            >disgust</p>
                            <div style=""width:240px; margin: auto;"">
                                <img src=""images/map12_RdPu_scaleDef_orientMir_270.png"" style= ""width:200px""alt=""img"">
                            </div>
                        </div>",0,"",0,"",NA,"","images/map12_RdPu_scaleDef_orientMir_270.png","disgust",1,12,12,"RdPu","orientMir","scaleDef","270",NA,NA
"","","","","","html-slider-response",102,298227,"0.0-90.0","s6n3h35zk2",9,NA,"<div style=""width:500px;"">
                            <p style=""font-size:50px; font-weight:bold;""
                            >disgust</p>
                            <div style=""width:240px; margin: auto;"">
                                <img src=""images/map15_PiYG_scaleDef_orientMir_270.png"" style= ""width:200px""alt=""img"">
                            </div>
                        </div>",0.665,"",0,"",NA,"","images/map15_PiYG_scaleDef_orientMir_270.png","disgust",1,15,15,"PiYG","orientMir","scaleDef","270",NA,NA
"","","","","","html-slider-response",103,300045,"0.0-91.0","s6n3h35zk2",9,NA,"<div style=""width:500px;"">
                            <p style=""font-size:50px; font-weight:bold;""
                            >disgust</p>
                            <div style=""width:240px; margin: auto;"">
                                <img src=""images/map13_BuPu_scaleDef_orientDef_090.png"" style= ""width:200px""alt=""img"">
                            </div>
                        </div>",0,"",0,"",NA,"","images/map13_BuPu_scaleDef_orientDef_090.png","disgust",1,13,13,"BuPu","orientDef","scaleDef","090",NA,NA
"","","","","","html-slider-response",104,301363,"0.0-92.0","s6n3h35zk2",9,NA,"<div style=""width:500px;"">
                            <p style=""font-size:50px; font-weight:bold;""
                            >disgust</p>
                            <div style=""width:240px; margin: auto;"">
                                <img src=""images/map15_YlGn_scaleRev_orientMir_180.png"" style= ""width:200px""alt=""img"">
                            </div>
                        </div>",1,"",0,"",NA,"","images/map15_YlGn_scaleRev_orientMir_180.png","disgust",1,15,15,"YlGn","orientMir","scaleRev","180",NA,NA
"","","","","","html-slider-response",105,302988,"0.0-93.0","s6n3h35zk2",9,NA,"<div style=""width:500px;"">
                            <p style=""font-size:50px; font-weight:bold;""
                            >disgust</p>
                            <div style=""width:240px; margin: auto;"">
                                <img src=""images/map15_YlGnBu_scaleRev_orientDef_000.png"" style= ""width:200px""alt=""img"">
                            </div>
                        </div>",0.335,"",0,"",NA,"","images/map15_YlGnBu_scaleRev_orientDef_000.png","disgust",1,15,15,"YlGnBu","orientDef","scaleRev","000",NA,NA
"","","","","","html-slider-response",106,304417,"0.0-94.0","s6n3h35zk2",9,NA,"<div style=""width:500px;"">
                            <p style=""font-size:50px; font-weight:bold;""
                            >disgust</p>
                            <div style=""width:240px; margin: auto;"">
                                <img src=""images/map13_PuBu_scaleRev_orientMir_180.png"" style= ""width:200px""alt=""img"">
                            </div>
                        </div>",0,"",0,"",NA,"","images/map13_PuBu_scaleRev_orientMir_180.png","disgust",1,13,13,"PuBu","orientMir","scaleRev","180",NA,NA
"","","","","","html-button-response",107,306489,"0.0-95.0","s6n3h35zk2",9,1572,"<p>Great Job! You've finished block 1.<br></br> You have 4 block(s) left to go.<br></br></p>",0.5,"",NA,"",NA,"","","",NA,NA,NA,"","","","",NA,NA
"","","","","","html-button-response",108,307795,"0.0-96.0","s6n3h35zk2",9,1305,"<p>In this block of trials, you will be asked to rate how much you associate each map with:</p > <p style = 'font-size:150%; font-weight: bold'>happy</p><br></br>",0.5,"",NA,"",NA,"","","",NA,NA,NA,"","","","",NA,NA
"","","","","","html-slider-response",109,310801,"0.0-97.0","s6n3h35zk2",9,NA,"<div style=""width:500px;"">
                            <p style=""font-size:50px; font-weight:bold;""
                            >happy</p>
                            <div style=""width:240px; margin: auto;"">
                                <img src=""images/map15_PuBuGn_scaleDef_orientDef_090.png"" style= ""width:200px""alt=""img"">
                            </div>
                        </div>",0,"",0,"",NA,"","images/map15_PuBuGn_scaleDef_orientDef_090.png","happy",1,15,15,"PuBuGn","orientDef","scaleDef","090",NA,NA
"","","","","","html-slider-response",110,313448,"0.0-98.0","s6n3h35zk2",9,NA,"<div style=""width:500px;"">
                            <p style=""font-size:50px; font-weight:bold;""
                            >happy</p>
                            <div style=""width:240px; margin: auto;"">
                                <img src=""images/map07_Greys_scaleRev_orientMir_000.png"" style= ""width:200px""alt=""img"">
                            </div>
                        </div>",0,"",0,"",NA,"","images/map07_Greys_scaleRev_orientMir_000.png","happy",1,7,7,"Greys","orientMir","scaleRev","000",NA,NA
"","","","","","html-slider-response",111,316469,"0.0-99.0","s6n3h35zk2",9,NA,"<div style=""width:500px;"">
                            <p style=""font-size:50px; font-weight:bold;""
                            >happy</p>
                            <div style=""width:240px; margin: auto;"">
                                <img src=""images/map05_turbo_scaleRev_orientDef_000.png"" style= ""width:200px""alt=""img"">
                            </div>
                        </div>",0.575,"",0,"",NA,"","images/map05_turbo_scaleRev_orientDef_000.png","happy",1,5,5,"turbo","orientDef","scaleRev","000",NA,NA
"","","","","","html-slider-response",112,318212,"0.0-100.0","s6n3h35zk2",9,NA,"<div style=""width:500px;"">
                            <p style=""font-size:50px; font-weight:bold;""
                            >happy</p>
                            <div style=""width:240px; margin: auto;"">
                                <img src=""images/map27_coolwarm_scaleRev_orientDef_180.png"" style= ""width:200px""alt=""img"">
                            </div>
                        </div>",0.9925,"",0,"",NA,"","images/map27_coolwarm_scaleRev_orientDef_180.png","happy",1,27,27,"coolwarm","orientDef","scaleRev","180",NA,NA
"","","","","","html-slider-response",113,319967,"0.0-101.0","s6n3h35zk2",9,NA,"<div style=""width:500px;"">
                            <p style=""font-size:50px; font-weight:bold;""
                            >happy</p>
                            <div style=""width:240px; margin: auto;"">
                                <img src=""images/map12_PuRd_scaleDef_orientMir_090.png"" style= ""width:200px""alt=""img"">
                            </div>
                        </div>",1,"",0,"",NA,"","images/map12_PuRd_scaleDef_orientMir_090.png","happy",1,12,12,"PuRd","orientMir","scaleDef","090",NA,NA
"","","","","","html-slider-response",114,321821,"0.0-102.0","s6n3h35zk2",9,NA,"<div style=""width:500px;"">
                            <p style=""font-size:50px; font-weight:bold;""
                            >happy</p>
                            <div style=""width:240px; margin: auto;"">
                                <img src=""images/map02_berlin_scaleRev_orientDef_000.png"" style= ""width:200px""alt=""img"">
                            </div>
                        </div>",0,"",0,"",NA,"","images/map02_berlin_scaleRev_orientDef_000.png","happy",1,2,2,"berlin","orientDef","scaleRev","000",NA,NA
"","","","","","html-slider-response",115,325055,"0.0-103.0","s6n3h35zk2",9,NA,"<div style=""width:500px;"">
                            <p style=""font-size:50px; font-weight:bold;""
                            >happy</p>
                            <div style=""width:240px; margin: auto;"">
                                <img src=""images/map12_OrRd_scaleRev_orientMir_000.png"" style= ""width:200px""alt=""img"">
                            </div>
                        </div>",0.505,"",0,"",NA,"","images/map12_OrRd_scaleRev_orientMir_000.png","happy",1,12,12,"OrRd","orientMir","scaleRev","000",NA,NA
"","","","","","html-slider-response",116,328196,"0.0-104.0","s6n3h35zk2",9,NA,"<div style=""width:500px;"">
                            <p style=""font-size:50px; font-weight:bold;""
                            >happy</p>
                            <div style=""width:240px; margin: auto;"">
                                <img src=""images/map02_turbo_scaleDef_orientMir_270.png"" style= ""width:200px""alt=""img"">
                            </div>
                        </div>",0.51,"",0,"",NA,"","images/map02_turbo_scaleDef_orientMir_270.png","happy",1,2,2,"turbo","orientMir","scaleDef","270",NA,NA
"","","","","","html-slider-response",117,330217,"0.0-105.0","s6n3h35zk2",9,NA,"<div style=""width:500px;"">
                            <p style=""font-size:50px; font-weight:bold;""
                            >happy</p>
                            <div style=""width:240px; margin: auto;"">
                                <img src=""images/map15_BuGn_scaleRev_orientMir_000.png"" style= ""width:200px""alt=""img"">
                            </div>
                        </div>",0,"",0,"",NA,"","images/map15_BuGn_scaleRev_orientMir_000.png","happy",1,15,15,"BuGn","orientMir","scaleRev","000",NA,NA
"","","","","","html-slider-response",118,331868,"0.0-106.0","s6n3h35zk2",9,NA,"<div style=""width:500px;"">
                            <p style=""font-size:50px; font-weight:bold;""
                            >happy</p>
                            <div style=""width:240px; margin: auto;"">
                                <img src=""images/map10_Reds_scaleRev_orientMir_180.png"" style= ""width:200px""alt=""img"">
                            </div>
                        </div>",0,"",0,"",NA,"","images/map10_Reds_scaleRev_orientMir_180.png","happy",1,10,10,"Reds","orientMir","scaleRev","180",NA,NA
"","","","","","html-slider-response",119,333460,"0.0-107.0","s6n3h35zk2",9,NA,"<div style=""width:500px;"">
                            <p style=""font-size:50px; font-weight:bold;""
                            >happy</p>
                            <div style=""width:240px; margin: auto;"">
                                <img src=""images/map13_YlGnBu_scaleDef_orientMir_270.png"" style= ""width:200px""alt=""img"">
                            </div>
                        </div>",0.495,"",0,"",NA,"","images/map13_YlGnBu_scaleDef_orientMir_270.png","happy",1,13,13,"YlGnBu","orientMir","scaleDef","270",NA,NA
"","","","","","html-slider-response",120,334920,"0.0-108.0","s6n3h35zk2",9,NA,"<div style=""width:500px;"">
                            <p style=""font-size:50px; font-weight:bold;""
                            >happy</p>
                            <div style=""width:240px; margin: auto;"">
                                <img src=""images/map12_YlOrRd_scaleDef_orientDef_090.png"" style= ""width:200px""alt=""img"">
                            </div>
                        </div>",0,"",0,"",NA,"","images/map12_YlOrRd_scaleDef_orientDef_090.png","happy",1,12,12,"YlOrRd","orientDef","scaleDef","090",NA,NA
"","","","","","html-slider-response",121,336579,"0.0-109.0","s6n3h35zk2",9,NA,"<div style=""width:500px;"">
                            <p style=""font-size:50px; font-weight:bold;""
                            >happy</p>
                            <div style=""width:240px; margin: auto;"">
                                <img src=""images/map15_PiYG_scaleDef_orientMir_270.png"" style= ""width:200px""alt=""img"">
                            </div>
                        </div>",0,"",0,"",NA,"","images/map15_PiYG_scaleDef_orientMir_270.png","happy",1,15,15,"PiYG","orientMir","scaleDef","270",NA,NA
"","","","","","html-slider-response",122,338187,"0.0-110.0","s6n3h35zk2",9,NA,"<div style=""width:500px;"">
                            <p style=""font-size:50px; font-weight:bold;""
                            >happy</p>
                            <div style=""width:240px; margin: auto;"">
                                <img src=""images/map10_Greens_scaleDef_orientDef_090.png"" style= ""width:200px""alt=""img"">
                            </div>
                        </div>",0,"",0,"",NA,"","images/map10_Greens_scaleDef_orientDef_090.png","happy",1,10,10,"Greens","orientDef","scaleDef","090",NA,NA
"","","","","","html-slider-response",123,339587,"0.0-111.0","s6n3h35zk2",9,NA,"<div style=""width:500px;"">
                            <p style=""font-size:50px; font-weight:bold;""
                            >happy</p>
                            <div style=""width:240px; margin: auto;"">
                                <img src=""images/map07_cividis_scaleRev_orientDef_180.png"" style= ""width:200px""alt=""img"">
                            </div>
                        </div>",0,"",0,"",NA,"","images/map07_cividis_scaleRev_orientDef_180.png","happy",1,7,7,"cividis","orientDef","scaleRev","180",NA,NA
"","","","","","html-slider-response",124,341338,"0.0-112.0","s6n3h35zk2",9,NA,"<div style=""width:500px;"">
                            <p style=""font-size:50px; font-weight:bold;""
                            >happy</p>
                            <div style=""width:240px; margin: auto;"">
                                <img src=""images/map05_viridis_scaleRev_orientDef_180.png"" style= ""width:200px""alt=""img"">
                            </div>
                        </div>",0,"",0,"",NA,"","images/map05_viridis_scaleRev_orientDef_180.png","happy",1,5,5,"viridis","orientDef","scaleRev","180",NA,NA
"","","","","","html-slider-response",125,342842,"0.0-113.0","s6n3h35zk2",9,NA,"<div style=""width:500px;"">
                            <p style=""font-size:50px; font-weight:bold;""
                            >happy</p>
                            <div style=""width:240px; margin: auto;"">
                                <img src=""images/map02_vanimo_scaleRev_orientMir_000.png"" style= ""width:200px""alt=""img"">
                            </div>
                        </div>",0,"",0,"",NA,"","images/map02_vanimo_scaleRev_orientMir_000.png","happy",1,2,2,"vanimo","orientMir","scaleRev","000",NA,NA
"","","","","","html-slider-response",126,344442,"0.0-114.0","s6n3h35zk2",9,NA,"<div style=""width:500px;"">
                            <p style=""font-size:50px; font-weight:bold;""
                            >happy</p>
                            <div style=""width:240px; margin: auto;"">
                                <img src=""images/map02_managua_scaleRev_orientDef_180.png"" style= ""width:200px""alt=""img"">
                            </div>
                        </div>",0,"",0,"",NA,"","images/map02_managua_scaleRev_orientDef_180.png","happy",1,2,2,"managua","orientDef","scaleRev","180",NA,NA
"","","","","","html-slider-response",127,345899,"0.0-115.0","s6n3h35zk2",9,NA,"<div style=""width:500px;"">
                            <p style=""font-size:50px; font-weight:bold;""
                            >happy</p>
                            <div style=""width:240px; margin: auto;"">
                                <img src=""images/map13_BuPu_scaleDef_orientDef_090.png"" style= ""width:200px""alt=""img"">
                            </div>
                        </div>",0,"",0,"",NA,"","images/map13_BuPu_scaleDef_orientDef_090.png","happy",1,13,13,"BuPu","orientDef","scaleDef","090",NA,NA
"","","","","","html-slider-response",128,347508,"0.0-116.0","s6n3h35zk2",9,NA,"<div style=""width:500px;"">
                            <p style=""font-size:50px; font-weight:bold;""
                            >happy</p>
                            <div style=""width:240px; margin: auto;"">
                                <img src=""images/map02_gist_earth_scaleRev_orientMir_180.png"" style= ""width:200px""alt=""img"">
                            </div>
                        </div>",0,"",0,"",NA,"","images/map02_gist_earth_scaleRev_orientMir_180.png","happy",1,2,2,"gist","scaleRev","earth","orientMir",NA,NA
"","","","","","html-slider-response",129,349788,"0.0-117.0","s6n3h35zk2",9,NA,"<div style=""width:500px;"">
                            <p style=""font-size:50px; font-weight:bold;""
                            >happy</p>
                            <div style=""width:240px; margin: auto;"">
                                <img src=""images/map27_seismic_scaleRev_orientMir_180.png"" style= ""width:200px""alt=""img"">
                            </div>
                        </div>",0.675,"",0,"",NA,"","images/map27_seismic_scaleRev_orientMir_180.png","happy",1,27,27,"seismic","orientMir","scaleRev","180",NA,NA
"","","","","","html-slider-response",130,351412,"0.0-118.0","s6n3h35zk2",9,NA,"<div style=""width:500px;"">
                            <p style=""font-size:50px; font-weight:bold;""
                            >happy</p>
                            <div style=""width:240px; margin: auto;"">
                                <img src=""images/map05_inferno_scaleRev_orientMir_180.png"" style= ""width:200px""alt=""img"">
                            </div>
                        </div>",0,"",0,"",NA,"","images/map05_inferno_scaleRev_orientMir_180.png","happy",1,5,5,"inferno","orientMir","scaleRev","180",NA,NA
"","","","","","html-slider-response",131,356133,"0.0-119.0","s6n3h35zk2",9,NA,"<div style=""width:500px;"">
                            <p style=""font-size:50px; font-weight:bold;""
                            >happy</p>
                            <div style=""width:240px; margin: auto;"">
                                <img src=""images/map26_RdGy_scaleRev_orientDef_000.png"" style= ""width:200px""alt=""img"">
                            </div>
                        </div>",0,"",0,"",NA,"","images/map26_RdGy_scaleRev_orientDef_000.png","happy",1,26,26,"RdGy","orientDef","scaleRev","000",NA,NA
"","","","","","html-slider-response",132,358665,"0.0-120.0","s6n3h35zk2",9,NA,"<div style=""width:500px;"">
                            <p style=""font-size:50px; font-weight:bold;""
                            >happy</p>
                            <div style=""width:240px; margin: auto;"">
                                <img src=""images/map07_Blues_scaleDef_orientMir_270.png"" style= ""width:200px""alt=""img"">
                            </div>
                        </div>",0,"",0,"",NA,"","images/map07_Blues_scaleDef_orientMir_270.png","happy",1,7,7,"Blues","orientMir","scaleDef","270",NA,NA
"","","","","","html-slider-response",133,360991,"0.0-121.0","s6n3h35zk2",9,NA,"<div style=""width:500px;"">
                            <p style=""font-size:50px; font-weight:bold;""
                            >happy</p>
                            <div style=""width:240px; margin: auto;"">
                                <img src=""images/map10_Blues_scaleRev_orientDef_000.png"" style= ""width:200px""alt=""img"">
                            </div>
                        </div>",0.7325,"",0,"",NA,"","images/map10_Blues_scaleRev_orientDef_000.png","happy",1,10,10,"Blues","orientDef","scaleRev","000",NA,NA
"","","","","","html-slider-response",134,362620,"0.0-122.0","s6n3h35zk2",9,NA,"<div style=""width:500px;"">
                            <p style=""font-size:50px; font-weight:bold;""
                            >happy</p>
                            <div style=""width:240px; margin: auto;"">
                                <img src=""images/map05_plasma_scaleRev_orientMir_000.png"" style= ""width:200px""alt=""img"">
                            </div>
                        </div>",0.1025,"",0,"",NA,"","images/map05_plasma_scaleRev_orientMir_000.png","happy",1,5,5,"plasma","orientMir","scaleRev","000",NA,NA
"","","","","","html-slider-response",135,364418,"0.0-123.0","s6n3h35zk2",9,NA,"<div style=""width:500px;"">
                            <p style=""font-size:50px; font-weight:bold;""
                            >happy</p>
                            <div style=""width:240px; margin: auto;"">
                                <img src=""images/map07_cividis_scaleDef_orientDef_090.png"" style= ""width:200px""alt=""img"">
                            </div>
                        </div>",0,"",0,"",NA,"","images/map07_cividis_scaleDef_orientDef_090.png","happy",1,7,7,"cividis","orientDef","scaleDef","090",NA,NA
"","","","","","html-slider-response",136,366617,"0.0-124.0","s6n3h35zk2",9,NA,"<div style=""width:500px;"">
                            <p style=""font-size:50px; font-weight:bold;""
                            >happy</p>
                            <div style=""width:240px; margin: auto;"">
                                <img src=""images/map12_PuRd_scaleRev_orientMir_180.png"" style= ""width:200px""alt=""img"">
                            </div>
                        </div>",1,"",0,"",NA,"","images/map12_PuRd_scaleRev_orientMir_180.png","happy",1,12,12,"PuRd","orientMir","scaleRev","180",NA,NA
"","","","","","html-slider-response",137,368707,"0.0-125.0","s6n3h35zk2",9,NA,"<div style=""width:500px;"">
                            <p style=""font-size:50px; font-weight:bold;""
                            >happy</p>
                            <div style=""width:240px; margin: auto;"">
                                <img src=""images/map23_PRGn_scaleRev_orientDef_180.png"" style= ""width:200px""alt=""img"">
                            </div>
                        </div>",0.195,"",0,"",NA,"","images/map23_PRGn_scaleRev_orientDef_180.png","happy",1,23,23,"PRGn","orientDef","scaleRev","180",NA,NA
"","","","","","html-slider-response",138,370388,"0.0-126.0","s6n3h35zk2",9,NA,"<div style=""width:500px;"">
                            <p style=""font-size:50px; font-weight:bold;""
                            >happy</p>
                            <div style=""width:240px; margin: auto;"">
                                <img src=""images/map02_vanimo_scaleDef_orientDef_270.png"" style= ""width:200px""alt=""img"">
                            </div>
                        </div>",0.03,"",0,"",NA,"","images/map02_vanimo_scaleDef_orientDef_270.png","happy",1,2,2,"vanimo","orientDef","scaleDef","270",NA,NA
"","","","","","html-slider-response",139,372604,"0.0-127.0","s6n3h35zk2",9,NA,"<div style=""width:500px;"">
                            <p style=""font-size:50px; font-weight:bold;""
                            >happy</p>
                            <div style=""width:240px; margin: auto;"">
                                <img src=""images/map10_Oranges_scaleDef_orientDef_270.png"" style= ""width:200px""alt=""img"">
                            </div>
                        </div>",0,"",0,"",NA,"","images/map10_Oranges_scaleDef_orientDef_270.png","happy",1,10,10,"Oranges","orientDef","scaleDef","270",NA,NA
"","","","","","html-slider-response",140,374574,"0.0-128.0","s6n3h35zk2",9,NA,"<div style=""width:500px;"">
                            <p style=""font-size:50px; font-weight:bold;""
                            >happy</p>
                            <div style=""width:240px; margin: auto;"">
                                <img src=""images/map15_BuGn_scaleDef_orientDef_270.png"" style= ""width:200px""alt=""img"">
                            </div>
                        </div>",0,"",0,"",NA,"","images/map15_BuGn_scaleDef_orientDef_270.png","happy",1,15,15,"BuGn","orientDef","scaleDef","270",NA,NA
"","","","","","html-slider-response",141,376816,"0.0-129.0","s6n3h35zk2",9,NA,"<div style=""width:500px;"">
                            <p style=""font-size:50px; font-weight:bold;""
                            >happy</p>
                            <div style=""width:240px; margin: auto;"">
                                <img src=""images/map23_PuOr_scaleRev_orientMir_180.png"" style= ""width:200px""alt=""img"">
                            </div>
                        </div>",0,"",0,"",NA,"","images/map23_PuOr_scaleRev_orientMir_180.png","happy",1,23,23,"PuOr","orientMir","scaleRev","180",NA,NA
"","","","","","html-slider-response",142,378908,"0.0-130.0","s6n3h35zk2",9,NA,"<div style=""width:500px;"">
                            <p style=""font-size:50px; font-weight:bold;""
                            >happy</p>
                            <div style=""width:240px; margin: auto;"">
                                <img src=""images/map05_plasma_scaleDef_orientDef_270.png"" style= ""width:200px""alt=""img"">
                            </div>
                        </div>",0,"",0,"",NA,"","images/map05_plasma_scaleDef_orientDef_270.png","happy",1,5,5,"plasma","orientDef","scaleDef","270",NA,NA
"","","","","","html-slider-response",143,386409,"0.0-131.0","s6n3h35zk2",9,NA,"<div style=""width:500px;"">
                            <p style=""font-size:50px; font-weight:bold;""
                            >happy</p>
                            <div style=""width:240px; margin: auto;"">
                                <img src=""images/map26_Spectral_scaleDef_orientMir_270.png"" style= ""width:200px""alt=""img"">
                            </div>
                        </div>",0.505,"",0,"",NA,"","images/map26_Spectral_scaleDef_orientMir_270.png","happy",1,26,26,"Spectral","orientMir","scaleDef","270",NA,NA
"","","","","","html-slider-response",144,387828,"0.0-132.0","s6n3h35zk2",9,NA,"<div style=""width:500px;"">
                            <p style=""font-size:50px; font-weight:bold;""
                            >happy</p>
                            <div style=""width:240px; margin: auto;"">
                                <img src=""images/map15_YlGn_scaleDef_orientMir_090.png"" style= ""width:200px""alt=""img"">
                            </div>
                        </div>",0.0125,"",0,"",NA,"","images/map15_YlGn_scaleDef_orientMir_090.png","happy",1,15,15,"YlGn","orientMir","scaleDef","090",NA,NA
"","","","","","html-slider-response",145,425017,"0.0-133.0","s6n3h35zk2",9,NA,"<div style=""width:500px;"">
                            <p style=""font-size:50px; font-weight:bold;""
                            >happy</p>
                            <div style=""width:240px; margin: auto;"">
                                <img src=""images/map26_RdYlGn_scaleRev_orientMir_180.png"" style= ""width:200px""alt=""img"">
                            </div>
                        </div>",0.1675,"",0,"",NA,"","images/map26_RdYlGn_scaleRev_orientMir_180.png","happy",1,26,26,"RdYlGn","orientMir","scaleRev","180",NA,NA
"","","","","","html-slider-response",146,426511,"0.0-134.0","s6n3h35zk2",9,NA,"<div style=""width:500px;"">
                            <p style=""font-size:50px; font-weight:bold;""
                            >happy</p>
                            <div style=""width:240px; margin: auto;"">
                                <img src=""images/map26_RdYlGn_scaleDef_orientMir_090.png"" style= ""width:200px""alt=""img"">
                            </div>
                        </div>",0.135,"",0,"",NA,"","images/map26_RdYlGn_scaleDef_orientMir_090.png","happy",1,26,26,"RdYlGn","orientMir","scaleDef","090",NA,NA
"","","","","","html-slider-response",147,428178,"0.0-135.0","s6n3h35zk2",9,NA,"<div style=""width:500px;"">
                            <p style=""font-size:50px; font-weight:bold;""
                            >happy</p>
                            <div style=""width:240px; margin: auto;"">
                                <img src=""images/map27_coolwarm_scaleDef_orientDef_090.png"" style= ""width:200px""alt=""img"">
                            </div>
                        </div>",0.5075,"",0,"",NA,"","images/map27_coolwarm_scaleDef_orientDef_090.png","happy",1,27,27,"coolwarm","orientDef","scaleDef","090",NA,NA
"","","","","","html-slider-response",148,429335,"0.0-136.0","s6n3h35zk2",9,NA,"<div style=""width:500px;"">
                            <p style=""font-size:50px; font-weight:bold;""
                            >happy</p>
                            <div style=""width:240px; margin: auto;"">
                                <img src=""images/map13_PuBu_scaleDef_orientMir_090.png"" style= ""width:200px""alt=""img"">
                            </div>
                        </div>",0.5075,"",0,"",NA,"","images/map13_PuBu_scaleDef_orientMir_090.png","happy",1,13,13,"PuBu","orientMir","scaleDef","090",NA,NA
"","","","","","html-button-response",149,431548,"0.0-137.0","s6n3h35zk2",9,1712,"<p>You are doing great!<br></br> You are halway done with the current block. When you are ready to continue, click the 'Continue' button.</p>",0.5,"",NA,"",NA,"","","",NA,NA,NA,"","","","",NA,NA
"","","","","","html-slider-response",150,433453,"0.0-138.0","s6n3h35zk2",9,NA,"<div style=""width:500px;"">
                            <p style=""font-size:50px; font-weight:bold;""
                            >happy</p>
                            <div style=""width:240px; margin: auto;"">
                                <img src=""images/map27_bwr_scaleRev_orientMir_000.png"" style= ""width:200px""alt=""img"">
                            </div>
                        </div>",0.0275,"",0,"",NA,"","images/map27_bwr_scaleRev_orientMir_000.png","happy",1,27,27,"bwr","orientMir","scaleRev","000",NA,NA
"","","","","","html-slider-response",151,435145,"0.0-139.0","s6n3h35zk2",9,NA,"<div style=""width:500px;"">
                            <p style=""font-size:50px; font-weight:bold;""
                            >happy</p>
                            <div style=""width:240px; margin: auto;"">
                                <img src=""images/map10_YlOrBr_scaleDef_orientMir_270.png"" style= ""width:200px""alt=""img"">
                            </div>
                        </div>",0,"",0,"",NA,"","images/map10_YlOrBr_scaleDef_orientMir_270.png","happy",1,10,10,"YlOrBr","orientMir","scaleDef","270",NA,NA
"","","","","","html-slider-response",152,436729,"0.0-140.0","s6n3h35zk2",9,NA,"<div style=""width:500px;"">
                            <p style=""font-size:50px; font-weight:bold;""
                            >happy</p>
                            <div style=""width:240px; margin: auto;"">
                                <img src=""images/map07_Greys_scaleDef_orientDef_270.png"" style= ""width:200px""alt=""img"">
                            </div>
                        </div>",0.145,"",0,"",NA,"","images/map07_Greys_scaleDef_orientDef_270.png","happy",1,7,7,"Greys","orientDef","scaleDef","270",NA,NA
"","","","","","html-slider-response",153,438303,"0.0-141.0","s6n3h35zk2",9,NA,"<div style=""width:500px;"">
                            <p style=""font-size:50px; font-weight:bold;""
                            >happy</p>
                            <div style=""width:240px; margin: auto;"">
                                <img src=""images/map10_Oranges_scaleRev_orientMir_000.png"" style= ""width:200px""alt=""img"">
                            </div>
                        </div>",0,"",0,"",NA,"","images/map10_Oranges_scaleRev_orientMir_000.png","happy",1,10,10,"Oranges","orientMir","scaleRev","000",NA,NA
"","","","","","html-slider-response",154,439599,"0.0-142.0","s6n3h35zk2",9,NA,"<div style=""width:500px;"">
                            <p style=""font-size:50px; font-weight:bold;""
                            >happy</p>
                            <div style=""width:240px; margin: auto;"">
                                <img src=""images/map07_Purples_scaleRev_orientMir_180.png"" style= ""width:200px""alt=""img"">
                            </div>
                        </div>",0,"",0,"",NA,"","images/map07_Purples_scaleRev_orientMir_180.png","happy",1,7,7,"Purples","orientMir","scaleRev","180",NA,NA
"","","","","","html-slider-response",155,440986,"0.0-143.0","s6n3h35zk2",9,NA,"<div style=""width:500px;"">
                            <p style=""font-size:50px; font-weight:bold;""
                            >happy</p>
                            <div style=""width:240px; margin: auto;"">
                                <img src=""images/map27_seismic_scaleDef_orientMir_090.png"" style= ""width:200px""alt=""img"">
                            </div>
                        </div>",0,"",0,"",NA,"","images/map27_seismic_scaleDef_orientMir_090.png","happy",1,27,27,"seismic","orientMir","scaleDef","090",NA,NA
"","","","","","html-slider-response",156,442587,"0.0-144.0","s6n3h35zk2",9,NA,"<div style=""width:500px;"">
                            <p style=""font-size:50px; font-weight:bold;""
                            >happy</p>
                            <div style=""width:240px; margin: auto;"">
                                <img src=""images/map02_managua_scaleDef_orientDef_090.png"" style= ""width:200px""alt=""img"">
                            </div>
                        </div>",0.135,"",0,"",NA,"","images/map02_managua_scaleDef_orientDef_090.png","happy",1,2,2,"managua","orientDef","scaleDef","090",NA,NA
"","","","","","html-slider-response",157,444236,"0.0-145.0","s6n3h35zk2",9,NA,"<div style=""width:500px;"">
                            <p style=""font-size:50px; font-weight:bold;""
                            >happy</p>
                            <div style=""width:240px; margin: auto;"">
                                <img src=""images/map23_BrBG_scaleDef_orientDef_270.png"" style= ""width:200px""alt=""img"">
                            </div>
                        </div>",0,"",0,"",NA,"","images/map23_BrBG_scaleDef_orientDef_270.png","happy",1,23,23,"BrBG","orientDef","scaleDef","270",NA,NA
"","","","","","html-slider-response",158,445982,"0.0-146.0","s6n3h35zk2",9,NA,"<div style=""width:500px;"">
                            <p style=""font-size:50px; font-weight:bold;""
                            >happy</p>
                            <div style=""width:240px; margin: auto;"">
                                <img src=""images/map13_PuBu_scaleRev_orientMir_180.png"" style= ""width:200px""alt=""img"">
                            </div>
                        </div>",0,"",0,"",NA,"","images/map13_PuBu_scaleRev_orientMir_180.png","happy",1,13,13,"PuBu","orientMir","scaleRev","180",NA,NA
"","","","","","html-slider-response",159,447316,"0.0-147.0","s6n3h35zk2",9,NA,"<div style=""width:500px;"">
                            <p style=""font-size:50px; font-weight:bold;""
                            >happy</p>
                            <div style=""width:240px; margin: auto;"">
                                <img src=""images/map13_GnBu_scaleDef_orientDef_270.png"" style= ""width:200px""alt=""img"">
                            </div>
                        </div>",0.495,"",0,"",NA,"","images/map13_GnBu_scaleDef_orientDef_270.png","happy",1,13,13,"GnBu","orientDef","scaleDef","270",NA,NA
"","","","","","html-slider-response",160,448737,"0.0-148.0","s6n3h35zk2",9,NA,"<div style=""width:500px;"">
                            <p style=""font-size:50px; font-weight:bold;""
                            >happy</p>
                            <div style=""width:240px; margin: auto;"">
                                <img src=""images/map12_YlOrBr_scaleRev_orientDef_000.png"" style= ""width:200px""alt=""img"">
                            </div>
                        </div>",0,"",0,"",NA,"","images/map12_YlOrBr_scaleRev_orientDef_000.png","happy",1,12,12,"YlOrBr","orientDef","scaleRev","000",NA,NA
"","","","","","html-slider-response",161,451385,"0.0-149.0","s6n3h35zk2",9,NA,"<div style=""width:500px;"">
                            <p style=""font-size:50px; font-weight:bold;""
                            >happy</p>
                            <div style=""width:240px; margin: auto;"">
                                <img src=""images/map15_PuBuGn_scaleRev_orientDef_180.png"" style= ""width:200px""alt=""img"">
                            </div>
                        </div>",0.5075,"",0,"",NA,"","images/map15_PuBuGn_scaleRev_orientDef_180.png","happy",1,15,15,"PuBuGn","orientDef","scaleRev","180",NA,NA
"","","","","","html-slider-response",162,453790,"0.0-150.0","s6n3h35zk2",9,NA,"<div style=""width:500px;"">
                            <p style=""font-size:50px; font-weight:bold;""
                            >happy</p>
                            <div style=""width:240px; margin: auto;"">
                                <img src=""images/map12_YlOrRd_scaleRev_orientDef_180.png"" style= ""width:200px""alt=""img"">
                            </div>
                        </div>",0.7425,"",0,"",NA,"","images/map12_YlOrRd_scaleRev_orientDef_180.png","happy",1,12,12,"YlOrRd","orientDef","scaleRev","180",NA,NA
"","","","","","html-slider-response",163,455324,"0.0-151.0","s6n3h35zk2",9,NA,"<div style=""width:500px;"">
                            <p style=""font-size:50px; font-weight:bold;""
                            >happy</p>
                            <div style=""width:240px; margin: auto;"">
                                <img src=""images/map07_magma_scaleRev_orientDef_000.png"" style= ""width:200px""alt=""img"">
                            </div>
                        </div>",0,"",0,"",NA,"","images/map07_magma_scaleRev_orientDef_000.png","happy",1,7,7,"magma","orientDef","scaleRev","000",NA,NA
"","","","","","html-slider-response",164,456883,"0.0-152.0","s6n3h35zk2",9,NA,"<div style=""width:500px;"">
                            <p style=""font-size:50px; font-weight:bold;""
                            >happy</p>
                            <div style=""width:240px; margin: auto;"">
                                <img src=""images/map13_BuPu_scaleRev_orientDef_180.png"" style= ""width:200px""alt=""img"">
                            </div>
                        </div>",0,"",0,"",NA,"","images/map13_BuPu_scaleRev_orientDef_180.png","happy",1,13,13,"BuPu","orientDef","scaleRev","180",NA,NA
"","","","","","html-slider-response",165,458566,"0.0-153.0","s6n3h35zk2",9,NA,"<div style=""width:500px;"">
                            <p style=""font-size:50px; font-weight:bold;""
                            >happy</p>
                            <div style=""width:240px; margin: auto;"">
                                <img src=""images/map05_viridis_scaleDef_orientDef_090.png"" style= ""width:200px""alt=""img"">
                            </div>
                        </div>",0,"",0,"",NA,"","images/map05_viridis_scaleDef_orientDef_090.png","happy",1,5,5,"viridis","orientDef","scaleDef","090",NA,NA
"","","","","","html-slider-response",166,459994,"0.0-154.0","s6n3h35zk2",9,NA,"<div style=""width:500px;"">
                            <p style=""font-size:50px; font-weight:bold;""
                            >happy</p>
                            <div style=""width:240px; margin: auto;"">
