"success","timeout","failed_images","failed_audio","failed_video","trial_type","trial_index","time_elapsed","internal_node_id","subject_id","condition_num","rt","stimulus","response","question_order","slider_start","practiceTrial","practiceTrialNum","correct","image_path","concept","repetition","map_id","map_num","scale_name","orientation_code","mapping_code","rotation_code","ishihara_plate","correct_response"
"true","false","[]","[]","[]","preload",0,903,"0.0-0.0","vtgz8hywh2",62,NA,"",NA,"",NA,"",NA,"","","",NA,NA,NA,"","","","",NA,NA
"","","","","","html-button-response",1,3206,"0.0-1.0","vtgz8hywh2",62,2301,"Welcome to our experiment!<p>At the bottom of this screen, you will see a button that says ""Begin Experiment"".<br>Please only click that button when you are ready to complete the 30 minute experiment in one sitting.</p><p> Once you click that button, it will not be possible to restart the experiment.",0.5,"",NA,"",NA,"","","",NA,NA,NA,"","","","",NA,NA
"true","","","","","fullscreen",2,5076,"0.0-2.0","vtgz8hywh2",62,864,"",NA,"",NA,"",NA,"","","",NA,NA,NA,"","","","",NA,NA
"","","","","","survey-multi-select",3,9694,"0.0-3.0","vtgz8hywh2",62,4613,"",NA,"[0]",NA,"",NA,"","","",NA,NA,NA,"","","","",NA,NA
"","","","","","html-button-response",4,12779,"0.0-4.0","vtgz8hywh2",62,3082,"Welcome! <p> This experiment involves two parts: demographic information, followed by the experimental task.<p> It will take about 30 minutes to complete both parts.",0.5,"",NA,"",NA,"","","",NA,NA,NA,"","","","",NA,NA
"","","","","","survey-text",5,26061,"0.0-5.0","vtgz8hywh2",62,13269,"",NA,"",NA,"",NA,"","","",NA,NA,NA,"","","","",NA,NA
"","","","","","html-slider-response",6,102734,"0.0-6.0","vtgz8hywh2",62,76668,"<div style='text-align:left; font-size:20px; line-height:25px; width: 1000px;'>
                                During this experiment you will be asked to rate how much you associate maps with                    different concepts.<br> Below, you can see some examples of the maps you will be asked to rate. Above the maps
                    is the list of concepts.<br>You will be asked                    to rate how much you associate each map with each concept on a scale from 'not at all' to 'very much' like the
                    one below. <br><br>
                    Now, please look at the list of concepts and maps. For each concept, think about the map you associate 'very
                    much' with the concept.<br>                     When you see that map during the experiment, please rate it near the 'very much' endpoint of the
                    scale.<br>Now, please think about which map you associate 'not at all'                     with each concept. When you see that map during the experiment, please rate it near the 'not at all' endpoint
                    of the scale.<br>
                    Please use the full range of the scale. That is, if a map is somewhat associated with the concept, you would
                    click partway between the middle point and right side of the scale.                    You will be asked to rate each map for a given concept before moving on to the next concept.<br>Press the
                    'Continue' button for instructions on how to use the slider.                    <br>
                </div>

                <div style=""width: 500px; margin: 0 auto;"">
                    <!-- Centered text paragraphs -->
                    <div style=""text-align: center; width: 500px;"">
                        <p style=""font-size:25px; line-height:15px;"">
                            angry&nbsp;&nbsp;&nbsp;&nbsp;
                            sad&nbsp;&nbsp;&nbsp;&nbsp;
                            fearful&nbsp;&nbsp;&nbsp;&nbsp;
                            disgust&nbsp;&nbsp;&nbsp;&nbsp;
                            happy
                        </p>
                        <!-- <p style=""font-size:20px; line-height:15px;"">sad</p>
                        <p style=""font-size:20px;line-height:15px;"">fearful</p>
                        <p style=""font-size:20px;line-height:15px;"">disgust</p>
                        <p style=""font-size:20px;line-height:15px;"">happy</p> -->
                    </div>
            

                    <!-- Grid section -->
                   <div style=""display: flex; justify-content: center; padding-top: 15px;"">
                    <div style=""display: grid; grid-template-columns: repeat(10, 55px); grid-gap: 5px; width: auto;"">
                        <img src=""images/map10_PRGn_scaleRev_orientMir_270.png"" alt=""map"" style=""width: 100%;""><img src=""images/map07_YlGnBu_scaleRev_orientMir_090.png"" alt=""map"" style=""width: 100%;""><img src=""images/map02_YlOrBr_scaleRev_orientMir_090.png"" alt=""map"" style=""width: 100%;""><img src=""images/map10_BuGn_scaleDef_orientDef_000.png"" alt=""map"" style=""width: 100%;""><img src=""images/map23_turbo_scaleDef_orientMir_000.png"" alt=""map"" style=""width: 100%;""><img src=""images/map12_RdBu_scaleDef_orientMir_180.png"" alt=""map"" style=""width: 100%;""><img src=""images/map13_Spectral_scaleDef_orientMir_000.png"" alt=""map"" style=""width: 100%;""><img src=""images/map12_RdGy_scaleDef_orientMir_000.png"" alt=""map"" style=""width: 100%;""><img src=""images/map13_RdYlBu_scaleRev_orientDef_090.png"" alt=""map"" style=""width: 100%;""><img src=""images/map02_YlOrRd_scaleDef_orientMir_180.png"" alt=""map"" style=""width: 100%;""><img src=""images/map26_magma_scaleDef_orientMir_000.png"" alt=""map"" style=""width: 100%;""><img src=""images/map10_YlGn_scaleRev_orientDef_270.png"" alt=""map"" style=""width: 100%;""><img src=""images/map27_Greys_scaleDef_orientDef_000.png"" alt=""map"" style=""width: 100%;""><img src=""images/map05_PuRd_scaleRev_orientDef_270.png"" alt=""map"" style=""width: 100%;""><img src=""images/map10_PiYG_scaleDef_orientMir_000.png"" alt=""map"" style=""width: 100%;""><img src=""images/map07_PuBuGn_scaleDef_orientMir_180.png"" alt=""map"" style=""width: 100%;""><img src=""images/map07_PuBu_scaleRev_orientDef_270.png"" alt=""map"" style=""width: 100%;""><img src=""images/map07_GnBu_scaleRev_orientDef_090.png"" alt=""map"" style=""width: 100%;""><img src=""images/map26_plasma_scaleDef_orientDef_000.png"" alt=""map"" style=""width: 100%;""><img src=""images/map15_bwr_scaleDef_orientDef_000.png"" alt=""map"" style=""width: 100%;""><img src=""images/map23_gist_earth_scaleRev_orientDef_270.png"" alt=""map"" style=""width: 100%;""><img src=""images/map05_BuPu_scaleDef_orientMir_180.png"" alt=""map"" style=""width: 100%;""><img src=""images/map05_OrRd_scaleRev_orientDef_090.png"" alt=""map"" style=""width: 100%;""><img src=""images/map13_coolwarm_scaleDef_orientMir_180.png"" alt=""map"" style=""width: 100%;""><img src=""images/map15_berlin_scaleRev_orientMir_090.png"" alt=""map"" style=""width: 100%;""><img src=""images/map23_vanimo_scaleDef_orientDef_000.png"" alt=""map"" style=""width: 100%;""><img src=""images/map26_inferno_scaleRev_orientDef_270.png"" alt=""map"" style=""width: 100%;""><img src=""images/map13_RdYlGn_scaleRev_orientDef_270.png"" alt=""map"" style=""width: 100%;""><img src=""images/map02_Oranges_scaleDef_orientDef_000.png"" alt=""map"" style=""width: 100%;""><img src=""images/map27_Greens_scaleDef_orientMir_180.png"" alt=""map"" style=""width: 100%;""><img src=""images/map27_Purples_scaleDef_orientDef_180.png"" alt=""map"" style=""width: 100%;""><img src=""images/map15_managua_scaleRev_orientMir_270.png"" alt=""map"" style=""width: 100%;""><img src=""images/map26_cividis_scaleRev_orientMir_270.png"" alt=""map"" style=""width: 100%;""><img src=""images/map23_viridis_scaleDef_orientMir_180.png"" alt=""map"" style=""width: 100%;""><img src=""images/map27_Blues_scaleDef_orientMir_000.png"" alt=""map"" style=""width: 100%;""><img src=""images/map05_RdPu_scaleRev_orientMir_090.png"" alt=""map"" style=""width: 100%;""><img src=""images/map02_Reds_scaleDef_orientDef_180.png"" alt=""map"" style=""width: 100%;""><img src=""images/map12_PuOr_scaleRev_orientDef_270.png"" alt=""map"" style=""width: 100%;""><img src=""images/map12_BrBG_scaleRev_orientDef_090.png"" alt=""map"" style=""width: 100%;""><img src=""images/map15_seismic_scaleDef_orientDef_180.png"" alt=""map"" style=""width: 100%;"">
                    </div>
                </div>

                    <!-- Clear floats -->
                    <div style=""clear: both;""></div>
                </div>
                            ",1,"",0,"true",NA,"","","",NA,NA,NA,"","","","",NA,NA
"","","","","","html-button-response",7,104778,"0.0-7.0","vtgz8hywh2",62,2042,"<div style=""width:800px;""><p style=""text-align:left"">To move the slider, click and drag your cursor to the location of the scale where you would like to make your rating and then let go. When you let go of the slider, your response will be recorded and the next trial will begin. <br>
                    We are interested in your initial impressions of each map for the given concept, so please go with your first intuition. <br>
                    Before you begin the experiment, there will be four training trials for you to practice using the scale. <br>
                     When you are ready to start the training trials, please click ""Continue"".</p><br></div>",0.5,"",NA,"",NA,"","","",NA,NA,NA,"","","","",NA,NA
"","","","","","html-slider-response",8,108426,"0.0-8.0-0.0","vtgz8hywh2",62,NA,"<div style=""width:500px;"">
                                    <p style=""font-size:25px;"">Please move the slider all the way to the <br> right endpoint of the scale</p>

                                    </div>
                                </div>",1,"",0,"true",0,"true","","",NA,NA,NA,"","","","",NA,NA
"","","","","","html-button-response",9,109959,"0.0-8.0-1.0","vtgz8hywh2",62,1030,"<p align='center'><b>Good job!</b> Click on 'Continue' to proceed.</p>",0.5,"",NA,"",NA,"","","",NA,NA,NA,"","","","",NA,NA
"","","","","","html-slider-response",10,111442,"0.0-9.0-0.0","vtgz8hywh2",62,NA,"<div style=""width:500px;"">
                                    <p style=""font-size:25px;"">Please move the slider all the way to the <br> left endpoint of the scale</p>

                                    </div>
                                </div>",0,"",0,"true",1,"true","","",NA,NA,NA,"","","","",NA,NA
"","","","","","html-button-response",11,113596,"0.0-9.0-1.0","vtgz8hywh2",62,1650,"<p align='center'><b>Good job!</b> Click on 'Continue' to proceed.</p>",0.5,"",NA,"",NA,"","","",NA,NA,NA,"","","","",NA,NA
"","","","","","html-slider-response",12,123490,"0.0-10.0-0.0","vtgz8hywh2",62,NA,"<div style=""width:500px;"">
                                    <p style=""font-size:25px;"">Please move the slider halfway between the center and right endpoint of the scale</p>

                                    </div>
                                </div>",0.775,"",0,"true",2,"true","","",NA,NA,NA,"","","","",NA,NA
"","","","","","html-button-response",13,124902,"0.0-10.0-1.0","vtgz8hywh2",62,910,"<p align='center'><b>Good job!</b> Click on 'Continue' to proceed.</p>",0.5,"",NA,"",NA,"","","",NA,NA,NA,"","","","",NA,NA
"","","","","","html-slider-response",14,126764,"0.0-11.0-0.0","vtgz8hywh2",62,NA,"<div style=""width:500px;"">
                                    <p style=""font-size:25px;"">Please move the slider halfway between the center and left endpoint of the scale</p>

                                    </div>
                                </div>",0.2325,"",0,"true",3,"true","","",NA,NA,NA,"","","","",NA,NA
"","","","","","html-button-response",15,127950,"0.0-11.0-1.0","vtgz8hywh2",62,684,"<p align='center'><b>Good job!</b> Click on 'Continue' to proceed.</p>",0.5,"",NA,"",NA,"","","",NA,NA,NA,"","","","",NA,NA
"","","","","","html-button-response",16,128896,"0.0-12.0","vtgz8hywh2",62,945,"<p>Great job! You've completed the practice trials. Now you will begin the main task.</p>",0.5,"",NA,"",NA,"","","",NA,NA,NA,"","","","",NA,NA
"","","","","","html-button-response",17,131388,"0.0-13.0","vtgz8hywh2",62,2490,"<p>In this block of trials, you will be asked to rate how much you associate each map with:</p > <p style = 'font-size:150%; font-weight: bold'>angry</p><br></br>",0.5,"",NA,"",NA,"","","",NA,NA,NA,"","","","",NA,NA
"","","","","","html-slider-response",18,137040,"0.0-14.0","vtgz8hywh2",62,NA,"<div style=""width:500px;"">
                            <p style=""font-size:50px; font-weight:bold;""
                            >angry</p>
                            <div style=""width:240px; margin: auto;"">
                                <img src=""images/map27_Greys_scaleRev_orientDef_090.png"" style= ""width:200px""alt=""img"">
                            </div>
                        </div>",0.6325,"",0,"",NA,"","images/map27_Greys_scaleRev_orientDef_090.png","angry",1,27,27,"Greys","orientDef","scaleRev","090",NA,NA
"","","","","","html-slider-response",19,142181,"0.0-15.0","vtgz8hywh2",62,NA,"<div style=""width:500px;"">
                            <p style=""font-size:50px; font-weight:bold;""
                            >angry</p>
                            <div style=""width:240px; margin: auto;"">
                                <img src=""images/map12_BrBG_scaleDef_orientDef_000.png"" style= ""width:200px""alt=""img"">
                            </div>
                        </div>",0.36,"",0,"",NA,"","images/map12_BrBG_scaleDef_orientDef_000.png","angry",1,12,12,"BrBG","orientDef","scaleDef","000",NA,NA
"","","","","","html-slider-response",20,145110,"0.0-16.0","vtgz8hywh2",62,NA,"<div style=""width:500px;"">
                            <p style=""font-size:50px; font-weight:bold;""
                            >angry</p>
                            <div style=""width:240px; margin: auto;"">
                                <img src=""images/map02_YlOrRd_scaleDef_orientMir_180.png"" style= ""width:200px""alt=""img"">
                            </div>
                        </div>",0.875,"",0,"",NA,"","images/map02_YlOrRd_scaleDef_orientMir_180.png","angry",1,2,2,"YlOrRd","orientMir","scaleDef","180",NA,NA
"","","","","","html-slider-response",21,147997,"0.0-17.0","vtgz8hywh2",62,NA,"<div style=""width:500px;"">
                            <p style=""font-size:50px; font-weight:bold;""
                            >angry</p>
                            <div style=""width:240px; margin: auto;"">
                                <img src=""images/map10_YlGn_scaleDef_orientDef_180.png"" style= ""width:200px""alt=""img"">
                            </div>
                        </div>",0.4375,"",0,"",NA,"","images/map10_YlGn_scaleDef_orientDef_180.png","angry",1,10,10,"YlGn","orientDef","scaleDef","180",NA,NA
"","","","","","html-slider-response",22,151438,"0.0-18.0","vtgz8hywh2",62,NA,"<div style=""width:500px;"">
                            <p style=""font-size:50px; font-weight:bold;""
                            >angry</p>
                            <div style=""width:240px; margin: auto;"">
                                <img src=""images/map27_Blues_scaleDef_orientMir_000.png"" style= ""width:200px""alt=""img"">
                            </div>
                        </div>",0.395,"",0,"",NA,"","images/map27_Blues_scaleDef_orientMir_000.png","angry",1,27,27,"Blues","orientMir","scaleDef","000",NA,NA
"","","","","","html-slider-response",23,153512,"0.0-19.0","vtgz8hywh2",62,NA,"<div style=""width:500px;"">
                            <p style=""font-size:50px; font-weight:bold;""
                            >angry</p>
                            <div style=""width:240px; margin: auto;"">
                                <img src=""images/map07_GnBu_scaleDef_orientDef_000.png"" style= ""width:200px""alt=""img"">
                            </div>
                        </div>",0.3325,"",0,"",NA,"","images/map07_GnBu_scaleDef_orientDef_000.png","angry",1,7,7,"GnBu","orientDef","scaleDef","000",NA,NA
"","","","","","html-slider-response",24,156090,"0.0-20.0","vtgz8hywh2",62,NA,"<div style=""width:500px;"">
                            <p style=""font-size:50px; font-weight:bold;""
                            >angry</p>
                            <div style=""width:240px; margin: auto;"">
                                <img src=""images/map07_PuBu_scaleRev_orientDef_270.png"" style= ""width:200px""alt=""img"">
                            </div>
                        </div>",0.1475,"",0,"",NA,"","images/map07_PuBu_scaleRev_orientDef_270.png","angry",1,7,7,"PuBu","orientDef","scaleRev","270",NA,NA
"","","","","","html-slider-response",25,158489,"0.0-21.0","vtgz8hywh2",62,NA,"<div style=""width:500px;"">
                            <p style=""font-size:50px; font-weight:bold;""
                            >angry</p>
                            <div style=""width:240px; margin: auto;"">
                                <img src=""images/map13_coolwarm_scaleDef_orientMir_180.png"" style= ""width:200px""alt=""img"">
                            </div>
                        </div>",0.7025,"",0,"",NA,"","images/map13_coolwarm_scaleDef_orientMir_180.png","angry",1,13,13,"coolwarm","orientMir","scaleDef","180",NA,NA
"","","","","","html-slider-response",26,160943,"0.0-22.0","vtgz8hywh2",62,NA,"<div style=""width:500px;"">
                            <p style=""font-size:50px; font-weight:bold;""
                            >angry</p>
                            <div style=""width:240px; margin: auto;"">
                                <img src=""images/map23_viridis_scaleRev_orientMir_270.png"" style= ""width:200px""alt=""img"">
                            </div>
                        </div>",0.8275,"",0,"",NA,"","images/map23_viridis_scaleRev_orientMir_270.png","angry",1,23,23,"viridis","orientMir","scaleRev","270",NA,NA
"","","","","","html-slider-response",27,163306,"0.0-23.0","vtgz8hywh2",62,NA,"<div style=""width:500px;"">
                            <p style=""font-size:50px; font-weight:bold;""
                            >angry</p>
                            <div style=""width:240px; margin: auto;"">
                                <img src=""images/map07_PuBu_scaleDef_orientDef_180.png"" style= ""width:200px""alt=""img"">
                            </div>
                        </div>",0.105,"",0,"",NA,"","images/map07_PuBu_scaleDef_orientDef_180.png","angry",1,7,7,"PuBu","orientDef","scaleDef","180",NA,NA
"","","","","","html-slider-response",28,165596,"0.0-24.0","vtgz8hywh2",62,NA,"<div style=""width:500px;"">
                            <p style=""font-size:50px; font-weight:bold;""
                            >angry</p>
                            <div style=""width:240px; margin: auto;"">
                                <img src=""images/map26_plasma_scaleDef_orientDef_000.png"" style= ""width:200px""alt=""img"">
                            </div>
                        </div>",1,"",0,"",NA,"","images/map26_plasma_scaleDef_orientDef_000.png","angry",1,26,26,"plasma","orientDef","scaleDef","000",NA,NA
"","","","","","html-slider-response",29,167679,"0.0-25.0","vtgz8hywh2",62,NA,"<div style=""width:500px;"">
                            <p style=""font-size:50px; font-weight:bold;""
                            >angry</p>
                            <div style=""width:240px; margin: auto;"">
                                <img src=""images/map15_seismic_scaleRev_orientDef_270.png"" style= ""width:200px""alt=""img"">
                            </div>
                        </div>",1,"",0,"",NA,"","images/map15_seismic_scaleRev_orientDef_270.png","angry",1,15,15,"seismic","orientDef","scaleRev","270",NA,NA
"","","","","","html-slider-response",30,169843,"0.0-26.0","vtgz8hywh2",62,NA,"<div style=""width:500px;"">
                            <p style=""font-size:50px; font-weight:bold;""
                            >angry</p>
                            <div style=""width:240px; margin: auto;"">
                                <img src=""images/map12_RdGy_scaleDef_orientMir_000.png"" style= ""width:200px""alt=""img"">
                            </div>
                        </div>",1,"",0,"",NA,"","images/map12_RdGy_scaleDef_orientMir_000.png","angry",1,12,12,"RdGy","orientMir","scaleDef","000",NA,NA
"","","","","","html-slider-response",31,171949,"0.0-27.0","vtgz8hywh2",62,NA,"<div style=""width:500px;"">
                            <p style=""font-size:50px; font-weight:bold;""
                            >angry</p>
                            <div style=""width:240px; margin: auto;"">
                                <img src=""images/map02_YlOrBr_scaleRev_orientMir_090.png"" style= ""width:200px""alt=""img"">
                            </div>
                        </div>",1,"",0,"",NA,"","images/map02_YlOrBr_scaleRev_orientMir_090.png","angry",1,2,2,"YlOrBr","orientMir","scaleRev","090",NA,NA
"","","","","","html-slider-response",32,173941,"0.0-28.0","vtgz8hywh2",62,NA,"<div style=""width:500px;"">
                            <p style=""font-size:50px; font-weight:bold;""
                            >angry</p>
                            <div style=""width:240px; margin: auto;"">
                                <img src=""images/map13_RdYlBu_scaleDef_orientDef_000.png"" style= ""width:200px""alt=""img"">
                            </div>
                        </div>",0.675,"",0,"",NA,"","images/map13_RdYlBu_scaleDef_orientDef_000.png","angry",1,13,13,"RdYlBu","orientDef","scaleDef","000",NA,NA
"","","","","","html-slider-response",33,176091,"0.0-29.0","vtgz8hywh2",62,NA,"<div style=""width:500px;"">
                            <p style=""font-size:50px; font-weight:bold;""
                            >angry</p>
                            <div style=""width:240px; margin: auto;"">
                                <img src=""images/map02_Oranges_scaleRev_orientDef_090.png"" style= ""width:200px""alt=""img"">
                            </div>
                        </div>",0.8475,"",0,"",NA,"","images/map02_Oranges_scaleRev_orientDef_090.png","angry",1,2,2,"Oranges","orientDef","scaleRev","090",NA,NA
"","","","","","html-slider-response",34,180090,"0.0-30.0","vtgz8hywh2",62,NA,"<div style=""width:500px;"">
                            <p style=""font-size:50px; font-weight:bold;""
                            >angry</p>
                            <div style=""width:240px; margin: auto;"">
                                <img src=""images/map10_BuGn_scaleDef_orientDef_000.png"" style= ""width:200px""alt=""img"">
                            </div>
                        </div>",0.375,"",0,"",NA,"","images/map10_BuGn_scaleDef_orientDef_000.png","angry",1,10,10,"BuGn","orientDef","scaleDef","000",NA,NA
"","","","","","html-slider-response",35,181916,"0.0-31.0","vtgz8hywh2",62,NA,"<div style=""width:500px;"">
                            <p style=""font-size:50px; font-weight:bold;""
                            >angry</p>
                            <div style=""width:240px; margin: auto;"">
                                <img src=""images/map23_vanimo_scaleDef_orientDef_000.png"" style= ""width:200px""alt=""img"">
                            </div>
                        </div>",0.545,"",0,"",NA,"","images/map23_vanimo_scaleDef_orientDef_000.png","angry",1,23,23,"vanimo","orientDef","scaleDef","000",NA,NA
"","","","","","html-slider-response",36,184198,"0.0-32.0","vtgz8hywh2",62,NA,"<div style=""width:500px;"">
                            <p style=""font-size:50px; font-weight:bold;""
                            >angry</p>
                            <div style=""width:240px; margin: auto;"">
                                <img src=""images/map05_PuRd_scaleRev_orientDef_270.png"" style= ""width:200px""alt=""img"">
                            </div>
                        </div>",0.5375,"",0,"",NA,"","images/map05_PuRd_scaleRev_orientDef_270.png","angry",1,5,5,"PuRd","orientDef","scaleRev","270",NA,NA
"","","","","","html-slider-response",37,185845,"0.0-33.0","vtgz8hywh2",62,NA,"<div style=""width:500px;"">
                            <p style=""font-size:50px; font-weight:bold;""
                            >angry</p>
                            <div style=""width:240px; margin: auto;"">
                                <img src=""images/map07_YlGnBu_scaleDef_orientMir_000.png"" style= ""width:200px""alt=""img"">
                            </div>
                        </div>",0.305,"",0,"",NA,"","images/map07_YlGnBu_scaleDef_orientMir_000.png","angry",1,7,7,"YlGnBu","orientMir","scaleDef","000",NA,NA
"","","","","","html-slider-response",38,187770,"0.0-34.0","vtgz8hywh2",62,NA,"<div style=""width:500px;"">
                            <p style=""font-size:50px; font-weight:bold;""
                            >angry</p>
                            <div style=""width:240px; margin: auto;"">
                                <img src=""images/map05_PuRd_scaleDef_orientDef_180.png"" style= ""width:200px""alt=""img"">
                            </div>
                        </div>",0.5925,"",0,"",NA,"","images/map05_PuRd_scaleDef_orientDef_180.png","angry",1,5,5,"PuRd","orientDef","scaleDef","180",NA,NA
"","","","","","html-slider-response",39,189703,"0.0-35.0","vtgz8hywh2",62,NA,"<div style=""width:500px;"">
                            <p style=""font-size:50px; font-weight:bold;""
                            >angry</p>
                            <div style=""width:240px; margin: auto;"">
                                <img src=""images/map10_BuGn_scaleRev_orientDef_090.png"" style= ""width:200px""alt=""img"">
                            </div>
                        </div>",0.3,"",0,"",NA,"","images/map10_BuGn_scaleRev_orientDef_090.png","angry",1,10,10,"BuGn","orientDef","scaleRev","090",NA,NA
"","","","","","html-slider-response",40,208625,"0.0-36.0","vtgz8hywh2",62,NA,"<div style=""width:500px;"">
                            <p style=""font-size:50px; font-weight:bold;""
                            >angry</p>
                            <div style=""width:240px; margin: auto;"">
                                <img src=""images/map27_Purples_scaleDef_orientDef_180.png"" style= ""width:200px""alt=""img"">
                            </div>
                        </div>",0.4425,"",0,"",NA,"","images/map27_Purples_scaleDef_orientDef_180.png","angry",1,27,27,"Purples","orientDef","scaleDef","180",NA,NA
"","","","","","html-slider-response",41,210613,"0.0-37.0","vtgz8hywh2",62,NA,"<div style=""width:500px;"">
                            <p style=""font-size:50px; font-weight:bold;""
                            >angry</p>
                            <div style=""width:240px; margin: auto;"">
                                <img src=""images/map23_viridis_scaleDef_orientMir_180.png"" style= ""width:200px""alt=""img"">
                            </div>
                        </div>",0.415,"",0,"",NA,"","images/map23_viridis_scaleDef_orientMir_180.png","angry",1,23,23,"viridis","orientMir","scaleDef","180",NA,NA
"","","","","","html-slider-response",42,212325,"0.0-38.0","vtgz8hywh2",62,NA,"<div style=""width:500px;"">
                            <p style=""font-size:50px; font-weight:bold;""
                            >angry</p>
                            <div style=""width:240px; margin: auto;"">
                                <img src=""images/map05_BuPu_scaleDef_orientMir_180.png"" style= ""width:200px""alt=""img"">
                            </div>
                        </div>",0.31,"",0,"",NA,"","images/map05_BuPu_scaleDef_orientMir_180.png","angry",1,5,5,"BuPu","orientMir","scaleDef","180",NA,NA
"","","","","","html-slider-response",43,214852,"0.0-39.0","vtgz8hywh2",62,NA,"<div style=""width:500px;"">
                            <p style=""font-size:50px; font-weight:bold;""
                            >angry</p>
                            <div style=""width:240px; margin: auto;"">
                                <img src=""images/map02_Reds_scaleRev_orientDef_270.png"" style= ""width:200px""alt=""img"">
                            </div>
                        </div>",0.8,"",0,"",NA,"","images/map02_Reds_scaleRev_orientDef_270.png","angry",1,2,2,"Reds","orientDef","scaleRev","270",NA,NA
"","","","","","html-slider-response",44,216993,"0.0-40.0","vtgz8hywh2",62,NA,"<div style=""width:500px;"">
                            <p style=""font-size:50px; font-weight:bold;""
                            >angry</p>
                            <div style=""width:240px; margin: auto;"">
                                <img src=""images/map02_YlOrRd_scaleRev_orientMir_270.png"" style= ""width:200px""alt=""img"">
                            </div>
                        </div>",1,"",0,"",NA,"","images/map02_YlOrRd_scaleRev_orientMir_270.png","angry",1,2,2,"YlOrRd","orientMir","scaleRev","270",NA,NA
"","","","","","html-slider-response",45,219387,"0.0-41.0","vtgz8hywh2",62,NA,"<div style=""width:500px;"">
                            <p style=""font-size:50px; font-weight:bold;""
                            >angry</p>
                            <div style=""width:240px; margin: auto;"">
                                <img src=""images/map15_managua_scaleRev_orientMir_270.png"" style= ""width:200px""alt=""img"">
                            </div>
                        </div>",0.595,"",0,"",NA,"","images/map15_managua_scaleRev_orientMir_270.png","angry",1,15,15,"managua","orientMir","scaleRev","270",NA,NA
"","","","","","html-slider-response",46,221297,"0.0-42.0","vtgz8hywh2",62,NA,"<div style=""width:500px;"">
                            <p style=""font-size:50px; font-weight:bold;""
                            >angry</p>
                            <div style=""width:240px; margin: auto;"">
                                <img src=""images/map26_cividis_scaleDef_orientMir_180.png"" style= ""width:200px""alt=""img"">
                            </div>
                        </div>",0.655,"",0,"",NA,"","images/map26_cividis_scaleDef_orientMir_180.png","angry",1,26,26,"cividis","orientMir","scaleDef","180",NA,NA
"","","","","","html-slider-response",47,223685,"0.0-43.0","vtgz8hywh2",62,NA,"<div style=""width:500px;"">
                            <p style=""font-size:50px; font-weight:bold;""
                            >angry</p>
                            <div style=""width:240px; margin: auto;"">
                                <img src=""images/map26_inferno_scaleDef_orientDef_180.png"" style= ""width:200px""alt=""img"">
                            </div>
                        </div>",0.8875,"",0,"",NA,"","images/map26_inferno_scaleDef_orientDef_180.png","angry",1,26,26,"inferno","orientDef","scaleDef","180",NA,NA
"","","","","","html-slider-response",48,226126,"0.0-44.0","vtgz8hywh2",62,NA,"<div style=""width:500px;"">
                            <p style=""font-size:50px; font-weight:bold;""
                            >angry</p>
                            <div style=""width:240px; margin: auto;"">
                                <img src=""images/map05_RdPu_scaleDef_orientMir_000.png"" style= ""width:200px""alt=""img"">
                            </div>
                        </div>",0.4925,"",0,"",NA,"","images/map05_RdPu_scaleDef_orientMir_000.png","angry",1,5,5,"RdPu","orientMir","scaleDef","000",NA,NA
"","","","","","html-slider-response",49,227959,"0.0-45.0","vtgz8hywh2",62,NA,"<div style=""width:500px;"">
                            <p style=""font-size:50px; font-weight:bold;""
                            >angry</p>
                            <div style=""width:240px; margin: auto;"">
                                <img src=""images/map05_RdPu_scaleRev_orientMir_090.png"" style= ""width:200px""alt=""img"">
                            </div>
                        </div>",0.4925,"",0,"",NA,"","images/map05_RdPu_scaleRev_orientMir_090.png","angry",1,5,5,"RdPu","orientMir","scaleRev","090",NA,NA
"","","","","","html-slider-response",50,229898,"0.0-46.0","vtgz8hywh2",62,NA,"<div style=""width:500px;"">
                            <p style=""font-size:50px; font-weight:bold;""
                            >angry</p>
                            <div style=""width:240px; margin: auto;"">
                                <img src=""images/map05_BuPu_scaleRev_orientMir_270.png"" style= ""width:200px""alt=""img"">
                            </div>
                        </div>",0.355,"",0,"",NA,"","images/map05_BuPu_scaleRev_orientMir_270.png","angry",1,5,5,"BuPu","orientMir","scaleRev","270",NA,NA
"","","","","","html-slider-response",51,231791,"0.0-47.0","vtgz8hywh2",62,NA,"<div style=""width:500px;"">
                            <p style=""font-size:50px; font-weight:bold;""
                            >angry</p>
                            <div style=""width:240px; margin: auto;"">
                                <img src=""images/map02_YlOrBr_scaleDef_orientMir_000.png"" style= ""width:200px""alt=""img"">
                            </div>
                        </div>",0.8375,"",0,"",NA,"","images/map02_YlOrBr_scaleDef_orientMir_000.png","angry",1,2,2,"YlOrBr","orientMir","scaleDef","000",NA,NA
"","","","","","html-slider-response",52,234852,"0.0-48.0","vtgz8hywh2",62,NA,"<div style=""width:500px;"">
                            <p style=""font-size:50px; font-weight:bold;""
                            >angry</p>
                            <div style=""width:240px; margin: auto;"">
                                <img src=""images/map26_plasma_scaleRev_orientDef_090.png"" style= ""width:200px""alt=""img"">
                            </div>
                        </div>",0.7225,"",0,"",NA,"","images/map26_plasma_scaleRev_orientDef_090.png","angry",1,26,26,"plasma","orientDef","scaleRev","090",NA,NA
"","","","","","html-slider-response",53,237472,"0.0-49.0","vtgz8hywh2",62,NA,"<div style=""width:500px;"">
                            <p style=""font-size:50px; font-weight:bold;""
                            >angry</p>
                            <div style=""width:240px; margin: auto;"">
                                <img src=""images/map15_managua_scaleDef_orientMir_180.png"" style= ""width:200px""alt=""img"">
                            </div>
                        </div>",0.2175,"",0,"",NA,"","images/map15_managua_scaleDef_orientMir_180.png","angry",1,15,15,"managua","orientMir","scaleDef","180",NA,NA
"","","","","","html-slider-response",54,240583,"0.0-50.0","vtgz8hywh2",62,NA,"<div style=""width:500px;"">
                            <p style=""font-size:50px; font-weight:bold;""
                            >angry</p>
                            <div style=""width:240px; margin: auto;"">
                                <img src=""images/map13_Spectral_scaleDef_orientMir_000.png"" style= ""width:200px""alt=""img"">
                            </div>
                        </div>",0.59,"",0,"",NA,"","images/map13_Spectral_scaleDef_orientMir_000.png","angry",1,13,13,"Spectral","orientMir","scaleDef","000",NA,NA
"","","","","","html-slider-response",55,242402,"0.0-51.0","vtgz8hywh2",62,NA,"<div style=""width:500px;"">
                            <p style=""font-size:50px; font-weight:bold;""
                            >angry</p>
                            <div style=""width:240px; margin: auto;"">
                                <img src=""images/map07_PuBuGn_scaleDef_orientMir_180.png"" style= ""width:200px""alt=""img"">
                            </div>
                        </div>",0.3525,"",0,"",NA,"","images/map07_PuBuGn_scaleDef_orientMir_180.png","angry",1,7,7,"PuBuGn","orientMir","scaleDef","180",NA,NA
"","","","","","html-slider-response",56,244163,"0.0-52.0","vtgz8hywh2",62,NA,"<div style=""width:500px;"">
                            <p style=""font-size:50px; font-weight:bold;""
                            >angry</p>
                            <div style=""width:240px; margin: auto;"">
                                <img src=""images/map27_Purples_scaleRev_orientDef_270.png"" style= ""width:200px""alt=""img"">
                            </div>
                        </div>",0.2025,"",0,"",NA,"","images/map27_Purples_scaleRev_orientDef_270.png","angry",1,27,27,"Purples","orientDef","scaleRev","270",NA,NA
"","","","","","html-slider-response",57,246474,"0.0-53.0","vtgz8hywh2",62,NA,"<div style=""width:500px;"">
                            <p style=""font-size:50px; font-weight:bold;""
                            >angry</p>
                            <div style=""width:240px; margin: auto;"">
                                <img src=""images/map26_magma_scaleDef_orientMir_000.png"" style= ""width:200px""alt=""img"">
                            </div>
                        </div>",0.585,"",0,"",NA,"","images/map26_magma_scaleDef_orientMir_000.png","angry",1,26,26,"magma","orientMir","scaleDef","000",NA,NA
"","","","","","html-button-response",58,250145,"0.0-54.0","vtgz8hywh2",62,3168,"<p>You are doing great!<br></br> You are halway done with the current block. When you are ready to continue, click the 'Continue' button.</p>",0.5,"",NA,"",NA,"","","",NA,NA,NA,"","","","",NA,NA
"","","","","","html-slider-response",59,253234,"0.0-55.0","vtgz8hywh2",62,NA,"<div style=""width:500px;"">
                            <p style=""font-size:50px; font-weight:bold;""
                            >angry</p>
                            <div style=""width:240px; margin: auto;"">
                                <img src=""images/map07_YlGnBu_scaleRev_orientMir_090.png"" style= ""width:200px""alt=""img"">
                            </div>
                        </div>",0.22,"",0,"",NA,"","images/map07_YlGnBu_scaleRev_orientMir_090.png","angry",1,7,7,"YlGnBu","orientMir","scaleRev","090",NA,NA
"","","","","","html-slider-response",60,255135,"0.0-56.0","vtgz8hywh2",62,NA,"<div style=""width:500px;"">
                            <p style=""font-size:50px; font-weight:bold;""
                            >angry</p>
                            <div style=""width:240px; margin: auto;"">
                                <img src=""images/map13_RdYlGn_scaleRev_orientDef_270.png"" style= ""width:200px""alt=""img"">
                            </div>
                        </div>",0.595,"",0,"",NA,"","images/map13_RdYlGn_scaleRev_orientDef_270.png","angry",1,13,13,"RdYlGn","orientDef","scaleRev","270",NA,NA
"","","","","","html-slider-response",61,257079,"0.0-57.0","vtgz8hywh2",62,NA,"<div style=""width:500px;"">
                            <p style=""font-size:50px; font-weight:bold;""
                            >angry</p>
                            <div style=""width:240px; margin: auto;"">
                                <img src=""images/map07_GnBu_scaleRev_orientDef_090.png"" style= ""width:200px""alt=""img"">
                            </div>
                        </div>",0.205,"",0,"",NA,"","images/map07_GnBu_scaleRev_orientDef_090.png","angry",1,7,7,"GnBu","orientDef","scaleRev","090",NA,NA
"","","","","","html-slider-response",62,259368,"0.0-58.0","vtgz8hywh2",62,NA,"<div style=""width:500px;"">
                            <p style=""font-size:50px; font-weight:bold;""
                            >angry</p>
                            <div style=""width:240px; margin: auto;"">
                                <img src=""images/map26_cividis_scaleRev_orientMir_270.png"" style= ""width:200px""alt=""img"">
                            </div>
                        </div>",0.585,"",0,"",NA,"","images/map26_cividis_scaleRev_orientMir_270.png","angry",1,26,26,"cividis","orientMir","scaleRev","270",NA,NA
"","","","","","html-slider-response",63,262034,"0.0-59.0","vtgz8hywh2",62,NA,"<div style=""width:500px;"">
                            <p style=""font-size:50px; font-weight:bold;""
                            >angry</p>
                            <div style=""width:240px; margin: auto;"">
                                <img src=""images/map27_Greys_scaleDef_orientDef_000.png"" style= ""width:200px""alt=""img"">
                            </div>
                        </div>",0.505,"",0,"",NA,"","images/map27_Greys_scaleDef_orientDef_000.png","angry",1,27,27,"Greys","orientDef","scaleDef","000",NA,NA
"","","","","","html-slider-response",64,263952,"0.0-60.0","vtgz8hywh2",62,NA,"<div style=""width:500px;"">
                            <p style=""font-size:50px; font-weight:bold;""
                            >angry</p>
                            <div style=""width:240px; margin: auto;"">
                                <img src=""images/map10_PiYG_scaleDef_orientMir_000.png"" style= ""width:200px""alt=""img"">
                            </div>
                        </div>",0.4725,"",0,"",NA,"","images/map10_PiYG_scaleDef_orientMir_000.png","angry",1,10,10,"PiYG","orientMir","scaleDef","000",NA,NA
"","","","","","html-slider-response",65,266493,"0.0-61.0","vtgz8hywh2",62,NA,"<div style=""width:500px;"">
                            <p style=""font-size:50px; font-weight:bold;""
                            >angry</p>
                            <div style=""width:240px; margin: auto;"">
                                <img src=""images/map27_Greens_scaleRev_orientMir_270.png"" style= ""width:200px""alt=""img"">
                            </div>
                        </div>",0.6,"",0,"",NA,"","images/map27_Greens_scaleRev_orientMir_270.png","angry",1,27,27,"Greens","orientMir","scaleRev","270",NA,NA
"","","","","","html-slider-response",66,268497,"0.0-62.0","vtgz8hywh2",62,NA,"<div style=""width:500px;"">
                            <p style=""font-size:50px; font-weight:bold;""
                            >angry</p>
                            <div style=""width:240px; margin: auto;"">
                                <img src=""images/map12_RdBu_scaleDef_orientMir_180.png"" style= ""width:200px""alt=""img"">
                            </div>
                        </div>",0.6025,"",0,"",NA,"","images/map12_RdBu_scaleDef_orientMir_180.png","angry",1,12,12,"RdBu","orientMir","scaleDef","180",NA,NA
"","","","","","html-slider-response",67,270375,"0.0-63.0","vtgz8hywh2",62,NA,"<div style=""width:500px;"">
                            <p style=""font-size:50px; font-weight:bold;""
                            >angry</p>
                            <div style=""width:240px; margin: auto;"">
                                <img src=""images/map26_magma_scaleRev_orientMir_090.png"" style= ""width:200px""alt=""img"">
                            </div>
                        </div>",0.7725,"",0,"",NA,"","images/map26_magma_scaleRev_orientMir_090.png","angry",1,26,26,"magma","orientMir","scaleRev","090",NA,NA
"","","","","","html-slider-response",68,272363,"0.0-64.0","vtgz8hywh2",62,NA,"<div style=""width:500px;"">
                            <p style=""font-size:50px; font-weight:bold;""
                            >angry</p>
                            <div style=""width:240px; margin: auto;"">
                                <img src=""images/map02_Reds_scaleDef_orientDef_180.png"" style= ""width:200px""alt=""img"">
                            </div>
                        </div>",0.91,"",0,"",NA,"","images/map02_Reds_scaleDef_orientDef_180.png","angry",1,2,2,"Reds","orientDef","scaleDef","180",NA,NA
"","","","","","html-slider-response",69,274533,"0.0-65.0","vtgz8hywh2",62,NA,"<div style=""width:500px;"">
                            <p style=""font-size:50px; font-weight:bold;""
                            >angry</p>
                            <div style=""width:240px; margin: auto;"">
                                <img src=""images/map15_berlin_scaleDef_orientMir_000.png"" style= ""width:200px""alt=""img"">
                            </div>
                        </div>",0.745,"",0,"",NA,"","images/map15_berlin_scaleDef_orientMir_000.png","angry",1,15,15,"berlin","orientMir","scaleDef","000",NA,NA
"","","","","","html-slider-response",70,276397,"0.0-66.0","vtgz8hywh2",62,NA,"<div style=""width:500px;"">
                            <p style=""font-size:50px; font-weight:bold;""
                            >angry</p>
                            <div style=""width:240px; margin: auto;"">
                                <img src=""images/map10_YlGn_scaleRev_orientDef_270.png"" style= ""width:200px""alt=""img"">
                            </div>
                        </div>",0.49,"",0,"",NA,"","images/map10_YlGn_scaleRev_orientDef_270.png","angry",1,10,10,"YlGn","orientDef","scaleRev","270",NA,NA
"","","","","","html-slider-response",71,278276,"0.0-67.0","vtgz8hywh2",62,NA,"<div style=""width:500px;"">
                            <p style=""font-size:50px; font-weight:bold;""
                            >angry</p>
                            <div style=""width:240px; margin: auto;"">
                                <img src=""images/map15_seismic_scaleDef_orientDef_180.png"" style= ""width:200px""alt=""img"">
                            </div>
                        </div>",0.7625,"",0,"",NA,"","images/map15_seismic_scaleDef_orientDef_180.png","angry",1,15,15,"seismic","orientDef","scaleDef","180",NA,NA
"","","","","","html-slider-response",72,280070,"0.0-68.0","vtgz8hywh2",62,NA,"<div style=""width:500px;"">
                            <p style=""font-size:50px; font-weight:bold;""
                            >angry</p>
                            <div style=""width:240px; margin: auto;"">
                                <img src=""images/map27_Greens_scaleDef_orientMir_180.png"" style= ""width:200px""alt=""img"">
                            </div>
                        </div>",0.53,"",0,"",NA,"","images/map27_Greens_scaleDef_orientMir_180.png","angry",1,27,27,"Greens","orientMir","scaleDef","180",NA,NA
"","","","","","html-slider-response",73,283032,"0.0-69.0","vtgz8hywh2",62,NA,"<div style=""width:500px;"">
                            <p style=""font-size:50px; font-weight:bold;""
                            >angry</p>
                            <div style=""width:240px; margin: auto;"">
                                <img src=""images/map10_PiYG_scaleRev_orientMir_090.png"" style= ""width:200px""alt=""img"">
                            </div>
                        </div>",0.4725,"",0,"",NA,"","images/map10_PiYG_scaleRev_orientMir_090.png","angry",1,10,10,"PiYG","orientMir","scaleRev","090",NA,NA
"","","","","","html-slider-response",74,285935,"0.0-70.0","vtgz8hywh2",62,NA,"<div style=""width:500px;"">
                            <p style=""font-size:50px; font-weight:bold;""
                            >angry</p>
                            <div style=""width:240px; margin: auto;"">
                                <img src=""images/map12_RdBu_scaleRev_orientMir_270.png"" style= ""width:200px""alt=""img"">
                            </div>
                        </div>",0.5925,"",0,"",NA,"","images/map12_RdBu_scaleRev_orientMir_270.png","angry",1,12,12,"RdBu","orientMir","scaleRev","270",NA,NA
"","","","","","html-slider-response",75,287727,"0.0-71.0","vtgz8hywh2",62,NA,"<div style=""width:500px;"">
                            <p style=""font-size:50px; font-weight:bold;""
                            >angry</p>
                            <div style=""width:240px; margin: auto;"">
                                <img src=""images/map05_OrRd_scaleRev_orientDef_090.png"" style= ""width:200px""alt=""img"">
                            </div>
                        </div>",0.785,"",0,"",NA,"","images/map05_OrRd_scaleRev_orientDef_090.png","angry",1,5,5,"OrRd","orientDef","scaleRev","090",NA,NA
"","","","","","html-slider-response",76,289953,"0.0-72.0","vtgz8hywh2",62,NA,"<div style=""width:500px;"">
                            <p style=""font-size:50px; font-weight:bold;""
                            >angry</p>
                            <div style=""width:240px; margin: auto;"">
                                <img src=""images/map13_RdYlGn_scaleDef_orientDef_180.png"" style= ""width:200px""alt=""img"">
                            </div>
                        </div>",0.82,"",0,"",NA,"","images/map13_RdYlGn_scaleDef_orientDef_180.png","angry",1,13,13,"RdYlGn","orientDef","scaleDef","180",NA,NA
"","","","","","html-slider-response",77,292324,"0.0-73.0","vtgz8hywh2",62,NA,"<div style=""width:500px;"">
                            <p style=""font-size:50px; font-weight:bold;""
                            >angry</p>
                            <div style=""width:240px; margin: auto;"">
                                <img src=""images/map15_bwr_scaleRev_orientDef_090.png"" style= ""width:200px""alt=""img"">
                            </div>
                        </div>",0.775,"",0,"",NA,"","images/map15_bwr_scaleRev_orientDef_090.png","angry",1,15,15,"bwr","orientDef","scaleRev","090",NA,NA
"","","","","","html-slider-response",78,294266,"0.0-74.0","vtgz8hywh2",62,NA,"<div style=""width:500px;"">
                            <p style=""font-size:50px; font-weight:bold;""
                            >angry</p>
                            <div style=""width:240px; margin: auto;"">
                                <img src=""images/map27_Blues_scaleRev_orientMir_090.png"" style= ""width:200px""alt=""img"">
                            </div>
                        </div>",0.1475,"",0,"",NA,"","images/map27_Blues_scaleRev_orientMir_090.png","angry",1,27,27,"Blues","orientMir","scaleRev","090",NA,NA
"","","","","","html-slider-response",79,296358,"0.0-75.0","vtgz8hywh2",62,NA,"<div style=""width:500px;"">
                            <p style=""font-size:50px; font-weight:bold;""
                            >angry</p>
                            <div style=""width:240px; margin: auto;"">
                                <img src=""images/map10_PRGn_scaleRev_orientMir_270.png"" style= ""width:200px""alt=""img"">
                            </div>
                        </div>",0.445,"",0,"",NA,"","images/map10_PRGn_scaleRev_orientMir_270.png","angry",1,10,10,"PRGn","orientMir","scaleRev","270",NA,NA
"","","","","","html-slider-response",80,299540,"0.0-76.0","vtgz8hywh2",62,NA,"<div style=""width:500px;"">
                            <p style=""font-size:50px; font-weight:bold;""
                            >angry</p>
                            <div style=""width:240px; margin: auto;"">
                                <img src=""images/map13_coolwarm_scaleRev_orientMir_270.png"" style= ""width:200px""alt=""img"">
                            </div>
                        </div>",0.575,"",0,"",NA,"","images/map13_coolwarm_scaleRev_orientMir_270.png","angry",1,13,13,"coolwarm","orientMir","scaleRev","270",NA,NA
"","","","","","html-slider-response",81,301477,"0.0-77.0","vtgz8hywh2",62,NA,"<div style=""width:500px;"">
                            <p style=""font-size:50px; font-weight:bold;""
                            >angry</p>
                            <div style=""width:240px; margin: auto;"">
                                <img src=""images/map26_inferno_scaleRev_orientDef_270.png"" style= ""width:200px""alt=""img"">
                            </div>
                        </div>",0.9525,"",0,"",NA,"","images/map26_inferno_scaleRev_orientDef_270.png","angry",1,26,26,"inferno","orientDef","scaleRev","270",NA,NA
"","","","","","html-slider-response",82,304827,"0.0-78.0","vtgz8hywh2",62,NA,"<div style=""width:500px;"">
                            <p style=""font-size:50px; font-weight:bold;""
                            >angry</p>
                            <div style=""width:240px; margin: auto;"">
                                <img src=""images/map15_bwr_scaleDef_orientDef_000.png"" style= ""width:200px""alt=""img"">
                            </div>
                        </div>",0.5325,"",0,"",NA,"","images/map15_bwr_scaleDef_orientDef_000.png","angry",1,15,15,"bwr","orientDef","scaleDef","000",NA,NA
"","","","","","html-slider-response",83,307632,"0.0-79.0","vtgz8hywh2",62,NA,"<div style=""width:500px;"">
                            <p style=""font-size:50px; font-weight:bold;""
                            >angry</p>
                            <div style=""width:240px; margin: auto;"">
                                <img src=""images/map13_RdYlBu_scaleRev_orientDef_090.png"" style= ""width:200px""alt=""img"">
                            </div>
                        </div>",0.575,"",0,"",NA,"","images/map13_RdYlBu_scaleRev_orientDef_090.png","angry",1,13,13,"RdYlBu","orientDef","scaleRev","090",NA,NA
"","","","","","html-slider-response",84,310465,"0.0-80.0","vtgz8hywh2",62,NA,"<div style=""width:500px;"">
                            <p style=""font-size:50px; font-weight:bold;""
                            >angry</p>
                            <div style=""width:240px; margin: auto;"">
                                <img src=""images/map12_RdGy_scaleRev_orientMir_090.png"" style= ""width:200px""alt=""img"">
                            </div>
                        </div>",0.6925,"",0,"",NA,"","images/map12_RdGy_scaleRev_orientMir_090.png","angry",1,12,12,"RdGy","orientMir","scaleRev","090",NA,NA
"","","","","","html-slider-response",85,312954,"0.0-81.0","vtgz8hywh2",62,NA,"<div style=""width:500px;"">
                            <p style=""font-size:50px; font-weight:bold;""
                            >angry</p>
                            <div style=""width:240px; margin: auto;"">
                                <img src=""images/map05_OrRd_scaleDef_orientDef_000.png"" style= ""width:200px""alt=""img"">
                            </div>
                        </div>",0.895,"",0,"",NA,"","images/map05_OrRd_scaleDef_orientDef_000.png","angry",1,5,5,"OrRd","orientDef","scaleDef","000",NA,NA
"","","","","","html-slider-response",86,314986,"0.0-82.0","vtgz8hywh2",62,NA,"<div style=""width:500px;"">
                            <p style=""font-size:50px; font-weight:bold;""
                            >angry</p>
                            <div style=""width:240px; margin: auto;"">
                                <img src=""images/map12_BrBG_scaleRev_orientDef_090.png"" style= ""width:200px""alt=""img"">
                            </div>
                        </div>",0.4525,"",0,"",NA,"","images/map12_BrBG_scaleRev_orientDef_090.png","angry",1,12,12,"BrBG","orientDef","scaleRev","090",NA,NA
"","","","","","html-slider-response",87,317552,"0.0-83.0","vtgz8hywh2",62,NA,"<div style=""width:500px;"">
                            <p style=""font-size:50px; font-weight:bold;""
                            >angry</p>
                            <div style=""width:240px; margin: auto;"">
                                <img src=""images/map23_turbo_scaleRev_orientMir_090.png"" style= ""width:200px""alt=""img"">
                            </div>
                        </div>",0.49,"",0,"",NA,"","images/map23_turbo_scaleRev_orientMir_090.png","angry",1,23,23,"turbo","orientMir","scaleRev","090",NA,NA
"","","","","","html-slider-response",88,319232,"0.0-84.0","vtgz8hywh2",62,NA,"<div style=""width:500px;"">
                            <p style=""font-size:50px; font-weight:bold;""
                            >angry</p>
                            <div style=""width:240px; margin: auto;"">
                                <img src=""images/map23_vanimo_scaleRev_orientDef_090.png"" style= ""width:200px""alt=""img"">
                            </div>
                        </div>",0.4625,"",0,"",NA,"","images/map23_vanimo_scaleRev_orientDef_090.png","angry",1,23,23,"vanimo","orientDef","scaleRev","090",NA,NA
"","","","","","html-slider-response",89,321063,"0.0-85.0","vtgz8hywh2",62,NA,"<div style=""width:500px;"">
                            <p style=""font-size:50px; font-weight:bold;""
                            >angry</p>
                            <div style=""width:240px; margin: auto;"">
                                <img src=""images/map10_PRGn_scaleDef_orientMir_180.png"" style= ""width:200px""alt=""img"">
                            </div>
                        </div>",0.475,"",0,"",NA,"","images/map10_PRGn_scaleDef_orientMir_180.png","angry",1,10,10,"PRGn","orientMir","scaleDef","180",NA,NA
"","","","","","html-slider-response",90,322686,"0.0-86.0","vtgz8hywh2",62,NA,"<div style=""width:500px;"">
                            <p style=""font-size:50px; font-weight:bold;""
                            >angry</p>
                            <div style=""width:240px; margin: auto;"">
                                <img src=""images/map23_gist_earth_scaleRev_orientDef_270.png"" style= ""width:200px""alt=""img"">
                            </div>
                        </div>",0.4775,"",0,"",NA,"","images/map23_gist_earth_scaleRev_orientDef_270.png","angry",1,23,23,"gist","scaleRev","earth","orientDef",NA,NA
"","","","","","html-slider-response",91,324268,"0.0-87.0","vtgz8hywh2",62,NA,"<div style=""width:500px;"">
                            <p style=""font-size:50px; font-weight:bold;""
                            >angry</p>
                            <div style=""width:240px; margin: auto;"">
                                <img src=""images/map23_turbo_scaleDef_orientMir_000.png"" style= ""width:200px""alt=""img"">
                            </div>
                        </div>",0.4525,"",0,"",NA,"","images/map23_turbo_scaleDef_orientMir_000.png","angry",1,23,23,"turbo","orientMir","scaleDef","000",NA,NA
"","","","","","html-slider-response",92,326480,"0.0-88.0","vtgz8hywh2",62,NA,"<div style=""width:500px;"">
                            <p style=""font-size:50px; font-weight:bold;""
                            >angry</p>
                            <div style=""width:240px; margin: auto;"">
                                <img src=""images/map02_Oranges_scaleDef_orientDef_000.png"" style= ""width:200px""alt=""img"">
                            </div>
                        </div>",0.8275,"",0,"",NA,"","images/map02_Oranges_scaleDef_orientDef_000.png","angry",1,2,2,"Oranges","orientDef","scaleDef","000",NA,NA
"","","","","","html-slider-response",93,328802,"0.0-89.0","vtgz8hywh2",62,NA,"<div style=""width:500px;"">
                            <p style=""font-size:50px; font-weight:bold;""
                            >angry</p>
                            <div style=""width:240px; margin: auto;"">
                                <img src=""images/map15_berlin_scaleRev_orientMir_090.png"" style= ""width:200px""alt=""img"">
                            </div>
                        </div>",0.95,"",0,"",NA,"","images/map15_berlin_scaleRev_orientMir_090.png","angry",1,15,15,"berlin","orientMir","scaleRev","090",NA,NA
"","","","","","html-slider-response",94,330698,"0.0-90.0","vtgz8hywh2",62,NA,"<div style=""width:500px;"">
                            <p style=""font-size:50px; font-weight:bold;""
                            >angry</p>
                            <div style=""width:240px; margin: auto;"">
                                <img src=""images/map13_Spectral_scaleRev_orientMir_090.png"" style= ""width:200px""alt=""img"">
                            </div>
                        </div>",0.465,"",0,"",NA,"","images/map13_Spectral_scaleRev_orientMir_090.png","angry",1,13,13,"Spectral","orientMir","scaleRev","090",NA,NA
"","","","","","html-slider-response",95,332576,"0.0-91.0","vtgz8hywh2",62,NA,"<div style=""width:500px;"">
                            <p style=""font-size:50px; font-weight:bold;""
                            >angry</p>
                            <div style=""width:240px; margin: auto;"">
                                <img src=""images/map07_PuBuGn_scaleRev_orientMir_270.png"" style= ""width:200px""alt=""img"">
                            </div>
                        </div>",0.2225,"",0,"",NA,"","images/map07_PuBuGn_scaleRev_orientMir_270.png","angry",1,7,7,"PuBuGn","orientMir","scaleRev","270",NA,NA
"","","","","","html-slider-response",96,335176,"0.0-92.0","vtgz8hywh2",62,NA,"<div style=""width:500px;"">
                            <p style=""font-size:50px; font-weight:bold;""
                            >angry</p>
                            <div style=""width:240px; margin: auto;"">
                                <img src=""images/map12_PuOr_scaleRev_orientDef_270.png"" style= ""width:200px""alt=""img"">
                            </div>
                        </div>",0.665,"",0,"",NA,"","images/map12_PuOr_scaleRev_orientDef_270.png","angry",1,12,12,"PuOr","orientDef","scaleRev","270",NA,NA
"","","","","","html-slider-response",97,337164,"0.0-93.0","vtgz8hywh2",62,NA,"<div style=""width:500px;"">
                            <p style=""font-size:50px; font-weight:bold;""
                            >angry</p>
                            <div style=""width:240px; margin: auto;"">
                                <img src=""images/map12_PuOr_scaleDef_orientDef_180.png"" style= ""width:200px""alt=""img"">
                            </div>
                        </div>",0.7175,"",0,"",NA,"","images/map12_PuOr_scaleDef_orientDef_180.png","angry",1,12,12,"PuOr","orientDef","scaleDef","180",NA,NA
"","","","","","html-slider-response",98,339278,"0.0-94.0","vtgz8hywh2",62,NA,"<div style=""width:500px;"">
                            <p style=""font-size:50px; font-weight:bold;""
                            >angry</p>
                            <div style=""width:240px; margin: auto;"">
                                <img src=""images/map23_gist_earth_scaleDef_orientDef_180.png"" style= ""width:200px""alt=""img"">
                            </div>
                        </div>",0.255,"",0,"",NA,"","images/map23_gist_earth_scaleDef_orientDef_180.png","angry",1,23,23,"gist","scaleDef","earth","orientDef",NA,NA
"","","","","","html-button-response",99,341124,"0.0-95.0","vtgz8hywh2",62,1344,"<p>Great Job! You've finished block 1.<br></br> You have 4 block(s) left to go.<br></br></p>",0.5,"",NA,"",NA,"","","",NA,NA,NA,"","","","",NA,NA
"","","","","","html-button-response",100,342357,"0.0-96.0","vtgz8hywh2",62,1231,"<p>In this block of trials, you will be asked to rate how much you associate each map with:</p > <p style = 'font-size:150%; font-weight: bold'>sad</p><br></br>",0.5,"",NA,"",NA,"","","",NA,NA,NA,"","","","",NA,NA
"","","","","","html-slider-response",101,346498,"0.0-97.0","vtgz8hywh2",62,NA,"<div style=""width:500px;"">
                            <p style=""font-size:50px; font-weight:bold;""
                            >sad</p>
                            <div style=""width:240px; margin: auto;"">
                                <img src=""images/map07_PuBu_scaleRev_orientDef_270.png"" style= ""width:200px""alt=""img"">
                            </div>
                        </div>",0.7625,"",0,"",NA,"","images/map07_PuBu_scaleRev_orientDef_270.png","sad",1,7,7,"PuBu","orientDef","scaleRev","270",NA,NA
"","","","","","html-slider-response",102,349202,"0.0-98.0","vtgz8hywh2",62,NA,"<div style=""width:500px;"">
                            <p style=""font-size:50px; font-weight:bold;""
                            >sad</p>
                            <div style=""width:240px; margin: auto;"">
                                <img src=""images/map12_RdGy_scaleDef_orientMir_000.png"" style= ""width:200px""alt=""img"">
                            </div>
                        </div>",0,"",0,"",NA,"","images/map12_RdGy_scaleDef_orientMir_000.png","sad",1,12,12,"RdGy","orientMir","scaleDef","000",NA,NA
"","","","","","html-slider-response",103,351652,"0.0-99.0","vtgz8hywh2",62,NA,"<div style=""width:500px;"">
                            <p style=""font-size:50px; font-weight:bold;""
                            >sad</p>
                            <div style=""width:240px; margin: auto;"">
                                <img src=""images/map13_coolwarm_scaleDef_orientMir_180.png"" style= ""width:200px""alt=""img"">
                            </div>
                        </div>",0.525,"",0,"",NA,"","images/map13_coolwarm_scaleDef_orientMir_180.png","sad",1,13,13,"coolwarm","orientMir","scaleDef","180",NA,NA
"","","","","","html-slider-response",104,353299,"0.0-100.0","vtgz8hywh2",62,NA,"<div style=""width:500px;"">
                            <p style=""font-size:50px; font-weight:bold;""
                            >sad</p>
                            <div style=""width:240px; margin: auto;"">
                                <img src=""images/map02_Oranges_scaleRev_orientDef_090.png"" style= ""width:200px""alt=""img"">
                            </div>
                        </div>",0,"",0,"",NA,"","images/map02_Oranges_scaleRev_orientDef_090.png","sad",1,2,2,"Oranges","orientDef","scaleRev","090",NA,NA
"","","","","","html-slider-response",105,355211,"0.0-101.0","vtgz8hywh2",62,NA,"<div style=""width:500px;"">
                            <p style=""font-size:50px; font-weight:bold;""
                            >sad</p>
                            <div style=""width:240px; margin: auto;"">
                                <img src=""images/map26_magma_scaleDef_orientMir_000.png"" style= ""width:200px""alt=""img"">
                            </div>
                        </div>",0,"",0,"",NA,"","images/map26_magma_scaleDef_orientMir_000.png","sad",1,26,26,"magma","orientMir","scaleDef","000",NA,NA
"","","","","","html-slider-response",106,357602,"0.0-102.0","vtgz8hywh2",62,NA,"<div style=""width:500px;"">
                            <p style=""font-size:50px; font-weight:bold;""
                            >sad</p>
                            <div style=""width:240px; margin: auto;"">
                                <img src=""images/map27_Greens_scaleRev_orientMir_270.png"" style= ""width:200px""alt=""img"">
                            </div>
                        </div>",0.4875,"",0,"",NA,"","images/map27_Greens_scaleRev_orientMir_270.png","sad",1,27,27,"Greens","orientMir","scaleRev","270",NA,NA
"","","","","","html-slider-response",107,361064,"0.0-103.0","vtgz8hywh2",62,NA,"<div style=""width:500px;"">
                            <p style=""font-size:50px; font-weight:bold;""
                            >sad</p>
                            <div style=""width:240px; margin: auto;"">
                                <img src=""images/map15_berlin_scaleDef_orientMir_000.png"" style= ""width:200px""alt=""img"">
                            </div>
                        </div>",0.485,"",0,"",NA,"","images/map15_berlin_scaleDef_orientMir_000.png","sad",1,15,15,"berlin","orientMir","scaleDef","000",NA,NA
"","","","","","html-slider-response",108,362664,"0.0-104.0","vtgz8hywh2",62,NA,"<div style=""width:500px;"">
                            <p style=""font-size:50px; font-weight:bold;""
                            >sad</p>
                            <div style=""width:240px; margin: auto;"">
                                <img src=""images/map26_plasma_scaleRev_orientDef_090.png"" style= ""width:200px""alt=""img"">
                            </div>
                        </div>",0,"",0,"",NA,"","images/map26_plasma_scaleRev_orientDef_090.png","sad",1,26,26,"plasma","orientDef","scaleRev","090",NA,NA
"","","","","","html-slider-response",109,364318,"0.0-105.0","vtgz8hywh2",62,NA,"<div style=""width:500px;"">
                            <p style=""font-size:50px; font-weight:bold;""
                            >sad</p>
                            <div style=""width:240px; margin: auto;"">
                                <img src=""images/map02_YlOrRd_scaleDef_orientMir_180.png"" style= ""width:200px""alt=""img"">
                            </div>
                        </div>",0,"",0,"",NA,"","images/map02_YlOrRd_scaleDef_orientMir_180.png","sad",1,2,2,"YlOrRd","orientMir","scaleDef","180",NA,NA
"","","","","","html-slider-response",110,366490,"0.0-106.0","vtgz8hywh2",62,NA,"<div style=""width:500px;"">
                            <p style=""font-size:50px; font-weight:bold;""
                            >sad</p>
                            <div style=""width:240px; margin: auto;"">
                                <img src=""images/map23_gist_earth_scaleRev_orientDef_270.png"" style= ""width:200px""alt=""img"">
                            </div>
                        </div>",0.465,"",0,"",NA,"","images/map23_gist_earth_scaleRev_orientDef_270.png","sad",1,23,23,"gist","scaleRev","earth","orientDef",NA,NA
"","","","","","html-slider-response",111,371170,"0.0-107.0","vtgz8hywh2",62,NA,"<div style=""width:500px;"">
                            <p style=""font-size:50px; font-weight:bold;""
                            >sad</p>
                            <div style=""width:240px; margin: auto;"">
                                <img src=""images/map23_vanimo_scaleRev_orientDef_090.png"" style= ""width:200px""alt=""img"">
                            </div>
                        </div>",0.3375,"",0,"",NA,"","images/map23_vanimo_scaleRev_orientDef_090.png","sad",1,23,23,"vanimo","orientDef","scaleRev","090",NA,NA
"","","","","","html-slider-response",112,373666,"0.0-108.0","vtgz8hywh2",62,NA,"<div style=""width:500px;"">
                            <p style=""font-size:50px; font-weight:bold;""
                            >sad</p>
                            <div style=""width:240px; margin: auto;"">
                                <img src=""images/map15_bwr_scaleDef_orientDef_000.png"" style= ""width:200px""alt=""img"">
                            </div>
                        </div>",0,"",0,"",NA,"","images/map15_bwr_scaleDef_orientDef_000.png","sad",1,15,15,"bwr","orientDef","scaleDef","000",NA,NA
"","","","","","html-slider-response",113,375593,"0.0-109.0","vtgz8hywh2",62,NA,"<div style=""width:500px;"">
                            <p style=""font-size:50px; font-weight:bold;""
                            >sad</p>
                            <div style=""width:240px; margin: auto;"">
                                <img src=""images/map23_vanimo_scaleDef_orientDef_000.png"" style= ""width:200px""alt=""img"">
                            </div>
                        </div>",0,"",0,"",NA,"","images/map23_vanimo_scaleDef_orientDef_000.png","sad",1,23,23,"vanimo","orientDef","scaleDef","000",NA,NA
"","","","","","html-slider-response",114,377211,"0.0-110.0","vtgz8hywh2",62,NA,"<div style=""width:500px;"">
                            <p style=""font-size:50px; font-weight:bold;""
                            >sad</p>
                            <div style=""width:240px; margin: auto;"">
                                <img src=""images/map10_PiYG_scaleRev_orientMir_090.png"" style= ""width:200px""alt=""img"">
                            </div>
                        </div>",0,"",0,"",NA,"","images/map10_PiYG_scaleRev_orientMir_090.png","sad",1,10,10,"PiYG","orientMir","scaleRev","090",NA,NA
"","","","","","html-slider-response",115,379626,"0.0-111.0","vtgz8hywh2",62,NA,"<div style=""width:500px;"">
                            <p style=""font-size:50px; font-weight:bold;""
                            >sad</p>
                            <div style=""width:240px; margin: auto;"">
                                <img src=""images/map07_GnBu_scaleDef_orientDef_000.png"" style= ""width:200px""alt=""img"">
                            </div>
                        </div>",0.6375,"",0,"",NA,"","images/map07_GnBu_scaleDef_orientDef_000.png","sad",1,7,7,"GnBu","orientDef","scaleDef","000",NA,NA
"","","","","","html-slider-response",116,381377,"0.0-112.0","vtgz8hywh2",62,NA,"<div style=""width:500px;"">
                            <p style=""font-size:50px; font-weight:bold;""
                            >sad</p>
                            <div style=""width:240px; margin: auto;"">
                                <img src=""images/map26_inferno_scaleDef_orientDef_180.png"" style= ""width:200px""alt=""img"">
                            </div>
                        </div>",0,"",0,"",NA,"","images/map26_inferno_scaleDef_orientDef_180.png","sad",1,26,26,"inferno","orientDef","scaleDef","180",NA,NA
"","","","","","html-slider-response",117,383310,"0.0-113.0","vtgz8hywh2",62,NA,"<div style=""width:500px;"">
                            <p style=""font-size:50px; font-weight:bold;""
                            >sad</p>
                            <div style=""width:240px; margin: auto;"">
                                <img src=""images/map12_RdBu_scaleRev_orientMir_270.png"" style= ""width:200px""alt=""img"">
                            </div>
                        </div>",0.41,"",0,"",NA,"","images/map12_RdBu_scaleRev_orientMir_270.png","sad",1,12,12,"RdBu","orientMir","scaleRev","270",NA,NA
"","","","","","html-slider-response",118,385219,"0.0-114.0","vtgz8hywh2",62,NA,"<div style=""width:500px;"">
                            <p style=""font-size:50px; font-weight:bold;""
                            >sad</p>
                            <div style=""width:240px; margin: auto;"">
                                <img src=""images/map15_managua_scaleDef_orientMir_180.png"" style= ""width:200px""alt=""img"">
                            </div>
                        </div>",0.54,"",0,"",NA,"","images/map15_managua_scaleDef_orientMir_180.png","sad",1,15,15,"managua","orientMir","scaleDef","180",NA,NA
"","","","","","html-slider-response",119,387281,"0.0-115.0","vtgz8hywh2",62,NA,"<div style=""width:500px;"">
                            <p style=""font-size:50px; font-weight:bold;""
                            >sad</p>
                            <div style=""width:240px; margin: auto;"">
                                <img src=""images/map15_managua_scaleRev_orientMir_270.png"" style= ""width:200px""alt=""img"">
                            </div>
                        </div>",0.565,"",0,"",NA,"","images/map15_managua_scaleRev_orientMir_270.png","sad",1,15,15,"managua","orientMir","scaleRev","270",NA,NA
"","","","","","html-slider-response",120,389371,"0.0-116.0","vtgz8hywh2",62,NA,"<div style=""width:500px;"">
                            <p style=""font-size:50px; font-weight:bold;""
                            >sad</p>
                            <div style=""width:240px; margin: auto;"">
                                <img src=""images/map27_Purples_scaleDef_orientDef_180.png"" style= ""width:200px""alt=""img"">
                            </div>
                        </div>",0.685,"",0,"",NA,"","images/map27_Purples_scaleDef_orientDef_180.png","sad",1,27,27,"Purples","orientDef","scaleDef","180",NA,NA
"","","","","","html-slider-response",121,390971,"0.0-117.0","vtgz8hywh2",62,NA,"<div style=""width:500px;"">
                            <p style=""font-size:50px; font-weight:bold;""
                            >sad</p>
                            <div style=""width:240px; margin: auto;"">
                                <img src=""images/map12_RdBu_scaleDef_orientMir_180.png"" style= ""width:200px""alt=""img"">
                            </div>
                        </div>",0,"",0,"",NA,"","images/map12_RdBu_scaleDef_orientMir_180.png","sad",1,12,12,"RdBu","orientMir","scaleDef","180",NA,NA
"","","","","","html-slider-response",122,393464,"0.0-118.0","vtgz8hywh2",62,NA,"<div style=""width:500px;"">
                            <p style=""font-size:50px; font-weight:bold;""
                            >sad</p>
                            <div style=""width:240px; margin: auto;"">
                                <img src=""images/map27_Blues_scaleRev_orientMir_090.png"" style= ""width:200px""alt=""img"">
                            </div>
                        </div>",0.91,"",0,"",NA,"","images/map27_Blues_scaleRev_orientMir_090.png","sad",1,27,27,"Blues","orientMir","scaleRev","090",NA,NA
"","","","","","html-slider-response",123,395817,"0.0-119.0","vtgz8hywh2",62,NA,"<div style=""width:500px;"">
                            <p style=""font-size:50px; font-weight:bold;""
                            >sad</p>
                            <div style=""width:240px; margin: auto;"">
                                <img src=""images/map27_Purples_scaleRev_orientDef_270.png"" style= ""width:200px""alt=""img"">
                            </div>
                        </div>",0.9125,"",0,"",NA,"","images/map27_Purples_scaleRev_orientDef_270.png","sad",1,27,27,"Purples","orientDef","scaleRev","270",NA,NA
"","","","","","html-slider-response",124,397647,"0.0-120.0","vtgz8hywh2",62,NA,"<div style=""width:500px;"">
                            <p style=""font-size:50px; font-weight:bold;""
                            >sad</p>
                            <div style=""width:240px; margin: auto;"">
                                <img src=""images/map05_OrRd_scaleDef_orientDef_000.png"" style= ""width:200px""alt=""img"">
                            </div>
                        </div>",0,"",0,"",NA,"","images/map05_OrRd_scaleDef_orientDef_000.png","sad",1,5,5,"OrRd","orientDef","scaleDef","000",NA,NA
"","","","","","html-slider-response",125,399511,"0.0-121.0","vtgz8hywh2",62,NA,"<div style=""width:500px;"">
                            <p style=""font-size:50px; font-weight:bold;""
                            >sad</p>
                            <div style=""width:240px; margin: auto;"">
                                <img src=""images/map02_YlOrBr_scaleRev_orientMir_090.png"" style= ""width:200px""alt=""img"">
                            </div>
                        </div>",0,"",0,"",NA,"","images/map02_YlOrBr_scaleRev_orientMir_090.png","sad",1,2,2,"YlOrBr","orientMir","scaleRev","090",NA,NA
"","","","","","html-slider-response",126,401332,"0.0-122.0","vtgz8hywh2",62,NA,"<div style=""width:500px;"">
                            <p style=""font-size:50px; font-weight:bold;""
                            >sad</p>
                            <div style=""width:240px; margin: auto;"">
                                <img src=""images/map15_berlin_scaleRev_orientMir_090.png"" style= ""width:200px""alt=""img"">
                            </div>
                        </div>",0,"",0,"",NA,"","images/map15_berlin_scaleRev_orientMir_090.png","sad",1,15,15,"berlin","orientMir","scaleRev","090",NA,NA
"","","","","","html-slider-response",127,403400,"0.0-123.0","vtgz8hywh2",62,NA,"<div style=""width:500px;"">
                            <p style=""font-size:50px; font-weight:bold;""
                            >sad</p>
                            <div style=""width:240px; margin: auto;"">
                                <img src=""images/map05_BuPu_scaleDef_orientMir_180.png"" style= ""width:200px""alt=""img"">
                            </div>
                        </div>",0.68,"",0,"",NA,"","images/map05_BuPu_scaleDef_orientMir_180.png","sad",1,5,5,"BuPu","orientMir","scaleDef","180",NA,NA
"","","","","","html-slider-response",128,405549,"0.0-124.0","vtgz8hywh2",62,NA,"<div style=""width:500px;"">
                            <p style=""font-size:50px; font-weight:bold;""
                            >sad</p>
                            <div style=""width:240px; margin: auto;"">
                                <img src=""images/map02_YlOrRd_scaleRev_orientMir_270.png"" style= ""width:200px""alt=""img"">
                            </div>
                        </div>",0,"",0,"",NA,"","images/map02_YlOrRd_scaleRev_orientMir_270.png","sad",1,2,2,"YlOrRd","orientMir","scaleRev","270",NA,NA
"","","","","","html-slider-response",129,408532,"0.0-125.0","vtgz8hywh2",62,NA,"<div style=""width:500px;"">
                            <p style=""font-size:50px; font-weight:bold;""
                            >sad</p>
                            <div style=""width:240px; margin: auto;"">
                                <img src=""images/map07_PuBuGn_scaleDef_orientMir_180.png"" style= ""width:200px""alt=""img"">
                            </div>
                        </div>",0.955,"",0,"",NA,"","images/map07_PuBuGn_scaleDef_orientMir_180.png","sad",1,7,7,"PuBuGn","orientMir","scaleDef","180",NA,NA
"","","","","","html-slider-response",130,410562,"0.0-126.0","vtgz8hywh2",62,NA,"<div style=""width:500px;"">
                            <p style=""font-size:50px; font-weight:bold;""
                            >sad</p>
                            <div style=""width:240px; margin: auto;"">
                                <img src=""images/map02_Oranges_scaleDef_orientDef_000.png"" style= ""width:200px""alt=""img"">
                            </div>
                        </div>",0,"",0,"",NA,"","images/map02_Oranges_scaleDef_orientDef_000.png","sad",1,2,2,"Oranges","orientDef","scaleDef","000",NA,NA
"","","","","","html-slider-response",131,412776,"0.0-127.0","vtgz8hywh2",62,NA,"<div style=""width:500px;"">
                            <p style=""font-size:50px; font-weight:bold;""
                            >sad</p>
                            <div style=""width:240px; margin: auto;"">
                                <img src=""images/map10_PRGn_scaleDef_orientMir_180.png"" style= ""width:200px""alt=""img"">
                            </div>
                        </div>",0,"",0,"",NA,"","images/map10_PRGn_scaleDef_orientMir_180.png","sad",1,10,10,"PRGn","orientMir","scaleDef","180",NA,NA
"","","","","","html-slider-response",132,417102,"0.0-128.0","vtgz8hywh2",62,NA,"<div style=""width:500px;"">
                            <p style=""font-size:50px; font-weight:bold;""
                            >sad</p>
                            <div style=""width:240px; margin: auto;"">
                                <img src=""images/map10_YlGn_scaleRev_orientDef_270.png"" style= ""width:200px""alt=""img"">
                            </div>
                        </div>",0.535,"",0,"",NA,"","images/map10_YlGn_scaleRev_orientDef_270.png","sad",1,10,10,"YlGn","orientDef","scaleRev","270",NA,NA
"","","","","","html-slider-response",133,418912,"0.0-129.0","vtgz8hywh2",62,NA,"<div style=""width:500px;"">
                            <p style=""font-size:50px; font-weight:bold;""
                            >sad</p>
                            <div style=""width:240px; margin: auto;"">
                                <img src=""images/map15_seismic_scaleDef_orientDef_180.png"" style= ""width:200px""alt=""img"">
                            </div>
                        </div>",0,"",0,"",NA,"","images/map15_seismic_scaleDef_orientDef_180.png","sad",1,15,15,"seismic","orientDef","scaleDef","180",NA,NA
"","","","","","html-slider-response",134,422566,"0.0-130.0","vtgz8hywh2",62,NA,"<div style=""width:500px;"">
                            <p style=""font-size:50px; font-weight:bold;""
                            >sad</p>
                            <div style=""width:240px; margin: auto;"">
                                <img src=""images/map10_YlGn_scaleDef_orientDef_180.png"" style= ""width:200px""alt=""img"">
                            </div>
                        </div>",0.0975,"",0,"",NA,"","images/map10_YlGn_scaleDef_orientDef_180.png","sad",1,10,10,"YlGn","orientDef","scaleDef","180",NA,NA
"","","","","","html-slider-response",135,424947,"0.0-131.0","vtgz8hywh2",62,NA,"<div style=""width:500px;"">
                            <p style=""font-size:50px; font-weight:bold;""
                            >sad</p>
                            <div style=""width:240px; margin: auto;"">
                                <img src=""images/map10_BuGn_scaleDef_orientDef_000.png"" style= ""width:200px""alt=""img"">
                            </div>
                        </div>",0.65,"",0,"",NA,"","images/map10_BuGn_scaleDef_orientDef_000.png","sad",1,10,10,"BuGn","orientDef","scaleDef","000",NA,NA
"","","","","","html-slider-response",136,427158,"0.0-132.0","vtgz8hywh2",62,NA,"<div style=""width:500px;"">
                            <p style=""font-size:50px; font-weight:bold;""
                            >sad</p>
                            <div style=""width:240px; margin: auto;"">
                                <img src=""images/map23_viridis_scaleRev_orientMir_270.png"" style= ""width:200px""alt=""img"">
                            </div>
                        </div>",0.5925,"",0,"",NA,"","images/map23_viridis_scaleRev_orientMir_270.png","sad",1,23,23,"viridis","orientMir","scaleRev","270",NA,NA
"","","","","","html-slider-response",137,429154,"0.0-133.0","vtgz8hywh2",62,NA,"<div style=""width:500px;"">
                            <p style=""font-size:50px; font-weight:bold;""
                            >sad</p>
                            <div style=""width:240px; margin: auto;"">
                                <img src=""images/map23_gist_earth_scaleDef_orientDef_180.png"" style= ""width:200px""alt=""img"">
                            </div>
                        </div>",0.5225,"",0,"",NA,"","images/map23_gist_earth_scaleDef_orientDef_180.png","sad",1,23,23,"gist","scaleDef","earth","orientDef",NA,NA
"","","","","","html-slider-response",138,430618,"0.0-134.0","vtgz8hywh2",62,NA,"<div style=""width:500px;"">
                            <p style=""font-size:50px; font-weight:bold;""
                            >sad</p>
                            <div style=""width:240px; margin: auto;"">
                                <img src=""images/map26_inferno_scaleRev_orientDef_270.png"" style= ""width:200px""alt=""img"">
                            </div>
                        </div>",0,"",0,"",NA,"","images/map26_inferno_scaleRev_orientDef_270.png","sad",1,26,26,"inferno","orientDef","scaleRev","270",NA,NA
"","","","","","html-slider-response",139,432718,"0.0-135.0","vtgz8hywh2",62,NA,"<div style=""width:500px;"">
                            <p style=""font-size:50px; font-weight:bold;""
                            >sad</p>
                            <div style=""width:240px; margin: auto;"">
                                <img src=""images/map13_Spectral_scaleRev_orientMir_090.png"" style= ""width:200px""alt=""img"">
                            </div>
                        </div>",0,"",0,"",NA,"","images/map13_Spectral_scaleRev_orientMir_090.png","sad",1,13,13,"Spectral","orientMir","scaleRev","090",NA,NA
"","","","","","html-slider-response",140,435379,"0.0-136.0","vtgz8hywh2",62,NA,"<div style=""width:500px;"">
                            <p style=""font-size:50px; font-weight:bold;""
                            >sad</p>
                            <div style=""width:240px; margin: auto;"">
                                <img src=""images/map27_Greys_scaleDef_orientDef_000.png"" style= ""width:200px""alt=""img"">
                            </div>
                        </div>",0.775,"",0,"",NA,"","images/map27_Greys_scaleDef_orientDef_000.png","sad",1,27,27,"Greys","orientDef","scaleDef","000",NA,NA
"","","","","","html-button-response",141,436980,"0.0-137.0","vtgz8hywh2",62,1099,"<p>You are doing great!<br></br> You are halway done with the current block. When you are ready to continue, click the 'Continue' button.</p>",0.5,"",NA,"",NA,"","","",NA,NA,NA,"","","","",NA,NA
"","","","","","html-slider-response",142,439245,"0.0-138.0","vtgz8hywh2",62,NA,"<div style=""width:500px;"">
                            <p style=""font-size:50px; font-weight:bold;""
                            >sad</p>
                            <div style=""width:240px; margin: auto;"">
                                <img src=""images/map07_PuBuGn_scaleRev_orientMir_270.png"" style= ""width:200px""alt=""img"">
                            </div>
                        </div>",0.8875,"",0,"",NA,"","images/map07_PuBuGn_scaleRev_orientMir_270.png","sad",1,7,7,"PuBuGn","orientMir","scaleRev","270",NA,NA
"","","","","","html-slider-response",143,444598,"0.0-139.0","vtgz8hywh2",62,NA,"<div style=""width:500px;"">
                            <p style=""font-size:50px; font-weight:bold;""
                            >sad</p>
                            <div style=""width:240px; margin: auto;"">
                                <img src=""images/map12_PuOr_scaleRev_orientDef_270.png"" style= ""width:200px""alt=""img"">
                            </div>
                        </div>",0.095,"",0,"",NA,"","images/map12_PuOr_scaleRev_orientDef_270.png","sad",1,12,12,"PuOr","orientDef","scaleRev","270",NA,NA
"","","","","","html-slider-response",144,447081,"0.0-140.0","vtgz8hywh2",62,NA,"<div style=""width:500px;"">
                            <p style=""font-size:50px; font-weight:bold;""
                            >sad</p>
                            <div style=""width:240px; margin: auto;"">
                                <img src=""images/map07_YlGnBu_scaleDef_orientMir_000.png"" style= ""width:200px""alt=""img"">
                            </div>
                        </div>",0.875,"",0,"",NA,"","images/map07_YlGnBu_scaleDef_orientMir_000.png","sad",1,7,7,"YlGnBu","orientMir","scaleDef","000",NA,NA
"","","","","","html-slider-response",145,450554,"0.0-141.0","vtgz8hywh2",62,NA,"<div style=""width:500px;"">
                            <p style=""font-size:50px; font-weight:bold;""
                            >sad</p>
                            <div style=""width:240px; margin: auto;"">
                                <img src=""images/map15_seismic_scaleRev_orientDef_270.png"" style= ""width:200px""alt=""img"">
                            </div>
                        </div>",0.4425,"",0,"",NA,"","images/map15_seismic_scaleRev_orientDef_270.png","sad",1,15,15,"seismic","orientDef","scaleRev","270",NA,NA
"","","","","","html-slider-response",146,452650,"0.0-142.0","vtgz8hywh2",62,NA,"<div style=""width:500px;"">
                            <p style=""font-size:50px; font-weight:bold;""
                            >sad</p>
                            <div style=""width:240px; margin: auto;"">
                                <img src=""images/map05_BuPu_scaleRev_orientMir_270.png"" style= ""width:200px""alt=""img"">
                            </div>
                        </div>",0.7725,"",0,"",NA,"","images/map05_BuPu_scaleRev_orientMir_270.png","sad",1,5,5,"BuPu","orientMir","scaleRev","270",NA,NA
"","","","","","html-slider-response",147,455279,"0.0-143.0","vtgz8hywh2",62,NA,"<div style=""width:500px;"">
                            <p style=""font-size:50px; font-weight:bold;""
                            >sad</p>
                            <div style=""width:240px; margin: auto;"">
                                <img src=""images/map10_PRGn_scaleRev_orientMir_270.png"" style= ""width:200px""alt=""img"">
                            </div>
                        </div>",0.1075,"",0,"",NA,"","images/map10_PRGn_scaleRev_orientMir_270.png","sad",1,10,10,"PRGn","orientMir","scaleRev","270",NA,NA
"","","","","","html-slider-response",148,457415,"0.0-144.0","vtgz8hywh2",62,NA,"<div style=""width:500px;"">
                            <p style=""font-size:50px; font-weight:bold;""
                            >sad</p>
                            <div style=""width:240px; margin: auto;"">
                                <img src=""images/map27_Greys_scaleRev_orientDef_090.png"" style= ""width:200px""alt=""img"">
                            </div>
                        </div>",0.885,"",0,"",NA,"","images/map27_Greys_scaleRev_orientDef_090.png","sad",1,27,27,"Greys","orientDef","scaleRev","090",NA,NA
"","","","","","html-slider-response",149,461169,"0.0-145.0","vtgz8hywh2",62,NA,"<div style=""width:500px;"">
                            <p style=""font-size:50px; font-weight:bold;""
                            >sad</p>
                            <div style=""width:240px; margin: auto;"">
                                <img src=""images/map23_turbo_scaleDef_orientMir_000.png"" style= ""width:200px""alt=""img"">
                            </div>
                        </div>",0.085,"",0,"",NA,"","images/map23_turbo_scaleDef_orientMir_000.png","sad",1,23,23,"turbo","orientMir","scaleDef","000",NA,NA
"","","","","","html-slider-response",150,463134,"0.0-146.0","vtgz8hywh2",62,NA,"<div style=""width:500px;"">
                            <p style=""font-size:50px; font-weight:bold;""
                            >sad</p>
                            <div style=""width:240px; margin: auto;"">
                                <img src=""images/map26_plasma_scaleDef_orientDef_000.png"" style= ""width:200px""alt=""img"">
                            </div>
                        </div>",0.005,"",0,"",NA,"","images/map26_plasma_scaleDef_orientDef_000.png","sad",1,26,26,"plasma","orientDef","scaleDef","000",NA,NA
"","","","","","html-slider-response",151,466214,"0.0-147.0","vtgz8hywh2",62,NA,"<div style=""width:500px;"">
                            <p style=""font-size:50px; font-weight:bold;""
                            >sad</p>
                            <div style=""width:240px; margin: auto;"">
                                <img src=""images/map07_YlGnBu_scaleRev_orientMir_090.png"" style= ""width:200px""alt=""img"">
                            </div>
                        </div>",0.9075,"",0,"",NA,"","images/map07_YlGnBu_scaleRev_orientMir_090.png","sad",1,7,7,"YlGnBu","orientMir","scaleRev","090",NA,NA
"","","","","","html-slider-response",152,469355,"0.0-148.0","vtgz8hywh2",62,NA,"<div style=""width:500px;"">
                            <p style=""font-size:50px; font-weight:bold;""
                            >sad</p>
                            <div style=""width:240px; margin: auto;"">
                                <img src=""images/map07_PuBu_scaleDef_orientDef_180.png"" style= ""width:200px""alt=""img"">
                            </div>
                        </div>",0.9625,"",0,"",NA,"","images/map07_PuBu_scaleDef_orientDef_180.png","sad",1,7,7,"PuBu","orientDef","scaleDef","180",NA,NA
"","","","","","html-slider-response",153,471385,"0.0-149.0","vtgz8hywh2",62,NA,"<div style=""width:500px;"">
                            <p style=""font-size:50px; font-weight:bold;""
                            >sad</p>
                            <div style=""width:240px; margin: auto;"">
                                <img src=""images/map12_RdGy_scaleRev_orientMir_090.png"" style= ""width:200px""alt=""img"">
                            </div>
                        </div>",0,"",0,"",NA,"","images/map12_RdGy_scaleRev_orientMir_090.png","sad",1,12,12,"RdGy","orientMir","scaleRev","090",NA,NA
"","","","","","html-slider-response",154,473294,"0.0-150.0","vtgz8hywh2",62,NA,"<div style=""width:500px;"">
                            <p style=""font-size:50px; font-weight:bold;""
                            >sad</p>
                            <div style=""width:240px; margin: auto;"">
                                <img src=""images/map13_RdYlBu_scaleDef_orientDef_000.png"" style= ""width:200px""alt=""img"">
                            </div>
                        </div>",0,"",0,"",NA,"","images/map13_RdYlBu_scaleDef_orientDef_000.png","sad",1,13,13,"RdYlBu","orientDef","scaleDef","000",NA,NA
"","","","","","html-slider-response",155,475729,"0.0-151.0","vtgz8hywh2",62,NA,"<div style=""width:500px;"">
                            <p style=""font-size:50px; font-weight:bold;""
                            >sad</p>
                            <div style=""width:240px; margin: auto;"">
                                <img src=""images/map10_PiYG_scaleDef_orientMir_000.png"" style= ""width:200px""alt=""img"">
                            </div>
                        </div>",0,"",0,"",NA,"","images/map10_PiYG_scaleDef_orientMir_000.png","sad",1,10,10,"PiYG","orientMir","scaleDef","000",NA,NA
"","","","","","html-slider-response",156,478370,"0.0-152.0","vtgz8hywh2",62,NA,"<div style=""width:500px;"">
                            <p style=""font-size:50px; font-weight:bold;""
                            >sad</p>
                            <div style=""width:240px; margin: auto;"">
                                <img src=""images/map26_cividis_scaleRev_orientMir_270.png"" style= ""width:200px""alt=""img"">
                            </div>
                        </div>",0.7425,"",0,"",NA,"","images/map26_cividis_scaleRev_orientMir_270.png","sad",1,26,26,"cividis","orientMir","scaleRev","270",NA,NA
"","","","","","html-slider-response",157,480200,"0.0-153.0","vtgz8hywh2",62,NA,"<div style=""width:500px;"">
                            <p style=""font-size:50px; font-weight:bold;""
                            >sad</p>
                            <div style=""width:240px; margin: auto;"">
                                <img src=""images/map10_BuGn_scaleRev_orientDef_090.png"" style= ""width:200px""alt=""img"">
                            </div>
                        </div>",0.6825,"",0,"",NA,"","images/map10_BuGn_scaleRev_orientDef_090.png","sad",1,10,10,"BuGn","orientDef","scaleRev","090",NA,NA
"","","","","","html-slider-response",158,481998,"0.0-154.0","vtgz8hywh2",62,NA,"<div style=""width:500px;"">
                            <p style=""font-size:50px; font-weight:bold;""
                            >sad</p>
                            <div style=""width:240px; margin: auto;"">
                                <img src=""images/map23_turbo_scaleRev_orientMir_090.png"" style= ""width:200px""alt=""img"">
                            </div>
                        </div>",0,"",0,"",NA,"","images/map23_turbo_scaleRev_orientMir_090.png","sad",1,23,23,"turbo","orientMir","scaleRev","090",NA,NA
"","","","","","html-slider-response",159,484734,"0.0-155.0","vtgz8hywh2",62,NA,"<div style=""width:500px;"">
                            <p style=""font-size:50px; font-weight:bold;""
                            >sad</p>
                            <div style=""width:240px; margin: auto;"">
                                <img src=""images/map05_PuRd_scaleRev_orientDef_270.png"" style= ""width:200px""alt=""img"">
                            </div>
                        </div>",0,"",0,"",NA,"","images/map05_PuRd_scaleRev_orientDef_270.png","sad",1,5,5,"PuRd","orientDef","scaleRev","270",NA,NA
"","","","","","html-slider-response",160,487210,"0.0-156.0","vtgz8hywh2",62,NA,"<div style=""width:500px;"">
                            <p style=""font-size:50px; font-weight:bold;""
                            >sad</p>
                            <div style=""width:240px; margin: auto;"">
                                <img src=""images/map05_RdPu_scaleDef_orientMir_000.png"" style= ""width:200px""alt=""img"">
                            </div>
                        </div>",0,"",0,"",NA,"","images/map05_RdPu_scaleDef_orientMir_000.png","sad",1,5,5,"RdPu","orientMir","scaleDef","000",NA,NA
"","","","","","html-slider-response",161,489278,"0.0-157.0","vtgz8hywh2",62,NA,"<div style=""width:500px;"">
                            <p style=""font-size:50px; font-weight:bold;""
                            >sad</p>
                            <div style=""width:240px; margin: auto;"">
                                <img src=""images/map27_Greens_scaleDef_orientMir_180.png"" style= ""width:200px""alt=""img"">
                            </div>
                        </div>",0.7275,"",0,"",NA,"","images/map27_Greens_scaleDef_orientMir_180.png","sad",1,27,27,"Greens","orientMir","scaleDef","180",NA,NA
"","","","","","html-slider-response",162,506769,"0.0-158.0","vtgz8hywh2",62,NA,"<div style=""width:500px;"">
                            <p style=""font-size:50px; font-weight:bold;""
                            >sad</p>
                            <div style=""width:240px; margin: auto;"">
                                <img src=""images/map05_RdPu_scaleRev_orientMir_090.png"" style= ""width:200px""alt=""img"">
                            </div>
                        </div>",0.0825,"",0,"",NA,"","images/map05_RdPu_scaleRev_orientMir_090.png","sad",1,5,5,"RdPu","orientMir","scaleRev","090",NA,NA
"","","","","","html-slider-response",163,509682,"0.0-159.0","vtgz8hywh2",62,NA,"<div style=""width:500px;"">
                            <p style=""font-size:50px; font-weight:bold;""
                            >sad</p>
