"success","timeout","failed_images","failed_audio","failed_video","trial_type","trial_index","time_elapsed","internal_node_id","subject_id","condition_num","rt","stimulus","response","question_order","slider_start","practiceTrial","practiceTrialNum","correct","image_path","concept","repetition","map_id","map_num","scale_name","orientation_code","mapping_code","rotation_code","ishihara_plate","correct_response"
"true","false","[]","[]","[]","preload",0,507,"0.0-0.0","tmovgthtbm",35,NA,"",NA,"",NA,"",NA,"","","",NA,NA,NA,"","","","",NA,NA
"","","","","","html-button-response",1,2833,"0.0-1.0","tmovgthtbm",35,2325,"Welcome to our experiment!<p>At the bottom of this screen, you will see a button that says ""Begin Experiment"".<br>Please only click that button when you are ready to complete the 30 minute experiment in one sitting.</p><p> Once you click that button, it will not be possible to restart the experiment.",0.5,"",NA,"",NA,"","","",NA,NA,NA,"","","","",NA,NA
"true","","","","","fullscreen",2,4679,"0.0-2.0","tmovgthtbm",35,842,"",NA,"",NA,"",NA,"","","",NA,NA,NA,"","","","",NA,NA
"","","","","","survey-multi-select",3,8644,"0.0-3.0","tmovgthtbm",35,3957,"",NA,"[0]",NA,"",NA,"","","",NA,NA,NA,"","","","",NA,NA
"","","","","","html-button-response",4,9778,"0.0-4.0","tmovgthtbm",35,1132,"Welcome! <p> This experiment involves two parts: demographic information, followed by the experimental task.<p> It will take about 30 minutes to complete both parts.",0.5,"",NA,"",NA,"","","",NA,NA,NA,"","","","",NA,NA
"","","","","","survey-text",5,21698,"0.0-5.0","tmovgthtbm",35,11902,"",NA,"",NA,"",NA,"","","",NA,NA,NA,"","","","",NA,NA
"","","","","","html-slider-response",6,29176,"0.0-6.0","tmovgthtbm",35,7475,"<div style='text-align:left; font-size:20px; line-height:25px; width: 1000px;'>
                                During this experiment you will be asked to rate how much you associate maps with                    different concepts.<br> Below, you can see some examples of the maps you will be asked to rate. Above the maps
                    is the list of concepts.<br>You will be asked                    to rate how much you associate each map with each concept on a scale from 'not at all' to 'very much' like the
                    one below. <br><br>
                    Now, please look at the list of concepts and maps. For each concept, think about the map you associate 'very
                    much' with the concept.<br>                     When you see that map during the experiment, please rate it near the 'very much' endpoint of the
                    scale.<br>Now, please think about which map you associate 'not at all'                     with each concept. When you see that map during the experiment, please rate it near the 'not at all' endpoint
                    of the scale.<br>
                    Please use the full range of the scale. That is, if a map is somewhat associated with the concept, you would
                    click partway between the middle point and right side of the scale.                    You will be asked to rate each map for a given concept before moving on to the next concept.<br>Press the
                    'Continue' button for instructions on how to use the slider.                    <br>
                </div>

                <div style=""width: 500px; margin: 0 auto;"">
                    <!-- Centered text paragraphs -->
                    <div style=""text-align: center; width: 500px;"">
                        <p style=""font-size:25px; line-height:15px;"">
                            sad&nbsp;&nbsp;&nbsp;&nbsp;
                            happy&nbsp;&nbsp;&nbsp;&nbsp;
                            fearful&nbsp;&nbsp;&nbsp;&nbsp;
                            angry&nbsp;&nbsp;&nbsp;&nbsp;
                            disgust
                        </p>
                        <!-- <p style=""font-size:20px; line-height:15px;"">happy</p>
                        <p style=""font-size:20px;line-height:15px;"">fearful</p>
                        <p style=""font-size:20px;line-height:15px;"">angry</p>
                        <p style=""font-size:20px;line-height:15px;"">disgust</p> -->
                    </div>
            

                    <!-- Grid section -->
                   <div style=""display: flex; justify-content: center; padding-top: 15px;"">
                    <div style=""display: grid; grid-template-columns: repeat(10, 55px); grid-gap: 5px; width: auto;"">
                        <img src=""images/map13_cividis_scaleDef_orientDef_270.png"" alt=""map"" style=""width: 100%;""><img src=""images/map23_OrRd_scaleDef_orientMir_090.png"" alt=""map"" style=""width: 100%;""><img src=""images/map13_Greys_scaleRev_orientMir_180.png"" alt=""map"" style=""width: 100%;""><img src=""images/map27_BuGn_scaleRev_orientMir_180.png"" alt=""map"" style=""width: 100%;""><img src=""images/map15_Oranges_scaleDef_orientMir_090.png"" alt=""map"" style=""width: 100%;""><img src=""images/map05_PuOr_scaleRev_orientDef_000.png"" alt=""map"" style=""width: 100%;""><img src=""images/map23_YlOrRd_scaleDef_orientDef_270.png"" alt=""map"" style=""width: 100%;""><img src=""images/map27_YlGnBu_scaleRev_orientDef_180.png"" alt=""map"" style=""width: 100%;""><img src=""images/map07_seismic_scaleDef_orientMir_270.png"" alt=""map"" style=""width: 100%;""><img src=""images/map10_managua_scaleDef_orientDef_270.png"" alt=""map"" style=""width: 100%;""><img src=""images/map10_vanimo_scaleDef_orientMir_090.png"" alt=""map"" style=""width: 100%;""><img src=""images/map05_RdYlBu_scaleRev_orientMir_180.png"" alt=""map"" style=""width: 100%;""><img src=""images/map26_GnBu_scaleDef_orientMir_090.png"" alt=""map"" style=""width: 100%;""><img src=""images/map07_coolwarm_scaleRev_orientMir_000.png"" alt=""map"" style=""width: 100%;""><img src=""images/map27_YlGn_scaleDef_orientMir_270.png"" alt=""map"" style=""width: 100%;""><img src=""images/map23_PuRd_scaleDef_orientMir_270.png"" alt=""map"" style=""width: 100%;""><img src=""images/map15_Blues_scaleRev_orientDef_180.png"" alt=""map"" style=""width: 100%;""><img src=""images/map26_BuPu_scaleRev_orientMir_000.png"" alt=""map"" style=""width: 100%;""><img src=""images/map07_bwr_scaleRev_orientMir_180.png"" alt=""map"" style=""width: 100%;""><img src=""images/map12_turbo_scaleDef_orientDef_090.png"" alt=""map"" style=""width: 100%;""><img src=""images/map07_RdYlGn_scaleRev_orientDef_000.png"" alt=""map"" style=""width: 100%;""><img src=""images/map05_RdGy_scaleRev_orientDef_180.png"" alt=""map"" style=""width: 100%;""><img src=""images/map12_plasma_scaleRev_orientMir_180.png"" alt=""map"" style=""width: 100%;""><img src=""images/map07_Spectral_scaleRev_orientDef_180.png"" alt=""map"" style=""width: 100%;""><img src=""images/map10_berlin_scaleRev_orientDef_180.png"" alt=""map"" style=""width: 100%;""><img src=""images/map13_Purples_scaleDef_orientMir_270.png"" alt=""map"" style=""width: 100%;""><img src=""images/map02_PiYG_scaleDef_orientDef_090.png"" alt=""map"" style=""width: 100%;""><img src=""images/map13_magma_scaleDef_orientDef_090.png"" alt=""map"" style=""width: 100%;""><img src=""images/map15_Reds_scaleDef_orientMir_270.png"" alt=""map"" style=""width: 100%;""><img src=""images/map15_Greens_scaleDef_orientDef_270.png"" alt=""map"" style=""width: 100%;""><img src=""images/map26_PuBu_scaleDef_orientMir_270.png"" alt=""map"" style=""width: 100%;""><img src=""images/map05_RdBu_scaleRev_orientMir_000.png"" alt=""map"" style=""width: 100%;""><img src=""images/map10_gist_earth_scaleDef_orientMir_270.png"" alt=""map"" style=""width: 100%;""><img src=""images/map23_YlOrBr_scaleDef_orientDef_090.png"" alt=""map"" style=""width: 100%;""><img src=""images/map12_inferno_scaleDef_orientMir_270.png"" alt=""map"" style=""width: 100%;""><img src=""images/map02_PRGn_scaleRev_orientMir_000.png"" alt=""map"" style=""width: 100%;""><img src=""images/map12_viridis_scaleRev_orientMir_000.png"" alt=""map"" style=""width: 100%;""><img src=""images/map26_RdPu_scaleDef_orientDef_090.png"" alt=""map"" style=""width: 100%;""><img src=""images/map02_BrBG_scaleDef_orientMir_090.png"" alt=""map"" style=""width: 100%;""><img src=""images/map27_PuBuGn_scaleRev_orientMir_000.png"" alt=""map"" style=""width: 100%;"">
                    </div>
                </div>

                    <!-- Clear floats -->
                    <div style=""clear: both;""></div>
                </div>
                            ",NA,"",0,"true",NA,"","","",NA,NA,NA,"","","","",NA,NA
"","","","","","html-button-response",7,31166,"0.0-7.0","tmovgthtbm",35,1989,"<div style=""width:800px;""><p style=""text-align:left"">To move the slider, click and drag your cursor to the location of the scale where you would like to make your rating and then let go. When you let go of the slider, your response will be recorded and the next trial will begin. <br>
                    We are interested in your initial impressions of each map for the given concept, so please go with your first intuition. <br>
                    Before you begin the experiment, there will be four training trials for you to practice using the scale. <br>
                     When you are ready to start the training trials, please click ""Continue"".</p><br></div>",0.5,"",NA,"",NA,"","","",NA,NA,NA,"","","","",NA,NA
"","","","","","html-slider-response",8,34134,"0.0-8.0-0.0","tmovgthtbm",35,NA,"<div style=""width:500px;"">
                                    <p style=""font-size:25px;"">Please move the slider all the way to the <br> right endpoint of the scale</p>

                                    </div>
                                </div>",1,"",0,"true",0,"true","","",NA,NA,NA,"","","","",NA,NA
"","","","","","html-button-response",9,35513,"0.0-8.0-1.0","tmovgthtbm",35,877,"<p align='center'><b>Good job!</b> Click on 'Continue' to proceed.</p>",0.5,"",NA,"",NA,"","","",NA,NA,NA,"","","","",NA,NA
"","","","","","html-slider-response",10,36736,"0.0-9.0-0.0","tmovgthtbm",35,NA,"<div style=""width:500px;"">
                                    <p style=""font-size:25px;"">Please move the slider all the way to the <br> left endpoint of the scale</p>

                                    </div>
                                </div>",0,"",0,"true",1,"true","","",NA,NA,NA,"","","","",NA,NA
"","","","","","html-button-response",11,37847,"0.0-9.0-1.0","tmovgthtbm",35,610,"<p align='center'><b>Good job!</b> Click on 'Continue' to proceed.</p>",0.5,"",NA,"",NA,"","","",NA,NA,NA,"","","","",NA,NA
"","","","","","html-slider-response",12,42022,"0.0-10.0-0.0","tmovgthtbm",35,NA,"<div style=""width:500px;"">
                                    <p style=""font-size:25px;"">Please move the slider halfway between the center and right endpoint of the scale</p>

                                    </div>
                                </div>",0.7675,"",0,"true",2,"true","","",NA,NA,NA,"","","","",NA,NA
"","","","","","html-button-response",13,43129,"0.0-10.0-1.0","tmovgthtbm",35,605,"<p align='center'><b>Good job!</b> Click on 'Continue' to proceed.</p>",0.5,"",NA,"",NA,"","","",NA,NA,NA,"","","","",NA,NA
"","","","","","html-slider-response",14,44872,"0.0-11.0-0.0","tmovgthtbm",35,NA,"<div style=""width:500px;"">
                                    <p style=""font-size:25px;"">Please move the slider halfway between the center and left endpoint of the scale</p>

                                    </div>
                                </div>",0.23,"",0,"true",3,"true","","",NA,NA,NA,"","","","",NA,NA
"","","","","","html-button-response",15,46069,"0.0-11.0-1.0","tmovgthtbm",35,695,"<p align='center'><b>Good job!</b> Click on 'Continue' to proceed.</p>",0.5,"",NA,"",NA,"","","",NA,NA,NA,"","","","",NA,NA
"","","","","","html-button-response",16,47133,"0.0-12.0","tmovgthtbm",35,1064,"<p>Great job! You've completed the practice trials. Now you will begin the main task.</p>",0.5,"",NA,"",NA,"","","",NA,NA,NA,"","","","",NA,NA
"","","","","","html-button-response",17,48833,"0.0-13.0","tmovgthtbm",35,1698,"<p>In this block of trials, you will be asked to rate how much you associate each map with:</p > <p style = 'font-size:150%; font-weight: bold'>sad</p><br></br>",0.5,"",NA,"",NA,"","","",NA,NA,NA,"","","","",NA,NA
"","","","","","html-slider-response",18,51756,"0.0-14.0","tmovgthtbm",35,NA,"<div style=""width:500px;"">
                            <p style=""font-size:50px; font-weight:bold;""
                            >sad</p>
                            <div style=""width:240px; margin: auto;"">
                                <img src=""images/map27_YlGn_scaleDef_orientMir_270.png"" style= ""width:200px""alt=""img"">
                            </div>
                        </div>",0.57,"",0,"",NA,"","images/map27_YlGn_scaleDef_orientMir_270.png","sad",1,27,27,"YlGn","orientMir","scaleDef","270",NA,NA
"","","","","","html-slider-response",19,54172,"0.0-15.0","tmovgthtbm",35,NA,"<div style=""width:500px;"">
                            <p style=""font-size:50px; font-weight:bold;""
                            >sad</p>
                            <div style=""width:240px; margin: auto;"">
                                <img src=""images/map27_PuBuGn_scaleRev_orientMir_000.png"" style= ""width:200px""alt=""img"">
                            </div>
                        </div>",0.785,"",0,"",NA,"","images/map27_PuBuGn_scaleRev_orientMir_000.png","sad",1,27,27,"PuBuGn","orientMir","scaleRev","000",NA,NA
"","","","","","html-slider-response",20,56665,"0.0-16.0","tmovgthtbm",35,NA,"<div style=""width:500px;"">
                            <p style=""font-size:50px; font-weight:bold;""
                            >sad</p>
                            <div style=""width:240px; margin: auto;"">
                                <img src=""images/map02_PiYG_scaleDef_orientDef_090.png"" style= ""width:200px""alt=""img"">
                            </div>
                        </div>",0.56,"",0,"",NA,"","images/map02_PiYG_scaleDef_orientDef_090.png","sad",1,2,2,"PiYG","orientDef","scaleDef","090",NA,NA
"","","","","","html-slider-response",21,58969,"0.0-17.0","tmovgthtbm",35,NA,"<div style=""width:500px;"">
                            <p style=""font-size:50px; font-weight:bold;""
                            >sad</p>
                            <div style=""width:240px; margin: auto;"">
                                <img src=""images/map02_BrBG_scaleDef_orientMir_090.png"" style= ""width:200px""alt=""img"">
                            </div>
                        </div>",0.595,"",0,"",NA,"","images/map02_BrBG_scaleDef_orientMir_090.png","sad",1,2,2,"BrBG","orientMir","scaleDef","090",NA,NA
"","","","","","html-slider-response",22,61777,"0.0-18.0","tmovgthtbm",35,NA,"<div style=""width:500px;"">
                            <p style=""font-size:50px; font-weight:bold;""
                            >sad</p>
                            <div style=""width:240px; margin: auto;"">
                                <img src=""images/map13_Purples_scaleDef_orientMir_270.png"" style= ""width:200px""alt=""img"">
                            </div>
                        </div>",0.84,"",0,"",NA,"","images/map13_Purples_scaleDef_orientMir_270.png","sad",1,13,13,"Purples","orientMir","scaleDef","270",NA,NA
"","","","","","html-slider-response",23,64585,"0.0-19.0","tmovgthtbm",35,NA,"<div style=""width:500px;"">
                            <p style=""font-size:50px; font-weight:bold;""
                            >sad</p>
                            <div style=""width:240px; margin: auto;"">
                                <img src=""images/map05_RdYlGn_scaleDef_orientMir_270.png"" style= ""width:200px""alt=""img"">
                            </div>
                        </div>",0.405,"",0,"",NA,"","images/map05_RdYlGn_scaleDef_orientMir_270.png","sad",1,5,5,"RdYlGn","orientMir","scaleDef","270",NA,NA
"","","","","","html-slider-response",24,66970,"0.0-20.0","tmovgthtbm",35,NA,"<div style=""width:500px;"">
                            <p style=""font-size:50px; font-weight:bold;""
                            >sad</p>
                            <div style=""width:240px; margin: auto;"">
                                <img src=""images/map05_RdYlBu_scaleRev_orientMir_180.png"" style= ""width:200px""alt=""img"">
                            </div>
                        </div>",0.545,"",0,"",NA,"","images/map05_RdYlBu_scaleRev_orientMir_180.png","sad",1,5,5,"RdYlBu","orientMir","scaleRev","180",NA,NA
"","","","","","html-slider-response",25,68387,"0.0-21.0","tmovgthtbm",35,NA,"<div style=""width:500px;"">
                            <p style=""font-size:50px; font-weight:bold;""
                            >sad</p>
                            <div style=""width:240px; margin: auto;"">
                                <img src=""images/map26_BuPu_scaleDef_orientDef_270.png"" style= ""width:200px""alt=""img"">
                            </div>
                        </div>",0.715,"",0,"",NA,"","images/map26_BuPu_scaleDef_orientDef_270.png","sad",1,26,26,"BuPu","orientDef","scaleDef","270",NA,NA
"","","","","","html-slider-response",26,70160,"0.0-22.0","tmovgthtbm",35,NA,"<div style=""width:500px;"">
                            <p style=""font-size:50px; font-weight:bold;""
                            >sad</p>
                            <div style=""width:240px; margin: auto;"">
                                <img src=""images/map12_viridis_scaleRev_orientMir_000.png"" style= ""width:200px""alt=""img"">
                            </div>
                        </div>",0.43,"",0,"",NA,"","images/map12_viridis_scaleRev_orientMir_000.png","sad",1,12,12,"viridis","orientMir","scaleRev","000",NA,NA
"","","","","","html-slider-response",27,71754,"0.0-23.0","tmovgthtbm",35,NA,"<div style=""width:500px;"">
                            <p style=""font-size:50px; font-weight:bold;""
                            >sad</p>
                            <div style=""width:240px; margin: auto;"">
                                <img src=""images/map07_Spectral_scaleRev_orientDef_180.png"" style= ""width:200px""alt=""img"">
                            </div>
                        </div>",0.39,"",0,"",NA,"","images/map07_Spectral_scaleRev_orientDef_180.png","sad",1,7,7,"Spectral","orientDef","scaleRev","180",NA,NA
"","","","","","html-slider-response",28,73983,"0.0-24.0","tmovgthtbm",35,NA,"<div style=""width:500px;"">
                            <p style=""font-size:50px; font-weight:bold;""
                            >sad</p>
                            <div style=""width:240px; margin: auto;"">
                                <img src=""images/map27_BuGn_scaleRev_orientMir_180.png"" style= ""width:200px""alt=""img"">
                            </div>
                        </div>",0.8025,"",0,"",NA,"","images/map27_BuGn_scaleRev_orientMir_180.png","sad",1,27,27,"BuGn","orientMir","scaleRev","180",NA,NA
"","","","","","html-slider-response",29,75626,"0.0-25.0","tmovgthtbm",35,NA,"<div style=""width:500px;"">
                            <p style=""font-size:50px; font-weight:bold;""
                            >sad</p>
                            <div style=""width:240px; margin: auto;"">
                                <img src=""images/map02_PRGn_scaleRev_orientMir_000.png"" style= ""width:200px""alt=""img"">
                            </div>
                        </div>",0.52,"",0,"",NA,"","images/map02_PRGn_scaleRev_orientMir_000.png","sad",1,2,2,"PRGn","orientMir","scaleRev","000",NA,NA
"","","","","","html-slider-response",30,77876,"0.0-26.0","tmovgthtbm",35,NA,"<div style=""width:500px;"">
                            <p style=""font-size:50px; font-weight:bold;""
                            >sad</p>
                            <div style=""width:240px; margin: auto;"">
                                <img src=""images/map10_vanimo_scaleDef_orientMir_090.png"" style= ""width:200px""alt=""img"">
                            </div>
                        </div>",0.6675,"",0,"",NA,"","images/map10_vanimo_scaleDef_orientMir_090.png","sad",1,10,10,"vanimo","orientMir","scaleDef","090",NA,NA
"","","","","","html-slider-response",31,80155,"0.0-27.0","tmovgthtbm",35,NA,"<div style=""width:500px;"">
                            <p style=""font-size:50px; font-weight:bold;""
                            >sad</p>
                            <div style=""width:240px; margin: auto;"">
                                <img src=""images/map13_cividis_scaleRev_orientMir_000.png"" style= ""width:200px""alt=""img"">
                            </div>
                        </div>",0.915,"",0,"",NA,"","images/map13_cividis_scaleRev_orientMir_000.png","sad",1,13,13,"cividis","orientMir","scaleRev","000",NA,NA
"","","","","","html-slider-response",32,82193,"0.0-28.0","tmovgthtbm",35,NA,"<div style=""width:500px;"">
                            <p style=""font-size:50px; font-weight:bold;""
                            >sad</p>
                            <div style=""width:240px; margin: auto;"">
                                <img src=""images/map05_RdGy_scaleDef_orientDef_090.png"" style= ""width:200px""alt=""img"">
                            </div>
                        </div>",0.6675,"",0,"",NA,"","images/map05_RdGy_scaleDef_orientDef_090.png","sad",1,5,5,"RdGy","orientDef","scaleDef","090",NA,NA
"","","","","","html-slider-response",33,83961,"0.0-29.0","tmovgthtbm",35,NA,"<div style=""width:500px;"">
                            <p style=""font-size:50px; font-weight:bold;""
                            >sad</p>
                            <div style=""width:240px; margin: auto;"">
                                <img src=""images/map05_RdBu_scaleRev_orientMir_000.png"" style= ""width:200px""alt=""img"">
                            </div>
                        </div>",0.6,"",0,"",NA,"","images/map05_RdBu_scaleRev_orientMir_000.png","sad",1,5,5,"RdBu","orientMir","scaleRev","000",NA,NA
"","","","","","html-slider-response",34,86330,"0.0-30.0","tmovgthtbm",35,NA,"<div style=""width:500px;"">
                            <p style=""font-size:50px; font-weight:bold;""
                            >sad</p>
                            <div style=""width:240px; margin: auto;"">
                                <img src=""images/map23_YlOrBr_scaleDef_orientDef_090.png"" style= ""width:200px""alt=""img"">
                            </div>
                        </div>",0.365,"",0,"",NA,"","images/map23_YlOrBr_scaleDef_orientDef_090.png","sad",1,23,23,"YlOrBr","orientDef","scaleDef","090",NA,NA
"","","","","","html-slider-response",35,88516,"0.0-31.0","tmovgthtbm",35,NA,"<div style=""width:500px;"">
                            <p style=""font-size:50px; font-weight:bold;""
                            >sad</p>
                            <div style=""width:240px; margin: auto;"">
                                <img src=""images/map12_plasma_scaleRev_orientMir_180.png"" style= ""width:200px""alt=""img"">
                            </div>
                        </div>",0.17,"",0,"",NA,"","images/map12_plasma_scaleRev_orientMir_180.png","sad",1,12,12,"plasma","orientMir","scaleRev","180",NA,NA
"","","","","","html-slider-response",36,90860,"0.0-32.0","tmovgthtbm",35,NA,"<div style=""width:500px;"">
                            <p style=""font-size:50px; font-weight:bold;""
                            >sad</p>
                            <div style=""width:240px; margin: auto;"">
                                <img src=""images/map10_managua_scaleDef_orientDef_270.png"" style= ""width:200px""alt=""img"">
                            </div>
                        </div>",0.565,"",0,"",NA,"","images/map10_managua_scaleDef_orientDef_270.png","sad",1,10,10,"managua","orientDef","scaleDef","270",NA,NA
"","","","","","html-slider-response",37,93262,"0.0-33.0","tmovgthtbm",35,NA,"<div style=""width:500px;"">
                            <p style=""font-size:50px; font-weight:bold;""
                            >sad</p>
                            <div style=""width:240px; margin: auto;"">
                                <img src=""images/map23_Reds_scaleRev_orientDef_000.png"" style= ""width:200px""alt=""img"">
                            </div>
                        </div>",0.12,"",0,"",NA,"","images/map23_Reds_scaleRev_orientDef_000.png","sad",1,23,23,"Reds","orientDef","scaleRev","000",NA,NA
"","","","","","html-slider-response",38,95111,"0.0-34.0","tmovgthtbm",35,NA,"<div style=""width:500px;"">
                            <p style=""font-size:50px; font-weight:bold;""
                            >sad</p>
                            <div style=""width:240px; margin: auto;"">
                                <img src=""images/map07_Spectral_scaleDef_orientDef_090.png"" style= ""width:200px""alt=""img"">
                            </div>
                        </div>",0.4475,"",0,"",NA,"","images/map07_Spectral_scaleDef_orientDef_090.png","sad",1,7,7,"Spectral","orientDef","scaleDef","090",NA,NA
"","","","","","html-slider-response",39,97248,"0.0-35.0","tmovgthtbm",35,NA,"<div style=""width:500px;"">
                            <p style=""font-size:50px; font-weight:bold;""
                            >sad</p>
                            <div style=""width:240px; margin: auto;"">
                                <img src=""images/map27_BuGn_scaleDef_orientMir_090.png"" style= ""width:200px""alt=""img"">
                            </div>
                        </div>",0.7075,"",0,"",NA,"","images/map27_BuGn_scaleDef_orientMir_090.png","sad",1,27,27,"BuGn","orientMir","scaleDef","090",NA,NA
"","","","","","html-slider-response",40,99040,"0.0-36.0","tmovgthtbm",35,NA,"<div style=""width:500px;"">
                            <p style=""font-size:50px; font-weight:bold;""
                            >sad</p>
                            <div style=""width:240px; margin: auto;"">
                                <img src=""images/map23_YlOrRd_scaleDef_orientDef_270.png"" style= ""width:200px""alt=""img"">
                            </div>
                        </div>",0.4425,"",0,"",NA,"","images/map23_YlOrRd_scaleDef_orientDef_270.png","sad",1,23,23,"YlOrRd","orientDef","scaleDef","270",NA,NA
"","","","","","html-slider-response",41,100621,"0.0-37.0","tmovgthtbm",35,NA,"<div style=""width:500px;"">
                            <p style=""font-size:50px; font-weight:bold;""
                            >sad</p>
                            <div style=""width:240px; margin: auto;"">
                                <img src=""images/map23_OrRd_scaleDef_orientMir_090.png"" style= ""width:200px""alt=""img"">
                            </div>
                        </div>",0.4,"",0,"",NA,"","images/map23_OrRd_scaleDef_orientMir_090.png","sad",1,23,23,"OrRd","orientMir","scaleDef","090",NA,NA
"","","","","","html-slider-response",42,103340,"0.0-38.0","tmovgthtbm",35,NA,"<div style=""width:500px;"">
                            <p style=""font-size:50px; font-weight:bold;""
                            >sad</p>
                            <div style=""width:240px; margin: auto;"">
                                <img src=""images/map07_coolwarm_scaleDef_orientDef_270.png"" style= ""width:200px""alt=""img"">
                            </div>
                        </div>",0.455,"",0,"",NA,"","images/map07_coolwarm_scaleDef_orientDef_270.png","sad",1,7,7,"coolwarm","orientDef","scaleDef","270",NA,NA
"","","","","","html-slider-response",43,105260,"0.0-39.0","tmovgthtbm",35,NA,"<div style=""width:500px;"">
                            <p style=""font-size:50px; font-weight:bold;""
                            >sad</p>
                            <div style=""width:240px; margin: auto;"">
                                <img src=""images/map23_OrRd_scaleRev_orientMir_180.png"" style= ""width:200px""alt=""img"">
                            </div>
                        </div>",0.255,"",0,"",NA,"","images/map23_OrRd_scaleRev_orientMir_180.png","sad",1,23,23,"OrRd","orientMir","scaleRev","180",NA,NA
"","","","","","html-slider-response",44,107074,"0.0-40.0","tmovgthtbm",35,NA,"<div style=""width:500px;"">
                            <p style=""font-size:50px; font-weight:bold;""
                            >sad</p>
                            <div style=""width:240px; margin: auto;"">
                                <img src=""images/map12_gist_earth_scaleRev_orientDef_000.png"" style= ""width:200px""alt=""img"">
                            </div>
                        </div>",0.6725,"",0,"",NA,"","images/map12_gist_earth_scaleRev_orientDef_000.png","sad",1,12,12,"gist","scaleRev","earth","orientDef",NA,NA
"","","","","","html-slider-response",45,108543,"0.0-41.0","tmovgthtbm",35,NA,"<div style=""width:500px;"">
                            <p style=""font-size:50px; font-weight:bold;""
                            >sad</p>
                            <div style=""width:240px; margin: auto;"">
                                <img src=""images/map23_YlOrRd_scaleRev_orientMir_000.png"" style= ""width:200px""alt=""img"">
                            </div>
                        </div>",0.4575,"",0,"",NA,"","images/map23_YlOrRd_scaleRev_orientMir_000.png","sad",1,23,23,"YlOrRd","orientMir","scaleRev","000",NA,NA
"","","","","","html-slider-response",46,110414,"0.0-42.0","tmovgthtbm",35,NA,"<div style=""width:500px;"">
                            <p style=""font-size:50px; font-weight:bold;""
                            >sad</p>
                            <div style=""width:240px; margin: auto;"">
                                <img src=""images/map27_YlGnBu_scaleDef_orientDef_090.png"" style= ""width:200px""alt=""img"">
                            </div>
                        </div>",0.89,"",0,"",NA,"","images/map27_YlGnBu_scaleDef_orientDef_090.png","sad",1,27,27,"YlGnBu","orientDef","scaleDef","090",NA,NA
"","","","","","html-slider-response",47,111995,"0.0-43.0","tmovgthtbm",35,NA,"<div style=""width:500px;"">
                            <p style=""font-size:50px; font-weight:bold;""
                            >sad</p>
                            <div style=""width:240px; margin: auto;"">
                                <img src=""images/map26_GnBu_scaleRev_orientMir_180.png"" style= ""width:200px""alt=""img"">
                            </div>
                        </div>",0.725,"",0,"",NA,"","images/map26_GnBu_scaleRev_orientMir_180.png","sad",1,26,26,"GnBu","orientMir","scaleRev","180",NA,NA
"","","","","","html-slider-response",48,114900,"0.0-44.0","tmovgthtbm",35,NA,"<div style=""width:500px;"">
                            <p style=""font-size:50px; font-weight:bold;""
                            >sad</p>
                            <div style=""width:240px; margin: auto;"">
                                <img src=""images/map15_Oranges_scaleRev_orientMir_180.png"" style= ""width:200px""alt=""img"">
                            </div>
                        </div>",0.055,"",0,"",NA,"","images/map15_Oranges_scaleRev_orientMir_180.png","sad",1,15,15,"Oranges","orientMir","scaleRev","180",NA,NA
"","","","","","html-slider-response",49,117465,"0.0-45.0","tmovgthtbm",35,NA,"<div style=""width:500px;"">
                            <p style=""font-size:50px; font-weight:bold;""
                            >sad</p>
                            <div style=""width:240px; margin: auto;"">
                                <img src=""images/map07_seismic_scaleDef_orientMir_270.png"" style= ""width:200px""alt=""img"">
                            </div>
                        </div>",0.175,"",0,"",NA,"","images/map07_seismic_scaleDef_orientMir_270.png","sad",1,7,7,"seismic","orientMir","scaleDef","270",NA,NA
"","","","","","html-slider-response",50,119506,"0.0-46.0","tmovgthtbm",35,NA,"<div style=""width:500px;"">
                            <p style=""font-size:50px; font-weight:bold;""
                            >sad</p>
                            <div style=""width:240px; margin: auto;"">
                                <img src=""images/map13_magma_scaleDef_orientDef_090.png"" style= ""width:200px""alt=""img"">
                            </div>
                        </div>",0.615,"",0,"",NA,"","images/map13_magma_scaleDef_orientDef_090.png","sad",1,13,13,"magma","orientDef","scaleDef","090",NA,NA
"","","","","","html-slider-response",51,121924,"0.0-47.0","tmovgthtbm",35,NA,"<div style=""width:500px;"">
                            <p style=""font-size:50px; font-weight:bold;""
                            >sad</p>
                            <div style=""width:240px; margin: auto;"">
                                <img src=""images/map15_Reds_scaleDef_orientMir_270.png"" style= ""width:200px""alt=""img"">
                            </div>
                        </div>",0.0825,"",0,"",NA,"","images/map15_Reds_scaleDef_orientMir_270.png","sad",1,15,15,"Reds","orientMir","scaleDef","270",NA,NA
"","","","","","html-slider-response",52,123892,"0.0-48.0","tmovgthtbm",35,NA,"<div style=""width:500px;"">
                            <p style=""font-size:50px; font-weight:bold;""
                            >sad</p>
                            <div style=""width:240px; margin: auto;"">
                                <img src=""images/map10_berlin_scaleRev_orientDef_180.png"" style= ""width:200px""alt=""img"">
                            </div>
                        </div>",0.535,"",0,"",NA,"","images/map10_berlin_scaleRev_orientDef_180.png","sad",1,10,10,"berlin","orientDef","scaleRev","180",NA,NA
"","","","","","html-slider-response",53,125609,"0.0-49.0","tmovgthtbm",35,NA,"<div style=""width:500px;"">
                            <p style=""font-size:50px; font-weight:bold;""
                            >sad</p>
                            <div style=""width:240px; margin: auto;"">
                                <img src=""images/map15_Oranges_scaleDef_orientMir_090.png"" style= ""width:200px""alt=""img"">
                            </div>
                        </div>",0.235,"",0,"",NA,"","images/map15_Oranges_scaleDef_orientMir_090.png","sad",1,15,15,"Oranges","orientMir","scaleDef","090",NA,NA
"","","","","","html-slider-response",54,127391,"0.0-50.0","tmovgthtbm",35,NA,"<div style=""width:500px;"">
                            <p style=""font-size:50px; font-weight:bold;""
                            >sad</p>
                            <div style=""width:240px; margin: auto;"">
                                <img src=""images/map27_PuBuGn_scaleDef_orientDef_270.png"" style= ""width:200px""alt=""img"">
                            </div>
                        </div>",0.855,"",0,"",NA,"","images/map27_PuBuGn_scaleDef_orientDef_270.png","sad",1,27,27,"PuBuGn","orientDef","scaleDef","270",NA,NA
"","","","","","html-slider-response",55,129591,"0.0-51.0","tmovgthtbm",35,NA,"<div style=""width:500px;"">
                            <p style=""font-size:50px; font-weight:bold;""
                            >sad</p>
                            <div style=""width:240px; margin: auto;"">
                                <img src=""images/map02_PuOr_scaleDef_orientMir_270.png"" style= ""width:200px""alt=""img"">
                            </div>
                        </div>",0.4575,"",0,"",NA,"","images/map02_PuOr_scaleDef_orientMir_270.png","sad",1,2,2,"PuOr","orientMir","scaleDef","270",NA,NA
"","","","","","html-slider-response",56,131633,"0.0-52.0","tmovgthtbm",35,NA,"<div style=""width:500px;"">
                            <p style=""font-size:50px; font-weight:bold;""
                            >sad</p>
                            <div style=""width:240px; margin: auto;"">
                                <img src=""images/map13_cividis_scaleDef_orientDef_270.png"" style= ""width:200px""alt=""img"">
                            </div>
                        </div>",0.765,"",0,"",NA,"","images/map13_cividis_scaleDef_orientDef_270.png","sad",1,13,13,"cividis","orientDef","scaleDef","270",NA,NA
"","","","","","html-slider-response",57,133344,"0.0-53.0","tmovgthtbm",35,NA,"<div style=""width:500px;"">
                            <p style=""font-size:50px; font-weight:bold;""
                            >sad</p>
                            <div style=""width:240px; margin: auto;"">
                                <img src=""images/map15_Greens_scaleDef_orientDef_270.png"" style= ""width:200px""alt=""img"">
                            </div>
                        </div>",0.5775,"",0,"",NA,"","images/map15_Greens_scaleDef_orientDef_270.png","sad",1,15,15,"Greens","orientDef","scaleDef","270",NA,NA
"","","","","","html-button-response",58,136411,"0.0-54.0","tmovgthtbm",35,2566,"<p>You are doing great!<br></br> You are halway done with the current block. When you are ready to continue, click the 'Continue' button.</p>",0.5,"",NA,"",NA,"","","",NA,NA,NA,"","","","",NA,NA
"","","","","","html-slider-response",59,137951,"0.0-55.0","tmovgthtbm",35,NA,"<div style=""width:500px;"">
                            <p style=""font-size:50px; font-weight:bold;""
                            >sad</p>
                            <div style=""width:240px; margin: auto;"">
                                <img src=""images/map27_YlGnBu_scaleRev_orientDef_180.png"" style= ""width:200px""alt=""img"">
                            </div>
                        </div>",0.77,"",0,"",NA,"","images/map27_YlGnBu_scaleRev_orientDef_180.png","sad",1,27,27,"YlGnBu","orientDef","scaleRev","180",NA,NA
"","","","","","html-slider-response",60,139628,"0.0-56.0","tmovgthtbm",35,NA,"<div style=""width:500px;"">
                            <p style=""font-size:50px; font-weight:bold;""
                            >sad</p>
                            <div style=""width:240px; margin: auto;"">
                                <img src=""images/map07_bwr_scaleDef_orientMir_090.png"" style= ""width:200px""alt=""img"">
                            </div>
                        </div>",0.435,"",0,"",NA,"","images/map07_bwr_scaleDef_orientMir_090.png","sad",1,7,7,"bwr","orientMir","scaleDef","090",NA,NA
"","","","","","html-slider-response",61,141405,"0.0-57.0","tmovgthtbm",35,NA,"<div style=""width:500px;"">
                            <p style=""font-size:50px; font-weight:bold;""
                            >sad</p>
                            <div style=""width:240px; margin: auto;"">
                                <img src=""images/map15_Blues_scaleRev_orientDef_180.png"" style= ""width:200px""alt=""img"">
                            </div>
                        </div>",0.91,"",0,"",NA,"","images/map15_Blues_scaleRev_orientDef_180.png","sad",1,15,15,"Blues","orientDef","scaleRev","180",NA,NA
"","","","","","html-slider-response",62,143599,"0.0-58.0","tmovgthtbm",35,NA,"<div style=""width:500px;"">
                            <p style=""font-size:50px; font-weight:bold;""
                            >sad</p>
                            <div style=""width:240px; margin: auto;"">
                                <img src=""images/map02_PRGn_scaleDef_orientDef_270.png"" style= ""width:200px""alt=""img"">
                            </div>
                        </div>",0.555,"",0,"",NA,"","images/map02_PRGn_scaleDef_orientDef_270.png","sad",1,2,2,"PRGn","orientDef","scaleDef","270",NA,NA
"","","","","","html-slider-response",63,145848,"0.0-59.0","tmovgthtbm",35,NA,"<div style=""width:500px;"">
                            <p style=""font-size:50px; font-weight:bold;""
                            >sad</p>
                            <div style=""width:240px; margin: auto;"">
                                <img src=""images/map13_inferno_scaleRev_orientDef_000.png"" style= ""width:200px""alt=""img"">
                            </div>
                        </div>",0.555,"",0,"",NA,"","images/map13_inferno_scaleRev_orientDef_000.png","sad",1,13,13,"inferno","orientDef","scaleRev","000",NA,NA
"","","","","","html-slider-response",64,148070,"0.0-60.0","tmovgthtbm",35,NA,"<div style=""width:500px;"">
                            <p style=""font-size:50px; font-weight:bold;""
                            >sad</p>
                            <div style=""width:240px; margin: auto;"">
                                <img src=""images/map02_BrBG_scaleRev_orientMir_180.png"" style= ""width:200px""alt=""img"">
                            </div>
                        </div>",0.43,"",0,"",NA,"","images/map02_BrBG_scaleRev_orientMir_180.png","sad",1,2,2,"BrBG","orientMir","scaleRev","180",NA,NA
"","","","","","html-slider-response",65,149760,"0.0-61.0","tmovgthtbm",35,NA,"<div style=""width:500px;"">
                            <p style=""font-size:50px; font-weight:bold;""
                            >sad</p>
                            <div style=""width:240px; margin: auto;"">
                                <img src=""images/map13_Greys_scaleDef_orientMir_090.png"" style= ""width:200px""alt=""img"">
                            </div>
                        </div>",1,"",0,"",NA,"","images/map13_Greys_scaleDef_orientMir_090.png","sad",1,13,13,"Greys","orientMir","scaleDef","090",NA,NA
"","","","","","html-slider-response",66,152678,"0.0-62.0","tmovgthtbm",35,NA,"<div style=""width:500px;"">
                            <p style=""font-size:50px; font-weight:bold;""
                            >sad</p>
                            <div style=""width:240px; margin: auto;"">
                                <img src=""images/map12_viridis_scaleDef_orientDef_270.png"" style= ""width:200px""alt=""img"">
                            </div>
                        </div>",0.3125,"",0,"",NA,"","images/map12_viridis_scaleDef_orientDef_270.png","sad",1,12,12,"viridis","orientDef","scaleDef","270",NA,NA
"","","","","","html-slider-response",67,154428,"0.0-63.0","tmovgthtbm",35,NA,"<div style=""width:500px;"">
                            <p style=""font-size:50px; font-weight:bold;""
                            >sad</p>
                            <div style=""width:240px; margin: auto;"">
                                <img src=""images/map05_RdGy_scaleRev_orientDef_180.png"" style= ""width:200px""alt=""img"">
                            </div>
                        </div>",0.3025,"",0,"",NA,"","images/map05_RdGy_scaleRev_orientDef_180.png","sad",1,5,5,"RdGy","orientDef","scaleRev","180",NA,NA
"","","","","","html-slider-response",68,156080,"0.0-64.0","tmovgthtbm",35,NA,"<div style=""width:500px;"">
                            <p style=""font-size:50px; font-weight:bold;""
                            >sad</p>
                            <div style=""width:240px; margin: auto;"">
                                <img src=""images/map02_YlGn_scaleRev_orientDef_000.png"" style= ""width:200px""alt=""img"">
                            </div>
                        </div>",0.68,"",0,"",NA,"","images/map02_YlGn_scaleRev_orientDef_000.png","sad",1,2,2,"YlGn","orientDef","scaleRev","000",NA,NA
"","","","","","html-slider-response",69,157711,"0.0-65.0","tmovgthtbm",35,NA,"<div style=""width:500px;"">
                            <p style=""font-size:50px; font-weight:bold;""
                            >sad</p>
                            <div style=""width:240px; margin: auto;"">
                                <img src=""images/map12_turbo_scaleDef_orientDef_090.png"" style= ""width:200px""alt=""img"">
                            </div>
                        </div>",0.705,"",0,"",NA,"","images/map12_turbo_scaleDef_orientDef_090.png","sad",1,12,12,"turbo","orientDef","scaleDef","090",NA,NA
"","","","","","html-slider-response",70,159773,"0.0-66.0","tmovgthtbm",35,NA,"<div style=""width:500px;"">
                            <p style=""font-size:50px; font-weight:bold;""
                            >sad</p>
                            <div style=""width:240px; margin: auto;"">
                                <img src=""images/map15_Blues_scaleDef_orientDef_090.png"" style= ""width:200px""alt=""img"">
                            </div>
                        </div>",0.9,"",0,"",NA,"","images/map15_Blues_scaleDef_orientDef_090.png","sad",1,15,15,"Blues","orientDef","scaleDef","090",NA,NA
"","","","","","html-slider-response",71,162189,"0.0-67.0","tmovgthtbm",35,NA,"<div style=""width:500px;"">
                            <p style=""font-size:50px; font-weight:bold;""
                            >sad</p>
                            <div style=""width:240px; margin: auto;"">
                                <img src=""images/map26_GnBu_scaleDef_orientMir_090.png"" style= ""width:200px""alt=""img"">
                            </div>
                        </div>",0.8575,"",0,"",NA,"","images/map26_GnBu_scaleDef_orientMir_090.png","sad",1,26,26,"GnBu","orientMir","scaleDef","090",NA,NA
"","","","","","html-slider-response",72,164307,"0.0-68.0","tmovgthtbm",35,NA,"<div style=""width:500px;"">
                            <p style=""font-size:50px; font-weight:bold;""
                            >sad</p>
                            <div style=""width:240px; margin: auto;"">
                                <img src=""images/map26_RdPu_scaleRev_orientDef_180.png"" style= ""width:200px""alt=""img"">
                            </div>
                        </div>",0.2275,"",0,"",NA,"","images/map26_RdPu_scaleRev_orientDef_180.png","sad",1,26,26,"RdPu","orientDef","scaleRev","180",NA,NA
"","","","","","html-slider-response",73,165677,"0.0-69.0","tmovgthtbm",35,NA,"<div style=""width:500px;"">
                            <p style=""font-size:50px; font-weight:bold;""
                            >sad</p>
                            <div style=""width:240px; margin: auto;"">
                                <img src=""images/map26_RdPu_scaleDef_orientDef_090.png"" style= ""width:200px""alt=""img"">
                            </div>
                        </div>",0.3575,"",0,"",NA,"","images/map26_RdPu_scaleDef_orientDef_090.png","sad",1,26,26,"RdPu","orientDef","scaleDef","090",NA,NA
"","","","","","html-slider-response",74,167183,"0.0-70.0","tmovgthtbm",35,NA,"<div style=""width:500px;"">
                            <p style=""font-size:50px; font-weight:bold;""
                            >sad</p>
                            <div style=""width:240px; margin: auto;"">
                                <img src=""images/map26_PuBu_scaleDef_orientMir_270.png"" style= ""width:200px""alt=""img"">
                            </div>
                        </div>",0.7475,"",0,"",NA,"","images/map26_PuBu_scaleDef_orientMir_270.png","sad",1,26,26,"PuBu","orientMir","scaleDef","270",NA,NA
"","","","","","html-slider-response",75,168867,"0.0-71.0","tmovgthtbm",35,NA,"<div style=""width:500px;"">
                            <p style=""font-size:50px; font-weight:bold;""
                            >sad</p>
                            <div style=""width:240px; margin: auto;"">
                                <img src=""images/map10_vanimo_scaleRev_orientMir_180.png"" style= ""width:200px""alt=""img"">
                            </div>
                        </div>",0.4025,"",0,"",NA,"","images/map10_vanimo_scaleRev_orientMir_180.png","sad",1,10,10,"vanimo","orientMir","scaleRev","180",NA,NA
"","","","","","html-slider-response",76,170588,"0.0-72.0","tmovgthtbm",35,NA,"<div style=""width:500px;"">
                            <p style=""font-size:50px; font-weight:bold;""
                            >sad</p>
                            <div style=""width:240px; margin: auto;"">
                                <img src=""images/map05_RdYlBu_scaleDef_orientMir_090.png"" style= ""width:200px""alt=""img"">
                            </div>
                        </div>",0.2225,"",0,"",NA,"","images/map05_RdYlBu_scaleDef_orientMir_090.png","sad",1,5,5,"RdYlBu","orientMir","scaleDef","090",NA,NA
"","","","","","html-slider-response",77,172286,"0.0-73.0","tmovgthtbm",35,NA,"<div style=""width:500px;"">
                            <p style=""font-size:50px; font-weight:bold;""
                            >sad</p>
                            <div style=""width:240px; margin: auto;"">
                                <img src=""images/map10_gist_earth_scaleDef_orientMir_270.png"" style= ""width:200px""alt=""img"">
                            </div>
                        </div>",0.6175,"",0,"",NA,"","images/map10_gist_earth_scaleDef_orientMir_270.png","sad",1,10,10,"gist","scaleDef","earth","orientMir",NA,NA
"","","","","","html-slider-response",78,174120,"0.0-74.0","tmovgthtbm",35,NA,"<div style=""width:500px;"">
                            <p style=""font-size:50px; font-weight:bold;""
                            >sad</p>
                            <div style=""width:240px; margin: auto;"">
                                <img src=""images/map15_Greens_scaleRev_orientMir_000.png"" style= ""width:200px""alt=""img"">
                            </div>
                        </div>",0.73,"",0,"",NA,"","images/map15_Greens_scaleRev_orientMir_000.png","sad",1,15,15,"Greens","orientMir","scaleRev","000",NA,NA
"","","","","","html-slider-response",79,175655,"0.0-75.0","tmovgthtbm",35,NA,"<div style=""width:500px;"">
                            <p style=""font-size:50px; font-weight:bold;""
                            >sad</p>
                            <div style=""width:240px; margin: auto;"">
                                <img src=""images/map13_magma_scaleRev_orientDef_180.png"" style= ""width:200px""alt=""img"">
                            </div>
                        </div>",0.435,"",0,"",NA,"","images/map13_magma_scaleRev_orientDef_180.png","sad",1,13,13,"magma","orientDef","scaleRev","180",NA,NA
"","","","","","html-slider-response",80,177755,"0.0-76.0","tmovgthtbm",35,NA,"<div style=""width:500px;"">
                            <p style=""font-size:50px; font-weight:bold;""
                            >sad</p>
                            <div style=""width:240px; margin: auto;"">
                                <img src=""images/map05_PuOr_scaleRev_orientDef_000.png"" style= ""width:200px""alt=""img"">
                            </div>
                        </div>",0.2575,"",0,"",NA,"","images/map05_PuOr_scaleRev_orientDef_000.png","sad",1,5,5,"PuOr","orientDef","scaleRev","000",NA,NA
"","","","","","html-slider-response",81,179481,"0.0-77.0","tmovgthtbm",35,NA,"<div style=""width:500px;"">
                            <p style=""font-size:50px; font-weight:bold;""
                            >sad</p>
                            <div style=""width:240px; margin: auto;"">
                                <img src=""images/map10_managua_scaleRev_orientMir_000.png"" style= ""width:200px""alt=""img"">
                            </div>
                        </div>",0.575,"",0,"",NA,"","images/map10_managua_scaleRev_orientMir_000.png","sad",1,10,10,"managua","orientMir","scaleRev","000",NA,NA
"","","","","","html-slider-response",82,181227,"0.0-78.0","tmovgthtbm",35,NA,"<div style=""width:500px;"">
                            <p style=""font-size:50px; font-weight:bold;""
                            >sad</p>
                            <div style=""width:240px; margin: auto;"">
                                <img src=""images/map23_PuRd_scaleDef_orientMir_270.png"" style= ""width:200px""alt=""img"">
                            </div>
                        </div>",0,"",0,"",NA,"","images/map23_PuRd_scaleDef_orientMir_270.png","sad",1,23,23,"PuRd","orientMir","scaleDef","270",NA,NA
"","","","","","html-slider-response",83,182950,"0.0-79.0","tmovgthtbm",35,NA,"<div style=""width:500px;"">
                            <p style=""font-size:50px; font-weight:bold;""
                            >sad</p>
                            <div style=""width:240px; margin: auto;"">
                                <img src=""images/map26_BuPu_scaleRev_orientMir_000.png"" style= ""width:200px""alt=""img"">
                            </div>
                        </div>",0.7125,"",0,"",NA,"","images/map26_BuPu_scaleRev_orientMir_000.png","sad",1,26,26,"BuPu","orientMir","scaleRev","000",NA,NA
"","","","","","html-slider-response",84,184627,"0.0-80.0","tmovgthtbm",35,NA,"<div style=""width:500px;"">
                            <p style=""font-size:50px; font-weight:bold;""
                            >sad</p>
                            <div style=""width:240px; margin: auto;"">
                                <img src=""images/map02_PiYG_scaleRev_orientDef_180.png"" style= ""width:200px""alt=""img"">
                            </div>
                        </div>",0.4575,"",0,"",NA,"","images/map02_PiYG_scaleRev_orientDef_180.png","sad",1,2,2,"PiYG","orientDef","scaleRev","180",NA,NA
"","","","","","html-slider-response",85,186329,"0.0-81.0","tmovgthtbm",35,NA,"<div style=""width:500px;"">
                            <p style=""font-size:50px; font-weight:bold;""
                            >sad</p>
                            <div style=""width:240px; margin: auto;"">
                                <img src=""images/map07_bwr_scaleRev_orientMir_180.png"" style= ""width:200px""alt=""img"">
                            </div>
                        </div>",0.345,"",0,"",NA,"","images/map07_bwr_scaleRev_orientMir_180.png","sad",1,7,7,"bwr","orientMir","scaleRev","180",NA,NA
"","","","","","html-slider-response",86,188332,"0.0-82.0","tmovgthtbm",35,NA,"<div style=""width:500px;"">
                            <p style=""font-size:50px; font-weight:bold;""
                            >sad</p>
                            <div style=""width:240px; margin: auto;"">
                                <img src=""images/map27_PuBu_scaleRev_orientDef_000.png"" style= ""width:200px""alt=""img"">
                            </div>
                        </div>",0.865,"",0,"",NA,"","images/map27_PuBu_scaleRev_orientDef_000.png","sad",1,27,27,"PuBu","orientDef","scaleRev","000",NA,NA
"","","","","","html-slider-response",87,190446,"0.0-83.0","tmovgthtbm",35,NA,"<div style=""width:500px;"">
                            <p style=""font-size:50px; font-weight:bold;""
                            >sad</p>
                            <div style=""width:240px; margin: auto;"">
                                <img src=""images/map15_Purples_scaleRev_orientDef_000.png"" style= ""width:200px""alt=""img"">
                            </div>
                        </div>",0.5675,"",0,"",NA,"","images/map15_Purples_scaleRev_orientDef_000.png","sad",1,15,15,"Purples","orientDef","scaleRev","000",NA,NA
"","","","","","html-slider-response",88,191908,"0.0-84.0","tmovgthtbm",35,NA,"<div style=""width:500px;"">
                            <p style=""font-size:50px; font-weight:bold;""
                            >sad</p>
                            <div style=""width:240px; margin: auto;"">
                                <img src=""images/map13_Greys_scaleRev_orientMir_180.png"" style= ""width:200px""alt=""img"">
                            </div>
                        </div>",1,"",0,"",NA,"","images/map13_Greys_scaleRev_orientMir_180.png","sad",1,13,13,"Greys","orientMir","scaleRev","180",NA,NA
"","","","","","html-slider-response",89,194492,"0.0-85.0","tmovgthtbm",35,NA,"<div style=""width:500px;"">
                            <p style=""font-size:50px; font-weight:bold;""
                            >sad</p>
                            <div style=""width:240px; margin: auto;"">
                                <img src=""images/map12_turbo_scaleRev_orientDef_180.png"" style= ""width:200px""alt=""img"">
                            </div>
                        </div>",0.055,"",0,"",NA,"","images/map12_turbo_scaleRev_orientDef_180.png","sad",1,12,12,"turbo","orientDef","scaleRev","180",NA,NA
"","","","","","html-slider-response",90,196237,"0.0-86.0","tmovgthtbm",35,NA,"<div style=""width:500px;"">
                            <p style=""font-size:50px; font-weight:bold;""
                            >sad</p>
                            <div style=""width:240px; margin: auto;"">
                                <img src=""images/map07_RdYlGn_scaleRev_orientDef_000.png"" style= ""width:200px""alt=""img"">
                            </div>
                        </div>",0.345,"",0,"",NA,"","images/map07_RdYlGn_scaleRev_orientDef_000.png","sad",1,7,7,"RdYlGn","orientDef","scaleRev","000",NA,NA
"","","","","","html-slider-response",91,198010,"0.0-87.0","tmovgthtbm",35,NA,"<div style=""width:500px;"">
                            <p style=""font-size:50px; font-weight:bold;""
                            >sad</p>
                            <div style=""width:240px; margin: auto;"">
                                <img src=""images/map26_PuRd_scaleRev_orientDef_000.png"" style= ""width:200px""alt=""img"">
                            </div>
                        </div>",0.235,"",0,"",NA,"","images/map26_PuRd_scaleRev_orientDef_000.png","sad",1,26,26,"PuRd","orientDef","scaleRev","000",NA,NA
"","","","","","html-slider-response",92,199709,"0.0-88.0","tmovgthtbm",35,NA,"<div style=""width:500px;"">
                            <p style=""font-size:50px; font-weight:bold;""
                            >sad</p>
                            <div style=""width:240px; margin: auto;"">
                                <img src=""images/map05_RdBu_scaleDef_orientDef_270.png"" style= ""width:200px""alt=""img"">
                            </div>
                        </div>",0.3775,"",0,"",NA,"","images/map05_RdBu_scaleDef_orientDef_270.png","sad",1,5,5,"RdBu","orientDef","scaleDef","270",NA,NA
"","","","","","html-slider-response",93,201859,"0.0-89.0","tmovgthtbm",35,NA,"<div style=""width:500px;"">
                            <p style=""font-size:50px; font-weight:bold;""
                            >sad</p>
                            <div style=""width:240px; margin: auto;"">
                                <img src=""images/map23_YlOrBr_scaleRev_orientDef_180.png"" style= ""width:200px""alt=""img"">
                            </div>
                        </div>",0.2125,"",0,"",NA,"","images/map23_YlOrBr_scaleRev_orientDef_180.png","sad",1,23,23,"YlOrBr","orientDef","scaleRev","180",NA,NA
"","","","","","html-slider-response",94,204057,"0.0-90.0","tmovgthtbm",35,NA,"<div style=""width:500px;"">
                            <p style=""font-size:50px; font-weight:bold;""
                            >sad</p>
                            <div style=""width:240px; margin: auto;"">
                                <img src=""images/map12_plasma_scaleDef_orientMir_090.png"" style= ""width:200px""alt=""img"">
                            </div>
                        </div>",0.425,"",0,"",NA,"","images/map12_plasma_scaleDef_orientMir_090.png","sad",1,12,12,"plasma","orientMir","scaleDef","090",NA,NA
"","","","","","html-slider-response",95,205474,"0.0-91.0","tmovgthtbm",35,NA,"<div style=""width:500px;"">
                            <p style=""font-size:50px; font-weight:bold;""
                            >sad</p>
                            <div style=""width:240px; margin: auto;"">
                                <img src=""images/map10_berlin_scaleDef_orientDef_090.png"" style= ""width:200px""alt=""img"">
                            </div>
                        </div>",0.575,"",0,"",NA,"","images/map10_berlin_scaleDef_orientDef_090.png","sad",1,10,10,"berlin","orientDef","scaleDef","090",NA,NA
"","","","","","html-slider-response",96,208200,"0.0-92.0","tmovgthtbm",35,NA,"<div style=""width:500px;"">
                            <p style=""font-size:50px; font-weight:bold;""
                            >sad</p>
                            <div style=""width:240px; margin: auto;"">
                                <img src=""images/map10_seismic_scaleRev_orientDef_000.png"" style= ""width:200px""alt=""img"">
                            </div>
                        </div>",0.245,"",0,"",NA,"","images/map10_seismic_scaleRev_orientDef_000.png","sad",1,10,10,"seismic","orientDef","scaleRev","000",NA,NA
"","","","","","html-slider-response",97,210061,"0.0-93.0","tmovgthtbm",35,NA,"<div style=""width:500px;"">
                            <p style=""font-size:50px; font-weight:bold;""
                            >sad</p>
                            <div style=""width:240px; margin: auto;"">
                                <img src=""images/map12_inferno_scaleDef_orientMir_270.png"" style= ""width:200px""alt=""img"">
                            </div>
                        </div>",0.425,"",0,"",NA,"","images/map12_inferno_scaleDef_orientMir_270.png","sad",1,12,12,"inferno","orientMir","scaleDef","270",NA,NA
"","","","","","html-slider-response",98,211818,"0.0-94.0","tmovgthtbm",35,NA,"<div style=""width:500px;"">
                            <p style=""font-size:50px; font-weight:bold;""
                            >sad</p>
                            <div style=""width:240px; margin: auto;"">
                                <img src=""images/map07_coolwarm_scaleRev_orientMir_000.png"" style= ""width:200px""alt=""img"">
                            </div>
                        </div>",0.405,"",0,"",NA,"","images/map07_coolwarm_scaleRev_orientMir_000.png","sad",1,7,7,"coolwarm","orientMir","scaleRev","000",NA,NA
"","","","","","html-button-response",99,213571,"0.0-95.0","tmovgthtbm",35,1250,"<p>Great Job! You've finished block 1.<br></br> You have 4 block(s) left to go.<br></br></p>",0.5,"",NA,"",NA,"","","",NA,NA,NA,"","","","",NA,NA
"","","","","","html-button-response",100,214373,"0.0-96.0","tmovgthtbm",35,801,"<p>In this block of trials, you will be asked to rate how much you associate each map with:</p > <p style = 'font-size:150%; font-weight: bold'>happy</p><br></br>",0.5,"",NA,"",NA,"","","",NA,NA,NA,"","","","",NA,NA
"","","","","","html-slider-response",101,218979,"0.0-97.0","tmovgthtbm",35,NA,"<div style=""width:500px;"">
                            <p style=""font-size:50px; font-weight:bold;""
                            >happy</p>
                            <div style=""width:240px; margin: auto;"">
                                <img src=""images/map10_managua_scaleRev_orientMir_000.png"" style= ""width:200px""alt=""img"">
                            </div>
                        </div>",0.2425,"",0,"",NA,"","images/map10_managua_scaleRev_orientMir_000.png","happy",1,10,10,"managua","orientMir","scaleRev","000",NA,NA
"","","","","","html-slider-response",102,220691,"0.0-98.0","tmovgthtbm",35,NA,"<div style=""width:500px;"">
                            <p style=""font-size:50px; font-weight:bold;""
                            >happy</p>
                            <div style=""width:240px; margin: auto;"">
                                <img src=""images/map05_RdBu_scaleDef_orientDef_270.png"" style= ""width:200px""alt=""img"">
                            </div>
                        </div>",0.035,"",0,"",NA,"","images/map05_RdBu_scaleDef_orientDef_270.png","happy",1,5,5,"RdBu","orientDef","scaleDef","270",NA,NA
"","","","","","html-slider-response",103,222433,"0.0-99.0","tmovgthtbm",35,NA,"<div style=""width:500px;"">
                            <p style=""font-size:50px; font-weight:bold;""
                            >happy</p>
                            <div style=""width:240px; margin: auto;"">
                                <img src=""images/map26_BuPu_scaleDef_orientDef_270.png"" style= ""width:200px""alt=""img"">
                            </div>
                        </div>",0.2975,"",0,"",NA,"","images/map26_BuPu_scaleDef_orientDef_270.png","happy",1,26,26,"BuPu","orientDef","scaleDef","270",NA,NA
"","","","","","html-slider-response",104,224217,"0.0-100.0","tmovgthtbm",35,NA,"<div style=""width:500px;"">
                            <p style=""font-size:50px; font-weight:bold;""
                            >happy</p>
                            <div style=""width:240px; margin: auto;"">
                                <img src=""images/map10_berlin_scaleRev_orientDef_180.png"" style= ""width:200px""alt=""img"">
                            </div>
                        </div>",0.24,"",0,"",NA,"","images/map10_berlin_scaleRev_orientDef_180.png","happy",1,10,10,"berlin","orientDef","scaleRev","180",NA,NA
"","","","","","html-slider-response",105,226673,"0.0-101.0","tmovgthtbm",35,NA,"<div style=""width:500px;"">
                            <p style=""font-size:50px; font-weight:bold;""
                            >happy</p>
                            <div style=""width:240px; margin: auto;"">
                                <img src=""images/map27_PuBuGn_scaleRev_orientMir_000.png"" style= ""width:200px""alt=""img"">
                            </div>
                        </div>",0.4375,"",0,"",NA,"","images/map27_PuBuGn_scaleRev_orientMir_000.png","happy",1,27,27,"PuBuGn","orientMir","scaleRev","000",NA,NA
"","","","","","html-slider-response",106,230448,"0.0-102.0","tmovgthtbm",35,NA,"<div style=""width:500px;"">
                            <p style=""font-size:50px; font-weight:bold;""
                            >happy</p>
                            <div style=""width:240px; margin: auto;"">
                                <img src=""images/map02_PRGn_scaleRev_orientMir_000.png"" style= ""width:200px""alt=""img"">
                            </div>
                        </div>",0.5225,"",0,"",NA,"","images/map02_PRGn_scaleRev_orientMir_000.png","happy",1,2,2,"PRGn","orientMir","scaleRev","000",NA,NA
"","","","","","html-slider-response",107,232621,"0.0-103.0","tmovgthtbm",35,NA,"<div style=""width:500px;"">
                            <p style=""font-size:50px; font-weight:bold;""
                            >happy</p>
                            <div style=""width:240px; margin: auto;"">
                                <img src=""images/map23_YlOrBr_scaleDef_orientDef_090.png"" style= ""width:200px""alt=""img"">
                            </div>
                        </div>",0.6175,"",0,"",NA,"","images/map23_YlOrBr_scaleDef_orientDef_090.png","happy",1,23,23,"YlOrBr","orientDef","scaleDef","090",NA,NA
"","","","","","html-slider-response",108,234357,"0.0-104.0","tmovgthtbm",35,NA,"<div style=""width:500px;"">
                            <p style=""font-size:50px; font-weight:bold;""
                            >happy</p>
                            <div style=""width:240px; margin: auto;"">
                                <img src=""images/map15_Purples_scaleRev_orientDef_000.png"" style= ""width:200px""alt=""img"">
                            </div>
                        </div>",0.455,"",0,"",NA,"","images/map15_Purples_scaleRev_orientDef_000.png","happy",1,15,15,"Purples","orientDef","scaleRev","000",NA,NA
"","","","","","html-slider-response",109,236050,"0.0-105.0","tmovgthtbm",35,NA,"<div style=""width:500px;"">
                            <p style=""font-size:50px; font-weight:bold;""
                            >happy</p>
                            <div style=""width:240px; margin: auto;"">
                                <img src=""images/map10_gist_earth_scaleDef_orientMir_270.png"" style= ""width:200px""alt=""img"">
                            </div>
                        </div>",0.315,"",0,"",NA,"","images/map10_gist_earth_scaleDef_orientMir_270.png","happy",1,10,10,"gist","scaleDef","earth","orientMir",NA,NA
"","","","","","html-slider-response",110,237440,"0.0-106.0","tmovgthtbm",35,NA,"<div style=""width:500px;"">
                            <p style=""font-size:50px; font-weight:bold;""
                            >happy</p>
                            <div style=""width:240px; margin: auto;"">
                                <img src=""images/map05_RdBu_scaleRev_orientMir_000.png"" style= ""width:200px""alt=""img"">
                            </div>
                        </div>",0.385,"",0,"",NA,"","images/map05_RdBu_scaleRev_orientMir_000.png","happy",1,5,5,"RdBu","orientMir","scaleRev","000",NA,NA
"","","","","","html-slider-response",111,239236,"0.0-107.0","tmovgthtbm",35,NA,"<div style=""width:500px;"">
                            <p style=""font-size:50px; font-weight:bold;""
                            >happy</p>
                            <div style=""width:240px; margin: auto;"">
                                <img src=""images/map02_PiYG_scaleRev_orientDef_180.png"" style= ""width:200px""alt=""img"">
                            </div>
                        </div>",0.75,"",0,"",NA,"","images/map02_PiYG_scaleRev_orientDef_180.png","happy",1,2,2,"PiYG","orientDef","scaleRev","180",NA,NA
"","","","","","html-slider-response",112,241316,"0.0-108.0","tmovgthtbm",35,NA,"<div style=""width:500px;"">
                            <p style=""font-size:50px; font-weight:bold;""
                            >happy</p>
                            <div style=""width:240px; margin: auto;"">
                                <img src=""images/map10_vanimo_scaleDef_orientMir_090.png"" style= ""width:200px""alt=""img"">
                            </div>
                        </div>",0.55,"",0,"",NA,"","images/map10_vanimo_scaleDef_orientMir_090.png","happy",1,10,10,"vanimo","orientMir","scaleDef","090",NA,NA
"","","","","","html-slider-response",113,243459,"0.0-109.0","tmovgthtbm",35,NA,"<div style=""width:500px;"">
                            <p style=""font-size:50px; font-weight:bold;""
                            >happy</p>
                            <div style=""width:240px; margin: auto;"">
                                <img src=""images/map07_coolwarm_scaleRev_orientMir_000.png"" style= ""width:200px""alt=""img"">
                            </div>
                        </div>",0.64,"",0,"",NA,"","images/map07_coolwarm_scaleRev_orientMir_000.png","happy",1,7,7,"coolwarm","orientMir","scaleRev","000",NA,NA
"","","","","","html-slider-response",114,245317,"0.0-110.0","tmovgthtbm",35,NA,"<div style=""width:500px;"">
                            <p style=""font-size:50px; font-weight:bold;""
                            >happy</p>
                            <div style=""width:240px; margin: auto;"">
                                <img src=""images/map23_Reds_scaleRev_orientDef_000.png"" style= ""width:200px""alt=""img"">
                            </div>
                        </div>",0.0525,"",0,"",NA,"","images/map23_Reds_scaleRev_orientDef_000.png","happy",1,23,23,"Reds","orientDef","scaleRev","000",NA,NA
"","","","","","html-slider-response",115,246788,"0.0-111.0","tmovgthtbm",35,NA,"<div style=""width:500px;"">
                            <p style=""font-size:50px; font-weight:bold;""
                            >happy</p>
                            <div style=""width:240px; margin: auto;"">
                                <img src=""images/map13_Greys_scaleDef_orientMir_090.png"" style= ""width:200px""alt=""img"">
                            </div>
                        </div>",0,"",0,"",NA,"","images/map13_Greys_scaleDef_orientMir_090.png","happy",1,13,13,"Greys","orientMir","scaleDef","090",NA,NA
"","","","","","html-slider-response",116,248512,"0.0-112.0","tmovgthtbm",35,NA,"<div style=""width:500px;"">
                            <p style=""font-size:50px; font-weight:bold;""
                            >happy</p>
                            <div style=""width:240px; margin: auto;"">
                                <img src=""images/map13_cividis_scaleDef_orientDef_270.png"" style= ""width:200px""alt=""img"">
                            </div>
                        </div>",0,"",0,"",NA,"","images/map13_cividis_scaleDef_orientDef_270.png","happy",1,13,13,"cividis","orientDef","scaleDef","270",NA,NA
"","","","","","html-slider-response",117,250417,"0.0-113.0","tmovgthtbm",35,NA,"<div style=""width:500px;"">
                            <p style=""font-size:50px; font-weight:bold;""
                            >happy</p>
                            <div style=""width:240px; margin: auto;"">
                                <img src=""images/map05_RdGy_scaleDef_orientDef_090.png"" style= ""width:200px""alt=""img"">
                            </div>
                        </div>",0.2725,"",0,"",NA,"","images/map05_RdGy_scaleDef_orientDef_090.png","happy",1,5,5,"RdGy","orientDef","scaleDef","090",NA,NA
"","","","","","html-slider-response",118,252426,"0.0-114.0","tmovgthtbm",35,NA,"<div style=""width:500px;"">
                            <p style=""font-size:50px; font-weight:bold;""
                            >happy</p>
                            <div style=""width:240px; margin: auto;"">
                                <img src=""images/map07_bwr_scaleRev_orientMir_180.png"" style= ""width:200px""alt=""img"">
                            </div>
                        </div>",0.465,"",0,"",NA,"","images/map07_bwr_scaleRev_orientMir_180.png","happy",1,7,7,"bwr","orientMir","scaleRev","180",NA,NA
"","","","","","html-slider-response",119,253988,"0.0-115.0","tmovgthtbm",35,NA,"<div style=""width:500px;"">
                            <p style=""font-size:50px; font-weight:bold;""
                            >happy</p>
                            <div style=""width:240px; margin: auto;"">
                                <img src=""images/map23_OrRd_scaleRev_orientMir_180.png"" style= ""width:200px""alt=""img"">
                            </div>
                        </div>",0.385,"",0,"",NA,"","images/map23_OrRd_scaleRev_orientMir_180.png","happy",1,23,23,"OrRd","orientMir","scaleRev","180",NA,NA
"","","","","","html-slider-response",120,256270,"0.0-116.0","tmovgthtbm",35,NA,"<div style=""width:500px;"">
                            <p style=""font-size:50px; font-weight:bold;""
                            >happy</p>
                            <div style=""width:240px; margin: auto;"">
                                <img src=""images/map02_BrBG_scaleRev_orientMir_180.png"" style= ""width:200px""alt=""img"">
                            </div>
                        </div>",0.405,"",0,"",NA,"","images/map02_BrBG_scaleRev_orientMir_180.png","happy",1,2,2,"BrBG","orientMir","scaleRev","180",NA,NA
"","","","","","html-slider-response",121,258062,"0.0-117.0","tmovgthtbm",35,NA,"<div style=""width:500px;"">
                            <p style=""font-size:50px; font-weight:bold;""
                            >happy</p>
                            <div style=""width:240px; margin: auto;"">
                                <img src=""images/map27_PuBuGn_scaleDef_orientDef_270.png"" style= ""width:200px""alt=""img"">
                            </div>
                        </div>",0.215,"",0,"",NA,"","images/map27_PuBuGn_scaleDef_orientDef_270.png","happy",1,27,27,"PuBuGn","orientDef","scaleDef","270",NA,NA
"","","","","","html-slider-response",122,259710,"0.0-118.0","tmovgthtbm",35,NA,"<div style=""width:500px;"">
                            <p style=""font-size:50px; font-weight:bold;""
                            >happy</p>
                            <div style=""width:240px; margin: auto;"">
                                <img src=""images/map13_cividis_scaleRev_orientMir_000.png"" style= ""width:200px""alt=""img"">
                            </div>
                        </div>",0.175,"",0,"",NA,"","images/map13_cividis_scaleRev_orientMir_000.png","happy",1,13,13,"cividis","orientMir","scaleRev","000",NA,NA
"","","","","","html-slider-response",123,261973,"0.0-119.0","tmovgthtbm",35,NA,"<div style=""width:500px;"">
                            <p style=""font-size:50px; font-weight:bold;""
                            >happy</p>
                            <div style=""width:240px; margin: auto;"">
                                <img src=""images/map13_Purples_scaleDef_orientMir_270.png"" style= ""width:200px""alt=""img"">
                            </div>
                        </div>",0.235,"",0,"",NA,"","images/map13_Purples_scaleDef_orientMir_270.png","happy",1,13,13,"Purples","orientMir","scaleDef","270",NA,NA
"","","","","","html-slider-response",124,263857,"0.0-120.0","tmovgthtbm",35,NA,"<div style=""width:500px;"">
                            <p style=""font-size:50px; font-weight:bold;""
                            >happy</p>
                            <div style=""width:240px; margin: auto;"">
                                <img src=""images/map26_BuPu_scaleRev_orientMir_000.png"" style= ""width:200px""alt=""img"">
                            </div>
                        </div>",0.2675,"",0,"",NA,"","images/map26_BuPu_scaleRev_orientMir_000.png","happy",1,26,26,"BuPu","orientMir","scaleRev","000",NA,NA
"","","","","","html-slider-response",125,265930,"0.0-121.0","tmovgthtbm",35,NA,"<div style=""width:500px;"">
                            <p style=""font-size:50px; font-weight:bold;""
                            >happy</p>
                            <div style=""width:240px; margin: auto;"">
                                <img src=""images/map12_turbo_scaleRev_orientDef_180.png"" style= ""width:200px""alt=""img"">
                            </div>
                        </div>",0.7875,"",0,"",NA,"","images/map12_turbo_scaleRev_orientDef_180.png","happy",1,12,12,"turbo","orientDef","scaleRev","180",NA,NA
"","","","","","html-slider-response",126,267777,"0.0-122.0","tmovgthtbm",35,NA,"<div style=""width:500px;"">
                            <p style=""font-size:50px; font-weight:bold;""
                            >happy</p>
                            <div style=""width:240px; margin: auto;"">
                                <img src=""images/map13_inferno_scaleRev_orientDef_000.png"" style= ""width:200px""alt=""img"">
                            </div>
                        </div>",0.3725,"",0,"",NA,"","images/map13_inferno_scaleRev_orientDef_000.png","happy",1,13,13,"inferno","orientDef","scaleRev","000",NA,NA
"","","","","","html-slider-response",127,269678,"0.0-123.0","tmovgthtbm",35,NA,"<div style=""width:500px;"">
                            <p style=""font-size:50px; font-weight:bold;""
                            >happy</p>
                            <div style=""width:240px; margin: auto;"">
                                <img src=""images/map27_YlGn_scaleDef_orientMir_270.png"" style= ""width:200px""alt=""img"">
                            </div>
                        </div>",0.6575,"",0,"",NA,"","images/map27_YlGn_scaleDef_orientMir_270.png","happy",1,27,27,"YlGn","orientMir","scaleDef","270",NA,NA
"","","","","","html-slider-response",128,271245,"0.0-124.0","tmovgthtbm",35,NA,"<div style=""width:500px;"">
                            <p style=""font-size:50px; font-weight:bold;""
                            >happy</p>
                            <div style=""width:240px; margin: auto;"">
                                <img src=""images/map13_magma_scaleDef_orientDef_090.png"" style= ""width:200px""alt=""img"">
                            </div>
                        </div>",0.1425,"",0,"",NA,"","images/map13_magma_scaleDef_orientDef_090.png","happy",1,13,13,"magma","orientDef","scaleDef","090",NA,NA
"","","","","","html-slider-response",129,273597,"0.0-125.0","tmovgthtbm",35,NA,"<div style=""width:500px;"">
                            <p style=""font-size:50px; font-weight:bold;""
                            >happy</p>
                            <div style=""width:240px; margin: auto;"">
                                <img src=""images/map07_coolwarm_scaleDef_orientDef_270.png"" style= ""width:200px""alt=""img"">
                            </div>
                        </div>",0.2225,"",0,"",NA,"","images/map07_coolwarm_scaleDef_orientDef_270.png","happy",1,7,7,"coolwarm","orientDef","scaleDef","270",NA,NA
"","","","","","html-slider-response",130,275786,"0.0-126.0","tmovgthtbm",35,NA,"<div style=""width:500px;"">
                            <p style=""font-size:50px; font-weight:bold;""
                            >happy</p>
                            <div style=""width:240px; margin: auto;"">
                                <img src=""images/map27_BuGn_scaleDef_orientMir_090.png"" style= ""width:200px""alt=""img"">
                            </div>
                        </div>",0.635,"",0,"",NA,"","images/map27_BuGn_scaleDef_orientMir_090.png","happy",1,27,27,"BuGn","orientMir","scaleDef","090",NA,NA
"","","","","","html-slider-response",131,277612,"0.0-127.0","tmovgthtbm",35,NA,"<div style=""width:500px;"">
                            <p style=""font-size:50px; font-weight:bold;""
                            >happy</p>
                            <div style=""width:240px; margin: auto;"">
                                <img src=""images/map07_bwr_scaleDef_orientMir_090.png"" style= ""width:200px""alt=""img"">
                            </div>
                        </div>",0.45,"",0,"",NA,"","images/map07_bwr_scaleDef_orientMir_090.png","happy",1,7,7,"bwr","orientMir","scaleDef","090",NA,NA
"","","","","","html-slider-response",132,279863,"0.0-128.0","tmovgthtbm",35,NA,"<div style=""width:500px;"">
                            <p style=""font-size:50px; font-weight:bold;""
                            >happy</p>
                            <div style=""width:240px; margin: auto;"">
                                <img src=""images/map12_viridis_scaleDef_orientDef_270.png"" style= ""width:200px""alt=""img"">
                            </div>
                        </div>",0.5825,"",0,"",NA,"","images/map12_viridis_scaleDef_orientDef_270.png","happy",1,12,12,"viridis","orientDef","scaleDef","270",NA,NA
"","","","","","html-slider-response",133,281681,"0.0-129.0","tmovgthtbm",35,NA,"<div style=""width:500px;"">
                            <p style=""font-size:50px; font-weight:bold;""
                            >happy</p>
                            <div style=""width:240px; margin: auto;"">
                                <img src=""images/map02_PRGn_scaleDef_orientDef_270.png"" style= ""width:200px""alt=""img"">
                            </div>
                        </div>",0.5725,"",0,"",NA,"","images/map02_PRGn_scaleDef_orientDef_270.png","happy",1,2,2,"PRGn","orientDef","scaleDef","270",NA,NA
"","","","","","html-slider-response",134,284010,"0.0-130.0","tmovgthtbm",35,NA,"<div style=""width:500px;"">
                            <p style=""font-size:50px; font-weight:bold;""
                            >happy</p>
                            <div style=""width:240px; margin: auto;"">
                                <img src=""images/map02_YlGn_scaleRev_orientDef_000.png"" style= ""width:200px""alt=""img"">
                            </div>
                        </div>",0.5575,"",0,"",NA,"","images/map02_YlGn_scaleRev_orientDef_000.png","happy",1,2,2,"YlGn","orientDef","scaleRev","000",NA,NA
"","","","","","html-slider-response",135,286167,"0.0-131.0","tmovgthtbm",35,NA,"<div style=""width:500px;"">
                            <p style=""font-size:50px; font-weight:bold;""
                            >happy</p>
                            <div style=""width:240px; margin: auto;"">
                                <img src=""images/map26_GnBu_scaleRev_orientMir_180.png"" style= ""width:200px""alt=""img"">
                            </div>
                        </div>",0.265,"",0,"",NA,"","images/map26_GnBu_scaleRev_orientMir_180.png","happy",1,26,26,"GnBu","orientMir","scaleRev","180",NA,NA
"","","","","","html-slider-response",136,287771,"0.0-132.0","tmovgthtbm",35,NA,"<div style=""width:500px;"">
                            <p style=""font-size:50px; font-weight:bold;""
                            >happy</p>
                            <div style=""width:240px; margin: auto;"">
                                <img src=""images/map12_gist_earth_scaleRev_orientDef_000.png"" style= ""width:200px""alt=""img"">
                            </div>
                        </div>",0.425,"",0,"",NA,"","images/map12_gist_earth_scaleRev_orientDef_000.png","happy",1,12,12,"gist","scaleRev","earth","orientDef",NA,NA
"","","","","","html-slider-response",137,289502,"0.0-133.0","tmovgthtbm",35,NA,"<div style=""width:500px;"">
                            <p style=""font-size:50px; font-weight:bold;""
                            >happy</p>
                            <div style=""width:240px; margin: auto;"">
                                <img src=""images/map27_BuGn_scaleRev_orientMir_180.png"" style= ""width:200px""alt=""img"">
                            </div>
                        </div>",0.555,"",0,"",NA,"","images/map27_BuGn_scaleRev_orientMir_180.png","happy",1,27,27,"BuGn","orientMir","scaleRev","180",NA,NA
"","","","","","html-slider-response",138,290914,"0.0-134.0","tmovgthtbm",35,NA,"<div style=""width:500px;"">
                            <p style=""font-size:50px; font-weight:bold;""
                            >happy</p>
                            <div style=""width:240px; margin: auto;"">
                                <img src=""images/map26_PuRd_scaleRev_orientDef_000.png"" style= ""width:200px""alt=""img"">
                            </div>
                        </div>",0.4,"",0,"",NA,"","images/map26_PuRd_scaleRev_orientDef_000.png","happy",1,26,26,"PuRd","orientDef","scaleRev","000",NA,NA
"","","","","","html-slider-response",139,292679,"0.0-135.0","tmovgthtbm",35,NA,"<div style=""width:500px;"">
                            <p style=""font-size:50px; font-weight:bold;""
                            >happy</p>
                            <div style=""width:240px; margin: auto;"">
                                <img src=""images/map05_RdGy_scaleRev_orientDef_180.png"" style= ""width:200px""alt=""img"">
                            </div>
                        </div>",0.3325,"",0,"",NA,"","images/map05_RdGy_scaleRev_orientDef_180.png","happy",1,5,5,"RdGy","orientDef","scaleRev","180",NA,NA
"","","","","","html-slider-response",140,294171,"0.0-136.0","tmovgthtbm",35,NA,"<div style=""width:500px;"">
                            <p style=""font-size:50px; font-weight:bold;""
                            >happy</p>
                            <div style=""width:240px; margin: auto;"">
                                <img src=""images/map26_RdPu_scaleDef_orientDef_090.png"" style= ""width:200px""alt=""img"">
                            </div>
                        </div>",0.69,"",0,"",NA,"","images/map26_RdPu_scaleDef_orientDef_090.png","happy",1,26,26,"RdPu","orientDef","scaleDef","090",NA,NA
"","","","","","html-button-response",141,295720,"0.0-137.0","tmovgthtbm",35,1047,"<p>You are doing great!<br></br> You are halway done with the current block. When you are ready to continue, click the 'Continue' button.</p>",0.5,"",NA,"",NA,"","","",NA,NA,NA,"","","","",NA,NA
"","","","","","html-slider-response",142,297412,"0.0-138.0","tmovgthtbm",35,NA,"<div style=""width:500px;"">
                            <p style=""font-size:50px; font-weight:bold;""
                            >happy</p>
                            <div style=""width:240px; margin: auto;"">
                                <img src=""images/map15_Blues_scaleRev_orientDef_180.png"" style= ""width:200px""alt=""img"">
                            </div>
                        </div>",0.145,"",0,"",NA,"","images/map15_Blues_scaleRev_orientDef_180.png","happy",1,15,15,"Blues","orientDef","scaleRev","180",NA,NA
"","","","","","html-slider-response",143,299658,"0.0-139.0","tmovgthtbm",35,NA,"<div style=""width:500px;"">
                            <p style=""font-size:50px; font-weight:bold;""
                            >happy</p>
                            <div style=""width:240px; margin: auto;"">
                                <img src=""images/map12_turbo_scaleDef_orientDef_090.png"" style= ""width:200px""alt=""img"">
                            </div>
                        </div>",0.78,"",0,"",NA,"","images/map12_turbo_scaleDef_orientDef_090.png","happy",1,12,12,"turbo","orientDef","scaleDef","090",NA,NA
"","","","","","html-slider-response",144,301545,"0.0-140.0","tmovgthtbm",35,NA,"<div style=""width:500px;"">
                            <p style=""font-size:50px; font-weight:bold;""
                            >happy</p>
                            <div style=""width:240px; margin: auto;"">
                                <img src=""images/map23_PuRd_scaleDef_orientMir_270.png"" style= ""width:200px""alt=""img"">
                            </div>
                        </div>",0.74,"",0,"",NA,"","images/map23_PuRd_scaleDef_orientMir_270.png","happy",1,23,23,"PuRd","orientMir","scaleDef","270",NA,NA
"","","","","","html-slider-response",145,302971,"0.0-141.0","tmovgthtbm",35,NA,"<div style=""width:500px;"">
                            <p style=""font-size:50px; font-weight:bold;""
                            >happy</p>
                            <div style=""width:240px; margin: auto;"">
                                <img src=""images/map13_Greys_scaleRev_orientMir_180.png"" style= ""width:200px""alt=""img"">
                            </div>
                        </div>",0,"",0,"",NA,"","images/map13_Greys_scaleRev_orientMir_180.png","happy",1,13,13,"Greys","orientMir","scaleRev","180",NA,NA
"","","","","","html-slider-response",146,304654,"0.0-142.0","tmovgthtbm",35,NA,"<div style=""width:500px;"">
                            <p style=""font-size:50px; font-weight:bold;""
                            >happy</p>
                            <div style=""width:240px; margin: auto;"">
                                <img src=""images/map10_managua_scaleDef_orientDef_270.png"" style= ""width:200px""alt=""img"">
                            </div>
                        </div>",0.2625,"",0,"",NA,"","images/map10_managua_scaleDef_orientDef_270.png","happy",1,10,10,"managua","orientDef","scaleDef","270",NA,NA
"","","","","","html-slider-response",147,306472,"0.0-143.0","tmovgthtbm",35,NA,"<div style=""width:500px;"">
                            <p style=""font-size:50px; font-weight:bold;""
                            >happy</p>
                            <div style=""width:240px; margin: auto;"">
                                <img src=""images/map27_YlGnBu_scaleRev_orientDef_180.png"" style= ""width:200px""alt=""img"">
                            </div>
                        </div>",0.2375,"",0,"",NA,"","images/map27_YlGnBu_scaleRev_orientDef_180.png","happy",1,27,27,"YlGnBu","orientDef","scaleRev","180",NA,NA
"","","","","","html-slider-response",148,308192,"0.0-144.0","tmovgthtbm",35,NA,"<div style=""width:500px;"">
                            <p style=""font-size:50px; font-weight:bold;""
                            >happy</p>
                            <div style=""width:240px; margin: auto;"">
                                <img src=""images/map10_berlin_scaleDef_orientDef_090.png"" style= ""width:200px""alt=""img"">
                            </div>
                        </div>",0.1575,"",0,"",NA,"","images/map10_berlin_scaleDef_orientDef_090.png","happy",1,10,10,"berlin","orientDef","scaleDef","090",NA,NA
"","","","","","html-slider-response",149,310122,"0.0-145.0","tmovgthtbm",35,NA,"<div style=""width:500px;"">
                            <p style=""font-size:50px; font-weight:bold;""
                            >happy</p>
                            <div style=""width:240px; margin: auto;"">
                                <img src=""images/map23_YlOrBr_scaleRev_orientDef_180.png"" style= ""width:200px""alt=""img"">
                            </div>
                        </div>",0.7325,"",0,"",NA,"","images/map23_YlOrBr_scaleRev_orientDef_180.png","happy",1,23,23,"YlOrBr","orientDef","scaleRev","180",NA,NA
"","","","","","html-slider-response",150,312096,"0.0-146.0","tmovgthtbm",35,NA,"<div style=""width:500px;"">
                            <p style=""font-size:50px; font-weight:bold;""
                            >happy</p>
                            <div style=""width:240px; margin: auto;"">
                                <img src=""images/map15_Greens_scaleDef_orientDef_270.png"" style= ""width:200px""alt=""img"">
                            </div>
                        </div>",0.4325,"",0,"",NA,"","images/map15_Greens_scaleDef_orientDef_270.png","happy",1,15,15,"Greens","orientDef","scaleDef","270",NA,NA
"","","","","","html-slider-response",151,313808,"0.0-147.0","tmovgthtbm",35,NA,"<div style=""width:500px;"">
                            <p style=""font-size:50px; font-weight:bold;""
                            >happy</p>
                            <div style=""width:240px; margin: auto;"">
                                <img src=""images/map02_BrBG_scaleDef_orientMir_090.png"" style= ""width:200px""alt=""img"">
                            </div>
                        </div>",0.09,"",0,"",NA,"","images/map02_BrBG_scaleDef_orientMir_090.png","happy",1,2,2,"BrBG","orientMir","scaleDef","090",NA,NA
"","","","","","html-slider-response",152,315618,"0.0-148.0","tmovgthtbm",35,NA,"<div style=""width:500px;"">
                            <p style=""font-size:50px; font-weight:bold;""
                            >happy</p>
                            <div style=""width:240px; margin: auto;"">
                                <img src=""images/map23_OrRd_scaleDef_orientMir_090.png"" style= ""width:200px""alt=""img"">
                            </div>
                        </div>",0.5575,"",0,"",NA,"","images/map23_OrRd_scaleDef_orientMir_090.png","happy",1,23,23,"OrRd","orientMir","scaleDef","090",NA,NA
"","","","","","html-slider-response",153,317187,"0.0-149.0","tmovgthtbm",35,NA,"<div style=""width:500px;"">
                            <p style=""font-size:50px; font-weight:bold;""
                            >happy</p>
                            <div style=""width:240px; margin: auto;"">
                                <img src=""images/map07_seismic_scaleDef_orientMir_270.png"" style= ""width:200px""alt=""img"">
                            </div>
                        </div>",0.385,"",0,"",NA,"","images/map07_seismic_scaleDef_orientMir_270.png","happy",1,7,7,"seismic","orientMir","scaleDef","270",NA,NA
"","","","","","html-slider-response",154,318846,"0.0-150.0","tmovgthtbm",35,NA,"<div style=""width:500px;"">
                            <p style=""font-size:50px; font-weight:bold;""
                            >happy</p>
                            <div style=""width:240px; margin: auto;"">
                                <img src=""images/map15_Blues_scaleDef_orientDef_090.png"" style= ""width:200px""alt=""img"">
                            </div>
                        </div>",0.285,"",0,"",NA,"","images/map15_Blues_scaleDef_orientDef_090.png","happy",1,15,15,"Blues","orientDef","scaleDef","090",NA,NA
"","","","","","html-slider-response",155,320623,"0.0-151.0","tmovgthtbm",35,NA,"<div style=""width:500px;"">
                            <p style=""font-size:50px; font-weight:bold;""
                            >happy</p>
                            <div style=""width:240px; margin: auto;"">
                                <img src=""images/map23_YlOrRd_scaleDef_orientDef_270.png"" style= ""width:200px""alt=""img"">
                            </div>
                        </div>",0.585,"",0,"",NA,"","images/map23_YlOrRd_scaleDef_orientDef_270.png","happy",1,23,23,"YlOrRd","orientDef","scaleDef","270",NA,NA
"","","","","","html-slider-response",156,322291,"0.0-152.0","tmovgthtbm",35,NA,"<div style=""width:500px;"">
                            <p style=""font-size:50px; font-weight:bold;""
                            >happy</p>
                            <div style=""width:240px; margin: auto;"">
                                <img src=""images/map15_Greens_scaleRev_orientMir_000.png"" style= ""width:200px""alt=""img"">
                            </div>
                        </div>",0.3325,"",0,"",NA,"","images/map15_Greens_scaleRev_orientMir_000.png","happy",1,15,15,"Greens","orientMir","scaleRev","000",NA,NA
"","","","","","html-slider-response",157,323949,"0.0-153.0","tmovgthtbm",35,NA,"<div style=""width:500px;"">
                            <p style=""font-size:50px; font-weight:bold;""
                            >happy</p>
                            <div style=""width:240px; margin: auto;"">
                                <img src=""images/map27_PuBu_scaleRev_orientDef_000.png"" style= ""width:200px""alt=""img"">
                            </div>
                        </div>",0.2425,"",0,"",NA,"","images/map27_PuBu_scaleRev_orientDef_000.png","happy",1,27,27,"PuBu","orientDef","scaleRev","000",NA,NA
"","","","","","html-slider-response",158,326305,"0.0-154.0","tmovgthtbm",35,NA,"<div style=""width:500px;"">
                            <p style=""font-size:50px; font-weight:bold;""
                            >happy</p>
                            <div style=""width:240px; margin: auto;"">
                                <img src=""images/map26_RdPu_scaleRev_orientDef_180.png"" style= ""width:200px""alt=""img"">
                            </div>
                        </div>",0.8725,"",0,"",NA,"","images/map26_RdPu_scaleRev_orientDef_180.png","happy",1,26,26,"RdPu","orientDef","scaleRev","180",NA,NA
"","","","","","html-slider-response",159,330175,"0.0-155.0","tmovgthtbm",35,NA,"<div style=""width:500px;"">
                            <p style=""font-size:50px; font-weight:bold;""
                            >happy</p>
                            <div style=""width:240px; margin: auto;"">
                                <img src=""images/map13_magma_scaleRev_orientDef_180.png"" style= ""width:200px""alt=""img"">
                            </div>
                        </div>",0.2525,"",0,"",NA,"","images/map13_magma_scaleRev_orientDef_180.png","happy",1,13,13,"magma","orientDef","scaleRev","180",NA,NA
"","","","","","html-slider-response",160,332446,"0.0-156.0","tmovgthtbm",35,NA,"<div style=""width:500px;"">
                            <p style=""font-size:50px; font-weight:bold;""
                            >happy</p>
                            <div style=""width:240px; margin: auto;"">
                                <img src=""images/map05_RdYlGn_scaleDef_orientMir_270.png"" style= ""width:200px""alt=""img"">
                            </div>
                        </div>",0.3675,"",0,"",NA,"","images/map05_RdYlGn_scaleDef_orientMir_270.png","happy",1,5,5,"RdYlGn","orientMir","scaleDef","270",NA,NA
"","","","","","html-slider-response",161,333864,"0.0-157.0","tmovgthtbm",35,NA,"<div style=""width:500px;"">
                            <p style=""font-size:50px; font-weight:bold;""
                            >happy</p>
                            <div style=""width:240px; margin: auto;"">
                                <img src=""images/map07_RdYlGn_scaleRev_orientDef_000.png"" style= ""width:200px""alt=""img"">
                            </div>
                        </div>",0.4175,"",0,"",NA,"","images/map07_RdYlGn_scaleRev_orientDef_000.png","happy",1,7,7,"RdYlGn","orientDef","scaleRev","000",NA,NA
"","","","","","html-slider-response",162,335382,"0.0-158.0","tmovgthtbm",35,NA,"<div style=""width:500px;"">
                            <p style=""font-size:50px; font-weight:bold;""
                            >happy</p>
                            <div style=""width:240px; margin: auto;"">
                                <img src=""images/map12_plasma_scaleDef_orientMir_090.png"" style= ""width:200px""alt=""img"">
                            </div>
                        </div>",0.32,"",0,"",NA,"","images/map12_plasma_scaleDef_orientMir_090.png","happy",1,12,12,"plasma","orientMir","scaleDef","090",NA,NA
"","","","","","html-slider-response",163,336937,"0.0-159.0","tmovgthtbm",35,NA,"<div style=""width:500px;"">
                            <p style=""font-size:50px; font-weight:bold;""
                            >happy</p>
                            <div style=""width:240px; margin: auto;"">
