"success","timeout","failed_images","failed_audio","failed_video","trial_type","trial_index","time_elapsed","internal_node_id","subject_id","condition_num","rt","stimulus","response","question_order","slider_start","practiceTrial","practiceTrialNum","correct","image_path","concept","repetition","map_id","map_num","scale_name","orientation_code","mapping_code","rotation_code","ishihara_plate","correct_response"
"true","false","[]","[]","[]","preload",0,627,"0.0-0.0","k17antmx24",59,NA,"",NA,"",NA,"",NA,"","","",NA,NA,NA,"","","","",NA,NA
"","","","","","html-button-response",1,1923,"0.0-1.0","k17antmx24",59,1295,"Welcome to our experiment!<p>At the bottom of this screen, you will see a button that says ""Begin Experiment"".<br>Please only click that button when you are ready to complete the 30 minute experiment in one sitting.</p><p> Once you click that button, it will not be possible to restart the experiment.",0.5,"",NA,"",NA,"","","",NA,NA,NA,"","","","",NA,NA
"true","","","","","fullscreen",2,3942,"0.0-2.0","k17antmx24",59,1016,"",NA,"",NA,"",NA,"","","",NA,NA,NA,"","","","",NA,NA
"","","","","","survey-multi-select",3,37725,"0.0-3.0","k17antmx24",59,33780,"",NA,"[0]",NA,"",NA,"","","",NA,NA,NA,"","","","",NA,NA
"","","","","","html-button-response",4,39688,"0.0-4.0","k17antmx24",59,1961,"Welcome! <p> This experiment involves two parts: demographic information, followed by the experimental task.<p> It will take about 30 minutes to complete both parts.",0.5,"",NA,"",NA,"","","",NA,NA,NA,"","","","",NA,NA
"","","","","","survey-text",5,49572,"0.0-5.0","k17antmx24",59,9871,"",NA,"",NA,"",NA,"","","",NA,NA,NA,"","","","",NA,NA
"","","","","","html-slider-response",6,107786,"0.0-6.0","k17antmx24",59,58213,"<div style='text-align:left; font-size:20px; line-height:25px; width: 1000px;'>
                                During this experiment you will be asked to rate how much you associate maps with                    different concepts.<br> Below, you can see some examples of the maps you will be asked to rate. Above the maps
                    is the list of concepts.<br>You will be asked                    to rate how much you associate each map with each concept on a scale from 'not at all' to 'very much' like the
                    one below. <br><br>
                    Now, please look at the list of concepts and maps. For each concept, think about the map you associate 'very
                    much' with the concept.<br>                     When you see that map during the experiment, please rate it near the 'very much' endpoint of the
                    scale.<br>Now, please think about which map you associate 'not at all'                     with each concept. When you see that map during the experiment, please rate it near the 'not at all' endpoint
                    of the scale.<br>
                    Please use the full range of the scale. That is, if a map is somewhat associated with the concept, you would
                    click partway between the middle point and right side of the scale.                    You will be asked to rate each map for a given concept before moving on to the next concept.<br>Press the
                    'Continue' button for instructions on how to use the slider.                    <br>
                </div>

                <div style=""width: 500px; margin: 0 auto;"">
                    <!-- Centered text paragraphs -->
                    <div style=""text-align: center; width: 500px;"">
                        <p style=""font-size:25px; line-height:15px;"">
                            sad&nbsp;&nbsp;&nbsp;&nbsp;
                            fearful&nbsp;&nbsp;&nbsp;&nbsp;
                            angry&nbsp;&nbsp;&nbsp;&nbsp;
                            happy&nbsp;&nbsp;&nbsp;&nbsp;
                            disgust
                        </p>
                        <!-- <p style=""font-size:20px; line-height:15px;"">fearful</p>
                        <p style=""font-size:20px;line-height:15px;"">angry</p>
                        <p style=""font-size:20px;line-height:15px;"">happy</p>
                        <p style=""font-size:20px;line-height:15px;"">disgust</p> -->
                    </div>
            

                    <!-- Grid section -->
                   <div style=""display: flex; justify-content: center; padding-top: 15px;"">
                    <div style=""display: grid; grid-template-columns: repeat(10, 55px); grid-gap: 5px; width: auto;"">
                        <img src=""images/map15_berlin_scaleDef_orientDef_090.png"" alt=""map"" style=""width: 100%;""><img src=""images/map13_coolwarm_scaleRev_orientMir_000.png"" alt=""map"" style=""width: 100%;""><img src=""images/map23_inferno_scaleDef_orientMir_270.png"" alt=""map"" style=""width: 100%;""><img src=""images/map07_BuGn_scaleDef_orientMir_090.png"" alt=""map"" style=""width: 100%;""><img src=""images/map23_turbo_scaleRev_orientDef_180.png"" alt=""map"" style=""width: 100%;""><img src=""images/map15_vanimo_scaleRev_orientMir_180.png"" alt=""map"" style=""width: 100%;""><img src=""images/map26_Greys_scaleRev_orientMir_180.png"" alt=""map"" style=""width: 100%;""><img src=""images/map27_Reds_scaleDef_orientMir_270.png"" alt=""map"" style=""width: 100%;""><img src=""images/map26_cividis_scaleDef_orientDef_270.png"" alt=""map"" style=""width: 100%;""><img src=""images/map15_managua_scaleDef_orientDef_270.png"" alt=""map"" style=""width: 100%;""><img src=""images/map02_YlOrRd_scaleDef_orientDef_270.png"" alt=""map"" style=""width: 100%;""><img src=""images/map07_PuBu_scaleRev_orientDef_000.png"" alt=""map"" style=""width: 100%;""><img src=""images/map10_PRGn_scaleDef_orientDef_270.png"" alt=""map"" style=""width: 100%;""><img src=""images/map05_RdPu_scaleDef_orientDef_090.png"" alt=""map"" style=""width: 100%;""><img src=""images/map27_Oranges_scaleRev_orientMir_180.png"" alt=""map"" style=""width: 100%;""><img src=""images/map10_BrBG_scaleDef_orientMir_090.png"" alt=""map"" style=""width: 100%;""><img src=""images/map05_GnBu_scaleDef_orientMir_090.png"" alt=""map"" style=""width: 100%;""><img src=""images/map05_PuRd_scaleRev_orientDef_000.png"" alt=""map"" style=""width: 100%;""><img src=""images/map23_viridis_scaleRev_orientMir_000.png"" alt=""map"" style=""width: 100%;""><img src=""images/map15_seismic_scaleRev_orientDef_000.png"" alt=""map"" style=""width: 100%;""><img src=""images/map10_YlGn_scaleRev_orientDef_000.png"" alt=""map"" style=""width: 100%;""><img src=""images/map27_Greens_scaleRev_orientMir_000.png"" alt=""map"" style=""width: 100%;""><img src=""images/map10_PiYG_scaleRev_orientDef_180.png"" alt=""map"" style=""width: 100%;""><img src=""images/map05_BuPu_scaleRev_orientMir_000.png"" alt=""map"" style=""width: 100%;""><img src=""images/map07_YlGnBu_scaleDef_orientDef_090.png"" alt=""map"" style=""width: 100%;""><img src=""images/map12_PuOr_scaleRev_orientDef_000.png"" alt=""map"" style=""width: 100%;""><img src=""images/map23_plasma_scaleRev_orientMir_180.png"" alt=""map"" style=""width: 100%;""><img src=""images/map07_PuBuGn_scaleDef_orientDef_270.png"" alt=""map"" style=""width: 100%;""><img src=""images/map13_Spectral_scaleDef_orientDef_090.png"" alt=""map"" style=""width: 100%;""><img src=""images/map26_magma_scaleDef_orientDef_090.png"" alt=""map"" style=""width: 100%;""><img src=""images/map12_RdGy_scaleDef_orientDef_090.png"" alt=""map"" style=""width: 100%;""><img src=""images/map12_RdYlBu_scaleDef_orientMir_090.png"" alt=""map"" style=""width: 100%;""><img src=""images/map12_RdBu_scaleDef_orientDef_270.png"" alt=""map"" style=""width: 100%;""><img src=""images/map27_Blues_scaleDef_orientDef_090.png"" alt=""map"" style=""width: 100%;""><img src=""images/map15_gist_earth_scaleDef_orientMir_270.png"" alt=""map"" style=""width: 100%;""><img src=""images/map27_Purples_scaleRev_orientDef_000.png"" alt=""map"" style=""width: 100%;""><img src=""images/map13_bwr_scaleRev_orientMir_180.png"" alt=""map"" style=""width: 100%;""><img src=""images/map12_RdYlGn_scaleDef_orientMir_270.png"" alt=""map"" style=""width: 100%;""><img src=""images/map02_YlOrBr_scaleRev_orientDef_180.png"" alt=""map"" style=""width: 100%;""><img src=""images/map02_OrRd_scaleDef_orientMir_090.png"" alt=""map"" style=""width: 100%;"">
                    </div>
                </div>

                    <!-- Clear floats -->
                    <div style=""clear: both;""></div>
                </div>
                            ",NA,"",0,"true",NA,"","","",NA,NA,NA,"","","","",NA,NA
"","","","","","html-button-response",7,115586,"0.0-7.0","k17antmx24",59,7798,"<div style=""width:800px;""><p style=""text-align:left"">To move the slider, click and drag your cursor to the location of the scale where you would like to make your rating and then let go. When you let go of the slider, your response will be recorded and the next trial will begin. <br>
                    We are interested in your initial impressions of each map for the given concept, so please go with your first intuition. <br>
                    Before you begin the experiment, there will be four training trials for you to practice using the scale. <br>
                     When you are ready to start the training trials, please click ""Continue"".</p><br></div>",0.5,"",NA,"",NA,"","","",NA,NA,NA,"","","","",NA,NA
"","","","","","html-slider-response",8,119229,"0.0-8.0-0.0","k17antmx24",59,NA,"<div style=""width:500px;"">
                                    <p style=""font-size:25px;"">Please move the slider all the way to the <br> right endpoint of the scale</p>

                                    </div>
                                </div>",1,"",0,"true",0,"true","","",NA,NA,NA,"","","","",NA,NA
"","","","","","html-button-response",9,120769,"0.0-8.0-1.0","k17antmx24",59,1038,"<p align='center'><b>Good job!</b> Click on 'Continue' to proceed.</p>",0.5,"",NA,"",NA,"","","",NA,NA,NA,"","","","",NA,NA
"","","","","","html-slider-response",10,123012,"0.0-9.0-0.0","k17antmx24",59,NA,"<div style=""width:500px;"">
                                    <p style=""font-size:25px;"">Please move the slider all the way to the <br> left endpoint of the scale</p>

                                    </div>
                                </div>",0,"",0,"true",1,"true","","",NA,NA,NA,"","","","",NA,NA
"","","","","","html-button-response",11,124403,"0.0-9.0-1.0","k17antmx24",59,890,"<p align='center'><b>Good job!</b> Click on 'Continue' to proceed.</p>",0.5,"",NA,"",NA,"","","",NA,NA,NA,"","","","",NA,NA
"","","","","","html-slider-response",12,129179,"0.0-10.0-0.0","k17antmx24",59,NA,"<div style=""width:500px;"">
                                    <p style=""font-size:25px;"">Please move the slider halfway between the center and right endpoint of the scale</p>

                                    </div>
                                </div>",0.755,"",0,"true",2,"true","","",NA,NA,NA,"","","","",NA,NA
"","","","","","html-button-response",13,130435,"0.0-10.0-1.0","k17antmx24",59,754,"<p align='center'><b>Good job!</b> Click on 'Continue' to proceed.</p>",0.5,"",NA,"",NA,"","","",NA,NA,NA,"","","","",NA,NA
"","","","","","html-slider-response",14,132311,"0.0-11.0-0.0","k17antmx24",59,NA,"<div style=""width:500px;"">
                                    <p style=""font-size:25px;"">Please move the slider halfway between the center and left endpoint of the scale</p>

                                    </div>
                                </div>",0.2175,"",0,"true",3,"false","","",NA,NA,NA,"","","","",NA,NA
"","","","","","html-button-response",15,135634,"0.0-11.0-1.0","k17antmx24",59,2820,"<p align='center'><b>Not quite!</b> The slider was not placed near the instructed located. Click on 'Continue' to try again. </p>",0.5,"",NA,"",NA,"","","",NA,NA,NA,"","","","",NA,NA
"","","","","","html-slider-response",16,139461,"0.0-11.1-0.1","k17antmx24",59,NA,"<div style=""width:500px;"">
                                    <p style=""font-size:25px;"">Please move the slider halfway between the center and left endpoint of the scale</p>

                                    </div>
                                </div>",0.2175,"",0,"true",3,"false","","",NA,NA,NA,"","","","",NA,NA
"","","","","","html-button-response",17,142068,"0.0-11.1-1.1","k17antmx24",59,2105,"<p align='center'><b>Not quite!</b> The slider was not placed near the instructed located. Click on 'Continue' to try again. </p>",0.5,"",NA,"",NA,"","","",NA,NA,NA,"","","","",NA,NA
"","","","","","html-slider-response",18,148811,"0.0-11.2-0.2","k17antmx24",59,NA,"<div style=""width:500px;"">
                                    <p style=""font-size:25px;"">Please move the slider halfway between the center and left endpoint of the scale</p>

                                    </div>
                                </div>",0.23,"",0,"true",3,"true","","",NA,NA,NA,"","","","",NA,NA
"","","","","","html-button-response",19,150334,"0.0-11.2-1.2","k17antmx24",59,1021,"<p align='center'><b>Good job!</b> Click on 'Continue' to proceed.</p>",0.5,"",NA,"",NA,"","","",NA,NA,NA,"","","","",NA,NA
"","","","","","html-button-response",20,152068,"0.0-12.0","k17antmx24",59,1733,"<p>Great job! You've completed the practice trials. Now you will begin the main task.</p>",0.5,"",NA,"",NA,"","","",NA,NA,NA,"","","","",NA,NA
"","","","","","html-button-response",21,155233,"0.0-13.0","k17antmx24",59,3164,"<p>In this block of trials, you will be asked to rate how much you associate each map with:</p > <p style = 'font-size:150%; font-weight: bold'>sad</p><br></br>",0.5,"",NA,"",NA,"","","",NA,NA,NA,"","","","",NA,NA
"","","","","","html-slider-response",22,157711,"0.0-14.0","k17antmx24",59,NA,"<div style=""width:500px;"">
                            <p style=""font-size:50px; font-weight:bold;""
                            >sad</p>
                            <div style=""width:240px; margin: auto;"">
                                <img src=""images/map02_PuRd_scaleDef_orientMir_270.png"" style= ""width:200px""alt=""img"">
                            </div>
                        </div>",0,"",0,"",NA,"","images/map02_PuRd_scaleDef_orientMir_270.png","sad",1,2,2,"PuRd","orientMir","scaleDef","270",NA,NA
"","","","","","html-slider-response",23,161212,"0.0-15.0","k17antmx24",59,NA,"<div style=""width:500px;"">
                            <p style=""font-size:50px; font-weight:bold;""
                            >sad</p>
                            <div style=""width:240px; margin: auto;"">
                                <img src=""images/map07_BuGn_scaleDef_orientMir_090.png"" style= ""width:200px""alt=""img"">
                            </div>
                        </div>",0.2175,"",0,"",NA,"","images/map07_BuGn_scaleDef_orientMir_090.png","sad",1,7,7,"BuGn","orientMir","scaleDef","090",NA,NA
"","","","","","html-slider-response",24,164044,"0.0-16.0","k17antmx24",59,NA,"<div style=""width:500px;"">
                            <p style=""font-size:50px; font-weight:bold;""
                            >sad</p>
                            <div style=""width:240px; margin: auto;"">
                                <img src=""images/map12_RdYlGn_scaleDef_orientMir_270.png"" style= ""width:200px""alt=""img"">
                            </div>
                        </div>",0.2375,"",0,"",NA,"","images/map12_RdYlGn_scaleDef_orientMir_270.png","sad",1,12,12,"RdYlGn","orientMir","scaleDef","270",NA,NA
"","","","","","html-slider-response",25,167528,"0.0-17.0","k17antmx24",59,NA,"<div style=""width:500px;"">
                            <p style=""font-size:50px; font-weight:bold;""
                            >sad</p>
                            <div style=""width:240px; margin: auto;"">
                                <img src=""images/map23_inferno_scaleDef_orientMir_270.png"" style= ""width:200px""alt=""img"">
                            </div>
                        </div>",0.22,"",0,"",NA,"","images/map23_inferno_scaleDef_orientMir_270.png","sad",1,23,23,"inferno","orientMir","scaleDef","270",NA,NA
"","","","","","html-slider-response",26,169794,"0.0-18.0","k17antmx24",59,NA,"<div style=""width:500px;"">
                            <p style=""font-size:50px; font-weight:bold;""
                            >sad</p>
                            <div style=""width:240px; margin: auto;"">
                                <img src=""images/map10_YlGn_scaleRev_orientDef_000.png"" style= ""width:200px""alt=""img"">
                            </div>
                        </div>",0.2975,"",0,"",NA,"","images/map10_YlGn_scaleRev_orientDef_000.png","sad",1,10,10,"YlGn","orientDef","scaleRev","000",NA,NA
"","","","","","html-slider-response",27,172943,"0.0-19.0","k17antmx24",59,NA,"<div style=""width:500px;"">
                            <p style=""font-size:50px; font-weight:bold;""
                            >sad</p>
                            <div style=""width:240px; margin: auto;"">
                                <img src=""images/map13_bwr_scaleRev_orientMir_180.png"" style= ""width:200px""alt=""img"">
                            </div>
                        </div>",0.1075,"",0,"",NA,"","images/map13_bwr_scaleRev_orientMir_180.png","sad",1,13,13,"bwr","orientMir","scaleRev","180",NA,NA
"","","","","","html-slider-response",28,175245,"0.0-20.0","k17antmx24",59,NA,"<div style=""width:500px;"">
                            <p style=""font-size:50px; font-weight:bold;""
                            >sad</p>
                            <div style=""width:240px; margin: auto;"">
                                <img src=""images/map27_Greens_scaleDef_orientDef_270.png"" style= ""width:200px""alt=""img"">
                            </div>
                        </div>",0.21,"",0,"",NA,"","images/map27_Greens_scaleDef_orientDef_270.png","sad",1,27,27,"Greens","orientDef","scaleDef","270",NA,NA
"","","","","","html-slider-response",29,178360,"0.0-21.0","k17antmx24",59,NA,"<div style=""width:500px;"">
                            <p style=""font-size:50px; font-weight:bold;""
                            >sad</p>
                            <div style=""width:240px; margin: auto;"">
                                <img src=""images/map26_cividis_scaleDef_orientDef_270.png"" style= ""width:200px""alt=""img"">
                            </div>
                        </div>",0.58,"",0,"",NA,"","images/map26_cividis_scaleDef_orientDef_270.png","sad",1,26,26,"cividis","orientDef","scaleDef","270",NA,NA
"","","","","","html-slider-response",30,180244,"0.0-22.0","k17antmx24",59,NA,"<div style=""width:500px;"">
                            <p style=""font-size:50px; font-weight:bold;""
                            >sad</p>
                            <div style=""width:240px; margin: auto;"">
                                <img src=""images/map12_RdYlBu_scaleRev_orientMir_180.png"" style= ""width:200px""alt=""img"">
                            </div>
                        </div>",0.105,"",0,"",NA,"","images/map12_RdYlBu_scaleRev_orientMir_180.png","sad",1,12,12,"RdYlBu","orientMir","scaleRev","180",NA,NA
"","","","","","html-slider-response",31,182259,"0.0-23.0","k17antmx24",59,NA,"<div style=""width:500px;"">
                            <p style=""font-size:50px; font-weight:bold;""
                            >sad</p>
                            <div style=""width:240px; margin: auto;"">
                                <img src=""images/map10_PuOr_scaleDef_orientMir_270.png"" style= ""width:200px""alt=""img"">
                            </div>
                        </div>",0.16,"",0,"",NA,"","images/map10_PuOr_scaleDef_orientMir_270.png","sad",1,10,10,"PuOr","orientMir","scaleDef","270",NA,NA
"","","","","","html-slider-response",32,184960,"0.0-24.0","k17antmx24",59,NA,"<div style=""width:500px;"">
                            <p style=""font-size:50px; font-weight:bold;""
                            >sad</p>
                            <div style=""width:240px; margin: auto;"">
                                <img src=""images/map05_BuPu_scaleDef_orientDef_270.png"" style= ""width:200px""alt=""img"">
                            </div>
                        </div>",0.7475,"",0,"",NA,"","images/map05_BuPu_scaleDef_orientDef_270.png","sad",1,5,5,"BuPu","orientDef","scaleDef","270",NA,NA
"","","","","","html-slider-response",33,187510,"0.0-25.0","k17antmx24",59,NA,"<div style=""width:500px;"">
                            <p style=""font-size:50px; font-weight:bold;""
                            >sad</p>
                            <div style=""width:240px; margin: auto;"">
                                <img src=""images/map12_RdGy_scaleRev_orientDef_180.png"" style= ""width:200px""alt=""img"">
                            </div>
                        </div>",0.3975,"",0,"",NA,"","images/map12_RdGy_scaleRev_orientDef_180.png","sad",1,12,12,"RdGy","orientDef","scaleRev","180",NA,NA
"","","","","","html-slider-response",34,189859,"0.0-26.0","k17antmx24",59,NA,"<div style=""width:500px;"">
                            <p style=""font-size:50px; font-weight:bold;""
                            >sad</p>
                            <div style=""width:240px; margin: auto;"">
                                <img src=""images/map12_RdBu_scaleDef_orientDef_270.png"" style= ""width:200px""alt=""img"">
                            </div>
                        </div>",0.265,"",0,"",NA,"","images/map12_RdBu_scaleDef_orientDef_270.png","sad",1,12,12,"RdBu","orientDef","scaleDef","270",NA,NA
"","","","","","html-slider-response",35,192676,"0.0-27.0","k17antmx24",59,NA,"<div style=""width:500px;"">
                            <p style=""font-size:50px; font-weight:bold;""
                            >sad</p>
                            <div style=""width:240px; margin: auto;"">
                                <img src=""images/map10_BrBG_scaleRev_orientMir_180.png"" style= ""width:200px""alt=""img"">
                            </div>
                        </div>",0.275,"",0,"",NA,"","images/map10_BrBG_scaleRev_orientMir_180.png","sad",1,10,10,"BrBG","orientMir","scaleRev","180",NA,NA
"","","","","","html-slider-response",36,197610,"0.0-28.0","k17antmx24",59,NA,"<div style=""width:500px;"">
                            <p style=""font-size:50px; font-weight:bold;""
                            >sad</p>
                            <div style=""width:240px; margin: auto;"">
                                <img src=""images/map13_bwr_scaleDef_orientMir_090.png"" style= ""width:200px""alt=""img"">
                            </div>
                        </div>",0.2075,"",0,"",NA,"","images/map13_bwr_scaleDef_orientMir_090.png","sad",1,13,13,"bwr","orientMir","scaleDef","090",NA,NA
"","","","","","html-slider-response",37,199676,"0.0-29.0","k17antmx24",59,NA,"<div style=""width:500px;"">
                            <p style=""font-size:50px; font-weight:bold;""
                            >sad</p>
                            <div style=""width:240px; margin: auto;"">
                                <img src=""images/map15_seismic_scaleRev_orientDef_000.png"" style= ""width:200px""alt=""img"">
                            </div>
                        </div>",0,"",0,"",NA,"","images/map15_seismic_scaleRev_orientDef_000.png","sad",1,15,15,"seismic","orientDef","scaleRev","000",NA,NA
"","","","","","html-slider-response",38,202643,"0.0-30.0","k17antmx24",59,NA,"<div style=""width:500px;"">
                            <p style=""font-size:50px; font-weight:bold;""
                            >sad</p>
                            <div style=""width:240px; margin: auto;"">
                                <img src=""images/map27_Purples_scaleRev_orientDef_000.png"" style= ""width:200px""alt=""img"">
                            </div>
                        </div>",0.6225,"",0,"",NA,"","images/map27_Purples_scaleRev_orientDef_000.png","sad",1,27,27,"Purples","orientDef","scaleRev","000",NA,NA
"","","","","","html-slider-response",39,205395,"0.0-31.0","k17antmx24",59,NA,"<div style=""width:500px;"">
                            <p style=""font-size:50px; font-weight:bold;""
                            >sad</p>
                            <div style=""width:240px; margin: auto;"">
                                <img src=""images/map23_turbo_scaleRev_orientDef_180.png"" style= ""width:200px""alt=""img"">
                            </div>
                        </div>",0,"",0,"",NA,"","images/map23_turbo_scaleRev_orientDef_180.png","sad",1,23,23,"turbo","orientDef","scaleRev","180",NA,NA
"","","","","","html-slider-response",40,207910,"0.0-32.0","k17antmx24",59,NA,"<div style=""width:500px;"">
                            <p style=""font-size:50px; font-weight:bold;""
                            >sad</p>
                            <div style=""width:240px; margin: auto;"">
                                <img src=""images/map27_Oranges_scaleRev_orientMir_180.png"" style= ""width:200px""alt=""img"">
                            </div>
                        </div>",0.225,"",0,"",NA,"","images/map27_Oranges_scaleRev_orientMir_180.png","sad",1,27,27,"Oranges","orientMir","scaleRev","180",NA,NA
"","","","","","html-slider-response",41,210042,"0.0-33.0","k17antmx24",59,NA,"<div style=""width:500px;"">
                            <p style=""font-size:50px; font-weight:bold;""
                            >sad</p>
                            <div style=""width:240px; margin: auto;"">
                                <img src=""images/map07_BuGn_scaleRev_orientMir_180.png"" style= ""width:200px""alt=""img"">
                            </div>
                        </div>",0.225,"",0,"",NA,"","images/map07_BuGn_scaleRev_orientMir_180.png","sad",1,7,7,"BuGn","orientMir","scaleRev","180",NA,NA
"","","","","","html-slider-response",42,211959,"0.0-34.0","k17antmx24",59,NA,"<div style=""width:500px;"">
                            <p style=""font-size:50px; font-weight:bold;""
                            >sad</p>
                            <div style=""width:240px; margin: auto;"">
                                <img src=""images/map05_PuRd_scaleRev_orientDef_000.png"" style= ""width:200px""alt=""img"">
                            </div>
                        </div>",0,"",0,"",NA,"","images/map05_PuRd_scaleRev_orientDef_000.png","sad",1,5,5,"PuRd","orientDef","scaleRev","000",NA,NA
"","","","","","html-slider-response",43,214860,"0.0-35.0","k17antmx24",59,NA,"<div style=""width:500px;"">
                            <p style=""font-size:50px; font-weight:bold;""
                            >sad</p>
                            <div style=""width:240px; margin: auto;"">
                                <img src=""images/map23_plasma_scaleDef_orientMir_090.png"" style= ""width:200px""alt=""img"">
                            </div>
                        </div>",0,"",0,"",NA,"","images/map23_plasma_scaleDef_orientMir_090.png","sad",1,23,23,"plasma","orientMir","scaleDef","090",NA,NA
"","","","","","html-slider-response",44,218442,"0.0-36.0","k17antmx24",59,NA,"<div style=""width:500px;"">
                            <p style=""font-size:50px; font-weight:bold;""
                            >sad</p>
                            <div style=""width:240px; margin: auto;"">
                                <img src=""images/map07_YlGn_scaleDef_orientMir_270.png"" style= ""width:200px""alt=""img"">
                            </div>
                        </div>",0.1425,"",0,"",NA,"","images/map07_YlGn_scaleDef_orientMir_270.png","sad",1,7,7,"YlGn","orientMir","scaleDef","270",NA,NA
"","","","","","html-slider-response",45,220525,"0.0-37.0","k17antmx24",59,NA,"<div style=""width:500px;"">
                            <p style=""font-size:50px; font-weight:bold;""
                            >sad</p>
                            <div style=""width:240px; margin: auto;"">
                                <img src=""images/map10_PRGn_scaleDef_orientDef_270.png"" style= ""width:200px""alt=""img"">
                            </div>
                        </div>",0,"",0,"",NA,"","images/map10_PRGn_scaleDef_orientDef_270.png","sad",1,10,10,"PRGn","orientDef","scaleDef","270",NA,NA
"","","","","","html-slider-response",46,222410,"0.0-38.0","k17antmx24",59,NA,"<div style=""width:500px;"">
                            <p style=""font-size:50px; font-weight:bold;""
                            >sad</p>
                            <div style=""width:240px; margin: auto;"">
                                <img src=""images/map05_RdPu_scaleRev_orientDef_180.png"" style= ""width:200px""alt=""img"">
                            </div>
                        </div>",0,"",0,"",NA,"","images/map05_RdPu_scaleRev_orientDef_180.png","sad",1,5,5,"RdPu","orientDef","scaleRev","180",NA,NA
"","","","","","html-slider-response",47,225209,"0.0-39.0","k17antmx24",59,NA,"<div style=""width:500px;"">
                            <p style=""font-size:50px; font-weight:bold;""
                            >sad</p>
                            <div style=""width:240px; margin: auto;"">
                                <img src=""images/map13_Spectral_scaleRev_orientDef_180.png"" style= ""width:200px""alt=""img"">
                            </div>
                        </div>",0.0675,"",0,"",NA,"","images/map13_Spectral_scaleRev_orientDef_180.png","sad",1,13,13,"Spectral","orientDef","scaleRev","180",NA,NA
"","","","","","html-slider-response",48,227492,"0.0-40.0","k17antmx24",59,NA,"<div style=""width:500px;"">
                            <p style=""font-size:50px; font-weight:bold;""
                            >sad</p>
                            <div style=""width:240px; margin: auto;"">
                                <img src=""images/map02_Reds_scaleRev_orientDef_000.png"" style= ""width:200px""alt=""img"">
                            </div>
                        </div>",0.27,"",0,"",NA,"","images/map02_Reds_scaleRev_orientDef_000.png","sad",1,2,2,"Reds","orientDef","scaleRev","000",NA,NA
"","","","","","html-slider-response",49,232775,"0.0-41.0","k17antmx24",59,NA,"<div style=""width:500px;"">
                            <p style=""font-size:50px; font-weight:bold;""
                            >sad</p>
                            <div style=""width:240px; margin: auto;"">
                                <img src=""images/map05_PuBu_scaleDef_orientMir_270.png"" style= ""width:200px""alt=""img"">
                            </div>
                        </div>",0.62,"",0,"",NA,"","images/map05_PuBu_scaleDef_orientMir_270.png","sad",1,5,5,"PuBu","orientMir","scaleDef","270",NA,NA
"","","","","","html-slider-response",50,234658,"0.0-42.0","k17antmx24",59,NA,"<div style=""width:500px;"">
                            <p style=""font-size:50px; font-weight:bold;""
                            >sad</p>
                            <div style=""width:240px; margin: auto;"">
                                <img src=""images/map07_PuBu_scaleRev_orientDef_000.png"" style= ""width:200px""alt=""img"">
                            </div>
                        </div>",0.625,"",0,"",NA,"","images/map07_PuBu_scaleRev_orientDef_000.png","sad",1,7,7,"PuBu","orientDef","scaleRev","000",NA,NA
"","","","","","html-slider-response",51,236592,"0.0-43.0","k17antmx24",59,NA,"<div style=""width:500px;"">
                            <p style=""font-size:50px; font-weight:bold;""
                            >sad</p>
                            <div style=""width:240px; margin: auto;"">
                                <img src=""images/map15_managua_scaleDef_orientDef_270.png"" style= ""width:200px""alt=""img"">
                            </div>
                        </div>",0.5825,"",0,"",NA,"","images/map15_managua_scaleDef_orientDef_270.png","sad",1,15,15,"managua","orientDef","scaleDef","270",NA,NA
"","","","","","html-slider-response",52,239008,"0.0-44.0","k17antmx24",59,NA,"<div style=""width:500px;"">
                            <p style=""font-size:50px; font-weight:bold;""
                            >sad</p>
                            <div style=""width:240px; margin: auto;"">
                                <img src=""images/map12_RdBu_scaleRev_orientMir_000.png"" style= ""width:200px""alt=""img"">
                            </div>
                        </div>",0.0725,"",0,"",NA,"","images/map12_RdBu_scaleRev_orientMir_000.png","sad",1,12,12,"RdBu","orientMir","scaleRev","000",NA,NA
"","","","","","html-slider-response",53,244408,"0.0-45.0","k17antmx24",59,NA,"<div style=""width:500px;"">
                            <p style=""font-size:50px; font-weight:bold;""
                            >sad</p>
                            <div style=""width:240px; margin: auto;"">
                                <img src=""images/map07_PuBuGn_scaleRev_orientMir_000.png"" style= ""width:200px""alt=""img"">
                            </div>
                        </div>",0.225,"",0,"",NA,"","images/map07_PuBuGn_scaleRev_orientMir_000.png","sad",1,7,7,"PuBuGn","orientMir","scaleRev","000",NA,NA
"","","","","","html-slider-response",54,246457,"0.0-46.0","k17antmx24",59,NA,"<div style=""width:500px;"">
                            <p style=""font-size:50px; font-weight:bold;""
                            >sad</p>
                            <div style=""width:240px; margin: auto;"">
                                <img src=""images/map13_seismic_scaleDef_orientMir_270.png"" style= ""width:200px""alt=""img"">
                            </div>
                        </div>",0.005,"",0,"",NA,"","images/map13_seismic_scaleDef_orientMir_270.png","sad",1,13,13,"seismic","orientMir","scaleDef","270",NA,NA
"","","","","","html-slider-response",55,248859,"0.0-47.0","k17antmx24",59,NA,"<div style=""width:500px;"">
                            <p style=""font-size:50px; font-weight:bold;""
                            >sad</p>
                            <div style=""width:240px; margin: auto;"">
                                <img src=""images/map23_viridis_scaleDef_orientDef_270.png"" style= ""width:200px""alt=""img"">
                            </div>
                        </div>",0.065,"",0,"",NA,"","images/map23_viridis_scaleDef_orientDef_270.png","sad",1,23,23,"viridis","orientDef","scaleDef","270",NA,NA
"","","","","","html-slider-response",56,251123,"0.0-48.0","k17antmx24",59,NA,"<div style=""width:500px;"">
                            <p style=""font-size:50px; font-weight:bold;""
                            >sad</p>
                            <div style=""width:240px; margin: auto;"">
                                <img src=""images/map26_cividis_scaleRev_orientMir_000.png"" style= ""width:200px""alt=""img"">
                            </div>
                        </div>",0.595,"",0,"",NA,"","images/map26_cividis_scaleRev_orientMir_000.png","sad",1,26,26,"cividis","orientMir","scaleRev","000",NA,NA
"","","","","","html-slider-response",57,255708,"0.0-49.0","k17antmx24",59,NA,"<div style=""width:500px;"">
                            <p style=""font-size:50px; font-weight:bold;""
                            >sad</p>
                            <div style=""width:240px; margin: auto;"">
                                <img src=""images/map07_PuBuGn_scaleDef_orientDef_270.png"" style= ""width:200px""alt=""img"">
                            </div>
                        </div>",0.35,"",0,"",NA,"","images/map07_PuBuGn_scaleDef_orientDef_270.png","sad",1,7,7,"PuBuGn","orientDef","scaleDef","270",NA,NA
"","","","","","html-slider-response",58,257692,"0.0-50.0","k17antmx24",59,NA,"<div style=""width:500px;"">
                            <p style=""font-size:50px; font-weight:bold;""
                            >sad</p>
                            <div style=""width:240px; margin: auto;"">
                                <img src=""images/map12_RdYlBu_scaleDef_orientMir_090.png"" style= ""width:200px""alt=""img"">
                            </div>
                        </div>",0.065,"",0,"",NA,"","images/map12_RdYlBu_scaleDef_orientMir_090.png","sad",1,12,12,"RdYlBu","orientMir","scaleDef","090",NA,NA
"","","","","","html-slider-response",59,260592,"0.0-51.0","k17antmx24",59,NA,"<div style=""width:500px;"">
                            <p style=""font-size:50px; font-weight:bold;""
                            >sad</p>
                            <div style=""width:240px; margin: auto;"">
                                <img src=""images/map05_RdPu_scaleDef_orientDef_090.png"" style= ""width:200px""alt=""img"">
                            </div>
                        </div>",0,"",0,"",NA,"","images/map05_RdPu_scaleDef_orientDef_090.png","sad",1,5,5,"RdPu","orientDef","scaleDef","090",NA,NA
"","","","","","html-slider-response",60,262307,"0.0-52.0","k17antmx24",59,NA,"<div style=""width:500px;"">
                            <p style=""font-size:50px; font-weight:bold;""
                            >sad</p>
                            <div style=""width:240px; margin: auto;"">
                                <img src=""images/map27_Oranges_scaleDef_orientMir_090.png"" style= ""width:200px""alt=""img"">
                            </div>
                        </div>",0.3525,"",0,"",NA,"","images/map27_Oranges_scaleDef_orientMir_090.png","sad",1,27,27,"Oranges","orientMir","scaleDef","090",NA,NA
"","","","","","html-slider-response",61,264108,"0.0-53.0","k17antmx24",59,NA,"<div style=""width:500px;"">
                            <p style=""font-size:50px; font-weight:bold;""
                            >sad</p>
                            <div style=""width:240px; margin: auto;"">
                                <img src=""images/map26_inferno_scaleRev_orientDef_000.png"" style= ""width:200px""alt=""img"">
                            </div>
                        </div>",0.345,"",0,"",NA,"","images/map26_inferno_scaleRev_orientDef_000.png","sad",1,26,26,"inferno","orientDef","scaleRev","000",NA,NA
"","","","","","html-button-response",62,266830,"0.0-54.0","k17antmx24",59,2219,"<p>You are doing great!<br></br> You are halway done with the current block. When you are ready to continue, click the 'Continue' button.</p>",0.5,"",NA,"",NA,"","","",NA,NA,NA,"","","","",NA,NA
"","","","","","html-slider-response",63,268441,"0.0-55.0","k17antmx24",59,NA,"<div style=""width:500px;"">
                            <p style=""font-size:50px; font-weight:bold;""
                            >sad</p>
                            <div style=""width:240px; margin: auto;"">
                                <img src=""images/map23_plasma_scaleRev_orientMir_180.png"" style= ""width:200px""alt=""img"">
                            </div>
                        </div>",0.2025,"",0,"",NA,"","images/map23_plasma_scaleRev_orientMir_180.png","sad",1,23,23,"plasma","orientMir","scaleRev","180",NA,NA
"","","","","","html-slider-response",64,270990,"0.0-56.0","k17antmx24",59,NA,"<div style=""width:500px;"">
                            <p style=""font-size:50px; font-weight:bold;""
                            >sad</p>
                            <div style=""width:240px; margin: auto;"">
                                <img src=""images/map15_berlin_scaleRev_orientDef_180.png"" style= ""width:200px""alt=""img"">
                            </div>
                        </div>",0.605,"",0,"",NA,"","images/map15_berlin_scaleRev_orientDef_180.png","sad",1,15,15,"berlin","orientDef","scaleRev","180",NA,NA
"","","","","","html-slider-response",65,272840,"0.0-57.0","k17antmx24",59,NA,"<div style=""width:500px;"">
                            <p style=""font-size:50px; font-weight:bold;""
                            >sad</p>
                            <div style=""width:240px; margin: auto;"">
                                <img src=""images/map13_coolwarm_scaleRev_orientMir_000.png"" style= ""width:200px""alt=""img"">
                            </div>
                        </div>",0.25,"",0,"",NA,"","images/map13_coolwarm_scaleRev_orientMir_000.png","sad",1,13,13,"coolwarm","orientMir","scaleRev","000",NA,NA
"","","","","","html-slider-response",66,275292,"0.0-58.0","k17antmx24",59,NA,"<div style=""width:500px;"">
                            <p style=""font-size:50px; font-weight:bold;""
                            >sad</p>
                            <div style=""width:240px; margin: auto;"">
                                <img src=""images/map05_GnBu_scaleRev_orientMir_180.png"" style= ""width:200px""alt=""img"">
                            </div>
                        </div>",0.385,"",0,"",NA,"","images/map05_GnBu_scaleRev_orientMir_180.png","sad",1,5,5,"GnBu","orientMir","scaleRev","180",NA,NA
"","","","","","html-slider-response",67,276874,"0.0-59.0","k17antmx24",59,NA,"<div style=""width:500px;"">
                            <p style=""font-size:50px; font-weight:bold;""
                            >sad</p>
                            <div style=""width:240px; margin: auto;"">
                                <img src=""images/map10_PRGn_scaleRev_orientMir_000.png"" style= ""width:200px""alt=""img"">
                            </div>
                        </div>",0.1225,"",0,"",NA,"","images/map10_PRGn_scaleRev_orientMir_000.png","sad",1,10,10,"PRGn","orientMir","scaleRev","000",NA,NA
"","","","","","html-slider-response",68,278873,"0.0-60.0","k17antmx24",59,NA,"<div style=""width:500px;"">
                            <p style=""font-size:50px; font-weight:bold;""
                            >sad</p>
                            <div style=""width:240px; margin: auto;"">
                                <img src=""images/map05_GnBu_scaleDef_orientMir_090.png"" style= ""width:200px""alt=""img"">
                            </div>
                        </div>",0.59,"",0,"",NA,"","images/map05_GnBu_scaleDef_orientMir_090.png","sad",1,5,5,"GnBu","orientMir","scaleDef","090",NA,NA
"","","","","","html-slider-response",69,280407,"0.0-61.0","k17antmx24",59,NA,"<div style=""width:500px;"">
                            <p style=""font-size:50px; font-weight:bold;""
                            >sad</p>
                            <div style=""width:240px; margin: auto;"">
                                <img src=""images/map02_YlOrRd_scaleRev_orientMir_000.png"" style= ""width:200px""alt=""img"">
                            </div>
                        </div>",0.24,"",0,"",NA,"","images/map02_YlOrRd_scaleRev_orientMir_000.png","sad",1,2,2,"YlOrRd","orientMir","scaleRev","000",NA,NA
"","","","","","html-slider-response",70,282456,"0.0-62.0","k17antmx24",59,NA,"<div style=""width:500px;"">
                            <p style=""font-size:50px; font-weight:bold;""
                            >sad</p>
                            <div style=""width:240px; margin: auto;"">
                                <img src=""images/map23_gist_earth_scaleRev_orientDef_000.png"" style= ""width:200px""alt=""img"">
                            </div>
                        </div>",0.555,"",0,"",NA,"","images/map23_gist_earth_scaleRev_orientDef_000.png","sad",1,23,23,"gist","scaleRev","earth","orientDef",NA,NA
"","","","","","html-slider-response",71,284425,"0.0-63.0","k17antmx24",59,NA,"<div style=""width:500px;"">
                            <p style=""font-size:50px; font-weight:bold;""
                            >sad</p>
                            <div style=""width:240px; margin: auto;"">
                                <img src=""images/map10_BrBG_scaleDef_orientMir_090.png"" style= ""width:200px""alt=""img"">
                            </div>
                        </div>",0.175,"",0,"",NA,"","images/map10_BrBG_scaleDef_orientMir_090.png","sad",1,10,10,"BrBG","orientMir","scaleDef","090",NA,NA
"","","","","","html-slider-response",72,286124,"0.0-64.0","k17antmx24",59,NA,"<div style=""width:500px;"">
                            <p style=""font-size:50px; font-weight:bold;""
                            >sad</p>
                            <div style=""width:240px; margin: auto;"">
                                <img src=""images/map15_gist_earth_scaleDef_orientMir_270.png"" style= ""width:200px""alt=""img"">
                            </div>
                        </div>",0.145,"",0,"",NA,"","images/map15_gist_earth_scaleDef_orientMir_270.png","sad",1,15,15,"gist","scaleDef","earth","orientMir",NA,NA
"","","","","","html-slider-response",73,288223,"0.0-65.0","k17antmx24",59,NA,"<div style=""width:500px;"">
                            <p style=""font-size:50px; font-weight:bold;""
                            >sad</p>
                            <div style=""width:240px; margin: auto;"">
                                <img src=""images/map27_Blues_scaleRev_orientDef_180.png"" style= ""width:200px""alt=""img"">
                            </div>
                        </div>",0.75,"",0,"",NA,"","images/map27_Blues_scaleRev_orientDef_180.png","sad",1,27,27,"Blues","orientDef","scaleRev","180",NA,NA
"","","","","","html-slider-response",74,290838,"0.0-66.0","k17antmx24",59,NA,"<div style=""width:500px;"">
                            <p style=""font-size:50px; font-weight:bold;""
                            >sad</p>
                            <div style=""width:240px; margin: auto;"">
                                <img src=""images/map26_Greys_scaleRev_orientMir_180.png"" style= ""width:200px""alt=""img"">
                            </div>
                        </div>",0.945,"",0,"",NA,"","images/map26_Greys_scaleRev_orientMir_180.png","sad",1,26,26,"Greys","orientMir","scaleRev","180",NA,NA
"","","","","","html-slider-response",75,293508,"0.0-67.0","k17antmx24",59,NA,"<div style=""width:500px;"">
                            <p style=""font-size:50px; font-weight:bold;""
                            >sad</p>
                            <div style=""width:240px; margin: auto;"">
                                <img src=""images/map02_YlOrBr_scaleRev_orientDef_180.png"" style= ""width:200px""alt=""img"">
                            </div>
                        </div>",0.285,"",0,"",NA,"","images/map02_YlOrBr_scaleRev_orientDef_180.png","sad",1,2,2,"YlOrBr","orientDef","scaleRev","180",NA,NA
"","","","","","html-slider-response",76,297358,"0.0-68.0","k17antmx24",59,NA,"<div style=""width:500px;"">
                            <p style=""font-size:50px; font-weight:bold;""
                            >sad</p>
                            <div style=""width:240px; margin: auto;"">
                                <img src=""images/map10_PiYG_scaleDef_orientDef_090.png"" style= ""width:200px""alt=""img"">
                            </div>
                        </div>",0.2225,"",0,"",NA,"","images/map10_PiYG_scaleDef_orientDef_090.png","sad",1,10,10,"PiYG","orientDef","scaleDef","090",NA,NA
"","","","","","html-slider-response",77,299973,"0.0-69.0","k17antmx24",59,NA,"<div style=""width:500px;"">
                            <p style=""font-size:50px; font-weight:bold;""
                            >sad</p>
                            <div style=""width:240px; margin: auto;"">
                                <img src=""images/map27_Blues_scaleDef_orientDef_090.png"" style= ""width:200px""alt=""img"">
                            </div>
                        </div>",0.6525,"",0,"",NA,"","images/map27_Blues_scaleDef_orientDef_090.png","sad",1,27,27,"Blues","orientDef","scaleDef","090",NA,NA
"","","","","","html-slider-response",78,301589,"0.0-70.0","k17antmx24",59,NA,"<div style=""width:500px;"">
                            <p style=""font-size:50px; font-weight:bold;""
                            >sad</p>
                            <div style=""width:240px; margin: auto;"">
                                <img src=""images/map02_YlOrBr_scaleDef_orientDef_090.png"" style= ""width:200px""alt=""img"">
                            </div>
                        </div>",0.0775,"",0,"",NA,"","images/map02_YlOrBr_scaleDef_orientDef_090.png","sad",1,2,2,"YlOrBr","orientDef","scaleDef","090",NA,NA
"","","","","","html-slider-response",79,303623,"0.0-71.0","k17antmx24",59,NA,"<div style=""width:500px;"">
                            <p style=""font-size:50px; font-weight:bold;""
                            >sad</p>
                            <div style=""width:240px; margin: auto;"">
                                <img src=""images/map27_Reds_scaleDef_orientMir_270.png"" style= ""width:200px""alt=""img"">
                            </div>
                        </div>",0.3275,"",0,"",NA,"","images/map27_Reds_scaleDef_orientMir_270.png","sad",1,27,27,"Reds","orientMir","scaleDef","270",NA,NA
"","","","","","html-slider-response",80,305823,"0.0-72.0","k17antmx24",59,NA,"<div style=""width:500px;"">
                            <p style=""font-size:50px; font-weight:bold;""
                            >sad</p>
                            <div style=""width:240px; margin: auto;"">
                                <img src=""images/map05_BuPu_scaleRev_orientMir_000.png"" style= ""width:200px""alt=""img"">
                            </div>
                        </div>",0.685,"",0,"",NA,"","images/map05_BuPu_scaleRev_orientMir_000.png","sad",1,5,5,"BuPu","orientMir","scaleRev","000",NA,NA
"","","","","","html-slider-response",81,307856,"0.0-73.0","k17antmx24",59,NA,"<div style=""width:500px;"">
                            <p style=""font-size:50px; font-weight:bold;""
                            >sad</p>
                            <div style=""width:240px; margin: auto;"">
                                <img src=""images/map02_OrRd_scaleRev_orientMir_180.png"" style= ""width:200px""alt=""img"">
                            </div>
                        </div>",0.28,"",0,"",NA,"","images/map02_OrRd_scaleRev_orientMir_180.png","sad",1,2,2,"OrRd","orientMir","scaleRev","180",NA,NA
"","","","","","html-slider-response",82,309907,"0.0-74.0","k17antmx24",59,NA,"<div style=""width:500px;"">
                            <p style=""font-size:50px; font-weight:bold;""
                            >sad</p>
                            <div style=""width:240px; margin: auto;"">
                                <img src=""images/map12_PuOr_scaleRev_orientDef_000.png"" style= ""width:200px""alt=""img"">
                            </div>
                        </div>",0.205,"",0,"",NA,"","images/map12_PuOr_scaleRev_orientDef_000.png","sad",1,12,12,"PuOr","orientDef","scaleRev","000",NA,NA
"","","","","","html-slider-response",83,311789,"0.0-75.0","k17antmx24",59,NA,"<div style=""width:500px;"">
                            <p style=""font-size:50px; font-weight:bold;""
                            >sad</p>
                            <div style=""width:240px; margin: auto;"">
                                <img src=""images/map23_turbo_scaleDef_orientDef_090.png"" style= ""width:200px""alt=""img"">
                            </div>
                        </div>",0,"",0,"",NA,"","images/map23_turbo_scaleDef_orientDef_090.png","sad",1,23,23,"turbo","orientDef","scaleDef","090",NA,NA
"","","","","","html-slider-response",84,313922,"0.0-76.0","k17antmx24",59,NA,"<div style=""width:500px;"">
                            <p style=""font-size:50px; font-weight:bold;""
                            >sad</p>
                            <div style=""width:240px; margin: auto;"">
                                <img src=""images/map07_YlGnBu_scaleRev_orientDef_180.png"" style= ""width:200px""alt=""img"">
                            </div>
                        </div>",0.575,"",0,"",NA,"","images/map07_YlGnBu_scaleRev_orientDef_180.png","sad",1,7,7,"YlGnBu","orientDef","scaleRev","180",NA,NA
"","","","","","html-slider-response",85,315990,"0.0-77.0","k17antmx24",59,NA,"<div style=""width:500px;"">
                            <p style=""font-size:50px; font-weight:bold;""
                            >sad</p>
                            <div style=""width:240px; margin: auto;"">
                                <img src=""images/map15_berlin_scaleDef_orientDef_090.png"" style= ""width:200px""alt=""img"">
                            </div>
                        </div>",0.5175,"",0,"",NA,"","images/map15_berlin_scaleDef_orientDef_090.png","sad",1,15,15,"berlin","orientDef","scaleDef","090",NA,NA
"","","","","","html-slider-response",86,318806,"0.0-78.0","k17antmx24",59,NA,"<div style=""width:500px;"">
                            <p style=""font-size:50px; font-weight:bold;""
                            >sad</p>
                            <div style=""width:240px; margin: auto;"">
                                <img src=""images/map23_viridis_scaleRev_orientMir_000.png"" style= ""width:200px""alt=""img"">
                            </div>
                        </div>",0.155,"",0,"",NA,"","images/map23_viridis_scaleRev_orientMir_000.png","sad",1,23,23,"viridis","orientMir","scaleRev","000",NA,NA
"","","","","","html-slider-response",87,320390,"0.0-79.0","k17antmx24",59,NA,"<div style=""width:500px;"">
                            <p style=""font-size:50px; font-weight:bold;""
                            >sad</p>
                            <div style=""width:240px; margin: auto;"">
                                <img src=""images/map26_magma_scaleRev_orientDef_180.png"" style= ""width:200px""alt=""img"">
                            </div>
                        </div>",0.0025,"",0,"",NA,"","images/map26_magma_scaleRev_orientDef_180.png","sad",1,26,26,"magma","orientDef","scaleRev","180",NA,NA
"","","","","","html-slider-response",88,322455,"0.0-80.0","k17antmx24",59,NA,"<div style=""width:500px;"">
                            <p style=""font-size:50px; font-weight:bold;""
                            >sad</p>
                            <div style=""width:240px; margin: auto;"">
                                <img src=""images/map12_RdGy_scaleDef_orientDef_090.png"" style= ""width:200px""alt=""img"">
                            </div>
                        </div>",0.145,"",0,"",NA,"","images/map12_RdGy_scaleDef_orientDef_090.png","sad",1,12,12,"RdGy","orientDef","scaleDef","090",NA,NA
"","","","","","html-slider-response",89,324973,"0.0-81.0","k17antmx24",59,NA,"<div style=""width:500px;"">
                            <p style=""font-size:50px; font-weight:bold;""
                            >sad</p>
                            <div style=""width:240px; margin: auto;"">
                                <img src=""images/map15_vanimo_scaleDef_orientMir_090.png"" style= ""width:200px""alt=""img"">
                            </div>
                        </div>",0.0675,"",0,"",NA,"","images/map15_vanimo_scaleDef_orientMir_090.png","sad",1,15,15,"vanimo","orientMir","scaleDef","090",NA,NA
"","","","","","html-slider-response",90,326989,"0.0-82.0","k17antmx24",59,NA,"<div style=""width:500px;"">
                            <p style=""font-size:50px; font-weight:bold;""
                            >sad</p>
                            <div style=""width:240px; margin: auto;"">
                                <img src=""images/map27_Greens_scaleRev_orientMir_000.png"" style= ""width:200px""alt=""img"">
                            </div>
                        </div>",0,"",0,"",NA,"","images/map27_Greens_scaleRev_orientMir_000.png","sad",1,27,27,"Greens","orientMir","scaleRev","000",NA,NA
"","","","","","html-slider-response",91,328938,"0.0-83.0","k17antmx24",59,NA,"<div style=""width:500px;"">
                            <p style=""font-size:50px; font-weight:bold;""
                            >sad</p>
                            <div style=""width:240px; margin: auto;"">
                                <img src=""images/map26_magma_scaleDef_orientDef_090.png"" style= ""width:200px""alt=""img"">
                            </div>
                        </div>",0.115,"",0,"",NA,"","images/map26_magma_scaleDef_orientDef_090.png","sad",1,26,26,"magma","orientDef","scaleDef","090",NA,NA
"","","","","","html-slider-response",92,332021,"0.0-84.0","k17antmx24",59,NA,"<div style=""width:500px;"">
                            <p style=""font-size:50px; font-weight:bold;""
                            >sad</p>
                            <div style=""width:240px; margin: auto;"">
                                <img src=""images/map07_YlGnBu_scaleDef_orientDef_090.png"" style= ""width:200px""alt=""img"">
                            </div>
                        </div>",0.5925,"",0,"",NA,"","images/map07_YlGnBu_scaleDef_orientDef_090.png","sad",1,7,7,"YlGnBu","orientDef","scaleDef","090",NA,NA
"","","","","","html-slider-response",93,333688,"0.0-85.0","k17antmx24",59,NA,"<div style=""width:500px;"">
                            <p style=""font-size:50px; font-weight:bold;""
                            >sad</p>
                            <div style=""width:240px; margin: auto;"">
                                <img src=""images/map15_managua_scaleRev_orientMir_000.png"" style= ""width:200px""alt=""img"">
                            </div>
                        </div>",0.555,"",0,"",NA,"","images/map15_managua_scaleRev_orientMir_000.png","sad",1,15,15,"managua","orientMir","scaleRev","000",NA,NA
"","","","","","html-slider-response",94,335288,"0.0-86.0","k17antmx24",59,NA,"<div style=""width:500px;"">
                            <p style=""font-size:50px; font-weight:bold;""
                            >sad</p>
                            <div style=""width:240px; margin: auto;"">
                                <img src=""images/map13_RdYlGn_scaleRev_orientDef_000.png"" style= ""width:200px""alt=""img"">
                            </div>
                        </div>",0.12,"",0,"",NA,"","images/map13_RdYlGn_scaleRev_orientDef_000.png","sad",1,13,13,"RdYlGn","orientDef","scaleRev","000",NA,NA
"","","","","","html-slider-response",95,337121,"0.0-87.0","k17antmx24",59,NA,"<div style=""width:500px;"">
                            <p style=""font-size:50px; font-weight:bold;""
                            >sad</p>
                            <div style=""width:240px; margin: auto;"">
                                <img src=""images/map13_coolwarm_scaleDef_orientDef_270.png"" style= ""width:200px""alt=""img"">
                            </div>
                        </div>",0.2275,"",0,"",NA,"","images/map13_coolwarm_scaleDef_orientDef_270.png","sad",1,13,13,"coolwarm","orientDef","scaleDef","270",NA,NA
"","","","","","html-slider-response",96,338988,"0.0-88.0","k17antmx24",59,NA,"<div style=""width:500px;"">
                            <p style=""font-size:50px; font-weight:bold;""
                            >sad</p>
                            <div style=""width:240px; margin: auto;"">
                                <img src=""images/map13_Spectral_scaleDef_orientDef_090.png"" style= ""width:200px""alt=""img"">
                            </div>
                        </div>",0.205,"",0,"",NA,"","images/map13_Spectral_scaleDef_orientDef_090.png","sad",1,13,13,"Spectral","orientDef","scaleDef","090",NA,NA
"","","","","","html-slider-response",97,341238,"0.0-89.0","k17antmx24",59,NA,"<div style=""width:500px;"">
                            <p style=""font-size:50px; font-weight:bold;""
                            >sad</p>
                            <div style=""width:240px; margin: auto;"">
                                <img src=""images/map26_Purples_scaleDef_orientMir_270.png"" style= ""width:200px""alt=""img"">
                            </div>
                        </div>",0.5825,"",0,"",NA,"","images/map26_Purples_scaleDef_orientMir_270.png","sad",1,26,26,"Purples","orientMir","scaleDef","270",NA,NA
"","","","","","html-slider-response",98,343238,"0.0-90.0","k17antmx24",59,NA,"<div style=""width:500px;"">
                            <p style=""font-size:50px; font-weight:bold;""
                            >sad</p>
                            <div style=""width:240px; margin: auto;"">
                                <img src=""images/map26_Greys_scaleDef_orientMir_090.png"" style= ""width:200px""alt=""img"">
                            </div>
                        </div>",0.9625,"",0,"",NA,"","images/map26_Greys_scaleDef_orientMir_090.png","sad",1,26,26,"Greys","orientMir","scaleDef","090",NA,NA
"","","","","","html-slider-response",99,345540,"0.0-91.0","k17antmx24",59,NA,"<div style=""width:500px;"">
                            <p style=""font-size:50px; font-weight:bold;""
                            >sad</p>
                            <div style=""width:240px; margin: auto;"">
                                <img src=""images/map10_PiYG_scaleRev_orientDef_180.png"" style= ""width:200px""alt=""img"">
                            </div>
                        </div>",0.175,"",0,"",NA,"","images/map10_PiYG_scaleRev_orientDef_180.png","sad",1,10,10,"PiYG","orientDef","scaleRev","180",NA,NA
"","","","","","html-slider-response",100,347756,"0.0-92.0","k17antmx24",59,NA,"<div style=""width:500px;"">
                            <p style=""font-size:50px; font-weight:bold;""
                            >sad</p>
                            <div style=""width:240px; margin: auto;"">
                                <img src=""images/map02_OrRd_scaleDef_orientMir_090.png"" style= ""width:200px""alt=""img"">
                            </div>
                        </div>",0.135,"",0,"",NA,"","images/map02_OrRd_scaleDef_orientMir_090.png","sad",1,2,2,"OrRd","orientMir","scaleDef","090",NA,NA
"","","","","","html-slider-response",101,350506,"0.0-93.0","k17antmx24",59,NA,"<div style=""width:500px;"">
                            <p style=""font-size:50px; font-weight:bold;""
                            >sad</p>
                            <div style=""width:240px; margin: auto;"">
                                <img src=""images/map15_vanimo_scaleRev_orientMir_180.png"" style= ""width:200px""alt=""img"">
                            </div>
                        </div>",0.2425,"",0,"",NA,"","images/map15_vanimo_scaleRev_orientMir_180.png","sad",1,15,15,"vanimo","orientMir","scaleRev","180",NA,NA
"","","","","","html-slider-response",102,352121,"0.0-94.0","k17antmx24",59,NA,"<div style=""width:500px;"">
                            <p style=""font-size:50px; font-weight:bold;""
                            >sad</p>
                            <div style=""width:240px; margin: auto;"">
                                <img src=""images/map02_YlOrRd_scaleDef_orientDef_270.png"" style= ""width:200px""alt=""img"">
                            </div>
                        </div>",0.2375,"",0,"",NA,"","images/map02_YlOrRd_scaleDef_orientDef_270.png","sad",1,2,2,"YlOrRd","orientDef","scaleDef","270",NA,NA
"","","","","","html-button-response",103,354261,"0.0-95.0","k17antmx24",59,1639,"<p>Great Job! You've finished block 1.<br></br> You have 4 block(s) left to go.<br></br></p>",0.5,"",NA,"",NA,"","","",NA,NA,NA,"","","","",NA,NA
"","","","","","html-button-response",104,355594,"0.0-96.0","k17antmx24",59,1331,"<p>In this block of trials, you will be asked to rate how much you associate each map with:</p > <p style = 'font-size:150%; font-weight: bold'>fearful</p><br></br>",0.5,"",NA,"",NA,"","","",NA,NA,NA,"","","","",NA,NA
"","","","","","html-slider-response",105,358204,"0.0-97.0","k17antmx24",59,NA,"<div style=""width:500px;"">
                            <p style=""font-size:50px; font-weight:bold;""
                            >fearful</p>
                            <div style=""width:240px; margin: auto;"">
                                <img src=""images/map07_YlGnBu_scaleDef_orientDef_090.png"" style= ""width:200px""alt=""img"">
                            </div>
                        </div>",0.585,"",0,"",NA,"","images/map07_YlGnBu_scaleDef_orientDef_090.png","fearful",1,7,7,"YlGnBu","orientDef","scaleDef","090",NA,NA
"","","","","","html-slider-response",106,360089,"0.0-98.0","k17antmx24",59,NA,"<div style=""width:500px;"">
                            <p style=""font-size:50px; font-weight:bold;""
                            >fearful</p>
                            <div style=""width:240px; margin: auto;"">
                                <img src=""images/map05_RdPu_scaleDef_orientDef_090.png"" style= ""width:200px""alt=""img"">
                            </div>
                        </div>",0.6025,"",0,"",NA,"","images/map05_RdPu_scaleDef_orientDef_090.png","fearful",1,5,5,"RdPu","orientDef","scaleDef","090",NA,NA
"","","","","","html-slider-response",107,361854,"0.0-99.0","k17antmx24",59,NA,"<div style=""width:500px;"">
                            <p style=""font-size:50px; font-weight:bold;""
                            >fearful</p>
                            <div style=""width:240px; margin: auto;"">
                                <img src=""images/map07_PuBuGn_scaleDef_orientDef_270.png"" style= ""width:200px""alt=""img"">
                            </div>
                        </div>",0.65,"",0,"",NA,"","images/map07_PuBuGn_scaleDef_orientDef_270.png","fearful",1,7,7,"PuBuGn","orientDef","scaleDef","270",NA,NA
"","","","","","html-slider-response",108,363887,"0.0-100.0","k17antmx24",59,NA,"<div style=""width:500px;"">
                            <p style=""font-size:50px; font-weight:bold;""
                            >fearful</p>
                            <div style=""width:240px; margin: auto;"">
                                <img src=""images/map13_coolwarm_scaleDef_orientDef_270.png"" style= ""width:200px""alt=""img"">
                            </div>
                        </div>",0.5975,"",0,"",NA,"","images/map13_coolwarm_scaleDef_orientDef_270.png","fearful",1,13,13,"coolwarm","orientDef","scaleDef","270",NA,NA
"","","","","","html-slider-response",109,366004,"0.0-101.0","k17antmx24",59,NA,"<div style=""width:500px;"">
                            <p style=""font-size:50px; font-weight:bold;""
                            >fearful</p>
                            <div style=""width:240px; margin: auto;"">
                                <img src=""images/map05_PuRd_scaleRev_orientDef_000.png"" style= ""width:200px""alt=""img"">
                            </div>
                        </div>",0.6325,"",0,"",NA,"","images/map05_PuRd_scaleRev_orientDef_000.png","fearful",1,5,5,"PuRd","orientDef","scaleRev","000",NA,NA
"","","","","","html-slider-response",110,367987,"0.0-102.0","k17antmx24",59,NA,"<div style=""width:500px;"">
                            <p style=""font-size:50px; font-weight:bold;""
                            >fearful</p>
                            <div style=""width:240px; margin: auto;"">
                                <img src=""images/map23_plasma_scaleDef_orientMir_090.png"" style= ""width:200px""alt=""img"">
                            </div>
                        </div>",0.6175,"",0,"",NA,"","images/map23_plasma_scaleDef_orientMir_090.png","fearful",1,23,23,"plasma","orientMir","scaleDef","090",NA,NA
"","","","","","html-slider-response",111,369822,"0.0-103.0","k17antmx24",59,NA,"<div style=""width:500px;"">
                            <p style=""font-size:50px; font-weight:bold;""
                            >fearful</p>
                            <div style=""width:240px; margin: auto;"">
                                <img src=""images/map05_BuPu_scaleRev_orientMir_000.png"" style= ""width:200px""alt=""img"">
                            </div>
                        </div>",0.6275,"",0,"",NA,"","images/map05_BuPu_scaleRev_orientMir_000.png","fearful",1,5,5,"BuPu","orientMir","scaleRev","000",NA,NA
"","","","","","html-slider-response",112,371805,"0.0-104.0","k17antmx24",59,NA,"<div style=""width:500px;"">
                            <p style=""font-size:50px; font-weight:bold;""
                            >fearful</p>
                            <div style=""width:240px; margin: auto;"">
                                <img src=""images/map27_Greens_scaleDef_orientDef_270.png"" style= ""width:200px""alt=""img"">
                            </div>
                        </div>",0.305,"",0,"",NA,"","images/map27_Greens_scaleDef_orientDef_270.png","fearful",1,27,27,"Greens","orientDef","scaleDef","270",NA,NA
"","","","","","html-slider-response",113,373887,"0.0-105.0","k17antmx24",59,NA,"<div style=""width:500px;"">
                            <p style=""font-size:50px; font-weight:bold;""
                            >fearful</p>
                            <div style=""width:240px; margin: auto;"">
                                <img src=""images/map07_PuBu_scaleRev_orientDef_000.png"" style= ""width:200px""alt=""img"">
                            </div>
                        </div>",0.57,"",0,"",NA,"","images/map07_PuBu_scaleRev_orientDef_000.png","fearful",1,7,7,"PuBu","orientDef","scaleRev","000",NA,NA
"","","","","","html-slider-response",114,384139,"0.0-106.0","k17antmx24",59,NA,"<div style=""width:500px;"">
                            <p style=""font-size:50px; font-weight:bold;""
                            >fearful</p>
                            <div style=""width:240px; margin: auto;"">
                                <img src=""images/map13_Spectral_scaleDef_orientDef_090.png"" style= ""width:200px""alt=""img"">
                            </div>
                        </div>",0.365,"",0,"",NA,"","images/map13_Spectral_scaleDef_orientDef_090.png","fearful",1,13,13,"Spectral","orientDef","scaleDef","090",NA,NA
"","","","","","html-slider-response",115,385905,"0.0-107.0","k17antmx24",59,NA,"<div style=""width:500px;"">
                            <p style=""font-size:50px; font-weight:bold;""
                            >fearful</p>
                            <div style=""width:240px; margin: auto;"">
                                <img src=""images/map10_YlGn_scaleRev_orientDef_000.png"" style= ""width:200px""alt=""img"">
                            </div>
                        </div>",0.3025,"",0,"",NA,"","images/map10_YlGn_scaleRev_orientDef_000.png","fearful",1,10,10,"YlGn","orientDef","scaleRev","000",NA,NA
"","","","","","html-slider-response",116,387903,"0.0-108.0","k17antmx24",59,NA,"<div style=""width:500px;"">
                            <p style=""font-size:50px; font-weight:bold;""
                            >fearful</p>
                            <div style=""width:240px; margin: auto;"">
                                <img src=""images/map05_GnBu_scaleDef_orientMir_090.png"" style= ""width:200px""alt=""img"">
                            </div>
                        </div>",0.565,"",0,"",NA,"","images/map05_GnBu_scaleDef_orientMir_090.png","fearful",1,5,5,"GnBu","orientMir","scaleDef","090",NA,NA
"","","","","","html-slider-response",117,390305,"0.0-109.0","k17antmx24",59,NA,"<div style=""width:500px;"">
                            <p style=""font-size:50px; font-weight:bold;""
                            >fearful</p>
                            <div style=""width:240px; margin: auto;"">
                                <img src=""images/map12_RdBu_scaleRev_orientMir_000.png"" style= ""width:200px""alt=""img"">
                            </div>
                        </div>",0.305,"",0,"",NA,"","images/map12_RdBu_scaleRev_orientMir_000.png","fearful",1,12,12,"RdBu","orientMir","scaleRev","000",NA,NA
"","","","","","html-slider-response",118,392887,"0.0-110.0","k17antmx24",59,NA,"<div style=""width:500px;"">
                            <p style=""font-size:50px; font-weight:bold;""
                            >fearful</p>
                            <div style=""width:240px; margin: auto;"">
                                <img src=""images/map15_berlin_scaleRev_orientDef_180.png"" style= ""width:200px""alt=""img"">
                            </div>
                        </div>",1,"",0,"",NA,"","images/map15_berlin_scaleRev_orientDef_180.png","fearful",1,15,15,"berlin","orientDef","scaleRev","180",NA,NA
"","","","","","html-slider-response",119,394821,"0.0-111.0","k17antmx24",59,NA,"<div style=""width:500px;"">
                            <p style=""font-size:50px; font-weight:bold;""
                            >fearful</p>
                            <div style=""width:240px; margin: auto;"">
                                <img src=""images/map23_viridis_scaleDef_orientDef_270.png"" style= ""width:200px""alt=""img"">
                            </div>
                        </div>",0.6425,"",0,"",NA,"","images/map23_viridis_scaleDef_orientDef_270.png","fearful",1,23,23,"viridis","orientDef","scaleDef","270",NA,NA
"","","","","","html-slider-response",120,396519,"0.0-112.0","k17antmx24",59,NA,"<div style=""width:500px;"">
                            <p style=""font-size:50px; font-weight:bold;""
                            >fearful</p>
                            <div style=""width:240px; margin: auto;"">
                                <img src=""images/map27_Blues_scaleRev_orientDef_180.png"" style= ""width:200px""alt=""img"">
                            </div>
                        </div>",0.5625,"",0,"",NA,"","images/map27_Blues_scaleRev_orientDef_180.png","fearful",1,27,27,"Blues","orientDef","scaleRev","180",NA,NA
"","","","","","html-slider-response",121,398220,"0.0-113.0","k17antmx24",59,NA,"<div style=""width:500px;"">
                            <p style=""font-size:50px; font-weight:bold;""
                            >fearful</p>
                            <div style=""width:240px; margin: auto;"">
                                <img src=""images/map13_bwr_scaleDef_orientMir_090.png"" style= ""width:200px""alt=""img"">
                            </div>
                        </div>",0.2075,"",0,"",NA,"","images/map13_bwr_scaleDef_orientMir_090.png","fearful",1,13,13,"bwr","orientMir","scaleDef","090",NA,NA
"","","","","","html-slider-response",122,406720,"0.0-114.0","k17antmx24",59,NA,"<div style=""width:500px;"">
                            <p style=""font-size:50px; font-weight:bold;""
                            >fearful</p>
                            <div style=""width:240px; margin: auto;"">
                                <img src=""images/map15_berlin_scaleDef_orientDef_090.png"" style= ""width:200px""alt=""img"">
                            </div>
                        </div>",0.5875,"",0,"",NA,"","images/map15_berlin_scaleDef_orientDef_090.png","fearful",1,15,15,"berlin","orientDef","scaleDef","090",NA,NA
"","","","","","html-slider-response",123,408936,"0.0-115.0","k17antmx24",59,NA,"<div style=""width:500px;"">
                            <p style=""font-size:50px; font-weight:bold;""
                            >fearful</p>
                            <div style=""width:240px; margin: auto;"">
                                <img src=""images/map10_PiYG_scaleRev_orientDef_180.png"" style= ""width:200px""alt=""img"">
                            </div>
                        </div>",0.2725,"",0,"",NA,"","images/map10_PiYG_scaleRev_orientDef_180.png","fearful",1,10,10,"PiYG","orientDef","scaleRev","180",NA,NA
"","","","","","html-slider-response",124,421652,"0.0-116.0","k17antmx24",59,NA,"<div style=""width:500px;"">
                            <p style=""font-size:50px; font-weight:bold;""
                            >fearful</p>
                            <div style=""width:240px; margin: auto;"">
                                <img src=""images/map13_Spectral_scaleRev_orientDef_180.png"" style= ""width:200px""alt=""img"">
                            </div>
                        </div>",0.315,"",0,"",NA,"","images/map13_Spectral_scaleRev_orientDef_180.png","fearful",1,13,13,"Spectral","orientDef","scaleRev","180",NA,NA
"","","","","","html-slider-response",125,424768,"0.0-117.0","k17antmx24",59,NA,"<div style=""width:500px;"">
                            <p style=""font-size:50px; font-weight:bold;""
                            >fearful</p>
                            <div style=""width:240px; margin: auto;"">
                                <img src=""images/map02_PuRd_scaleDef_orientMir_270.png"" style= ""width:200px""alt=""img"">
                            </div>
                        </div>",0.925,"",0,"",NA,"","images/map02_PuRd_scaleDef_orientMir_270.png","fearful",1,2,2,"PuRd","orientMir","scaleDef","270",NA,NA
"","","","","","html-slider-response",126,427185,"0.0-118.0","k17antmx24",59,NA,"<div style=""width:500px;"">
                            <p style=""font-size:50px; font-weight:bold;""
                            >fearful</p>
                            <div style=""width:240px; margin: auto;"">
                                <img src=""images/map26_magma_scaleRev_orientDef_180.png"" style= ""width:200px""alt=""img"">
                            </div>
                        </div>",0.6925,"",0,"",NA,"","images/map26_magma_scaleRev_orientDef_180.png","fearful",1,26,26,"magma","orientDef","scaleRev","180",NA,NA
"","","","","","html-slider-response",127,429335,"0.0-119.0","k17antmx24",59,NA,"<div style=""width:500px;"">
                            <p style=""font-size:50px; font-weight:bold;""
                            >fearful</p>
                            <div style=""width:240px; margin: auto;"">
                                <img src=""images/map26_Greys_scaleRev_orientMir_180.png"" style= ""width:200px""alt=""img"">
                            </div>
                        </div>",0.345,"",0,"",NA,"","images/map26_Greys_scaleRev_orientMir_180.png","fearful",1,26,26,"Greys","orientMir","scaleRev","180",NA,NA
"","","","","","html-slider-response",128,431302,"0.0-120.0","k17antmx24",59,NA,"<div style=""width:500px;"">
                            <p style=""font-size:50px; font-weight:bold;""
                            >fearful</p>
                            <div style=""width:240px; margin: auto;"">
                                <img src=""images/map23_plasma_scaleRev_orientMir_180.png"" style= ""width:200px""alt=""img"">
                            </div>
                        </div>",0.58,"",0,"",NA,"","images/map23_plasma_scaleRev_orientMir_180.png","fearful",1,23,23,"plasma","orientMir","scaleRev","180",NA,NA
"","","","","","html-slider-response",129,432886,"0.0-121.0","k17antmx24",59,NA,"<div style=""width:500px;"">
                            <p style=""font-size:50px; font-weight:bold;""
                            >fearful</p>
                            <div style=""width:240px; margin: auto;"">
                                <img src=""images/map23_turbo_scaleRev_orientDef_180.png"" style= ""width:200px""alt=""img"">
                            </div>
                        </div>",0.3275,"",0,"",NA,"","images/map23_turbo_scaleRev_orientDef_180.png","fearful",1,23,23,"turbo","orientDef","scaleRev","180",NA,NA
"","","","","","html-slider-response",130,434652,"0.0-122.0","k17antmx24",59,NA,"<div style=""width:500px;"">
                            <p style=""font-size:50px; font-weight:bold;""
                            >fearful</p>
                            <div style=""width:240px; margin: auto;"">
                                <img src=""images/map05_RdPu_scaleRev_orientDef_180.png"" style= ""width:200px""alt=""img"">
                            </div>
                        </div>",0.595,"",0,"",NA,"","images/map05_RdPu_scaleRev_orientDef_180.png","fearful",1,5,5,"RdPu","orientDef","scaleRev","180",NA,NA
"","","","","","html-slider-response",131,436469,"0.0-123.0","k17antmx24",59,NA,"<div style=""width:500px;"">
                            <p style=""font-size:50px; font-weight:bold;""
                            >fearful</p>
                            <div style=""width:240px; margin: auto;"">
                                <img src=""images/map13_bwr_scaleRev_orientMir_180.png"" style= ""width:200px""alt=""img"">
                            </div>
                        </div>",0.2125,"",0,"",NA,"","images/map13_bwr_scaleRev_orientMir_180.png","fearful",1,13,13,"bwr","orientMir","scaleRev","180",NA,NA
"","","","","","html-slider-response",132,438668,"0.0-124.0","k17antmx24",59,NA,"<div style=""width:500px;"">
                            <p style=""font-size:50px; font-weight:bold;""
                            >fearful</p>
                            <div style=""width:240px; margin: auto;"">
                                <img src=""images/map10_PRGn_scaleDef_orientDef_270.png"" style= ""width:200px""alt=""img"">
                            </div>
                        </div>",0.2575,"",0,"",NA,"","images/map10_PRGn_scaleDef_orientDef_270.png","fearful",1,10,10,"PRGn","orientDef","scaleDef","270",NA,NA
"","","","","","html-slider-response",133,440517,"0.0-125.0","k17antmx24",59,NA,"<div style=""width:500px;"">
                            <p style=""font-size:50px; font-weight:bold;""
                            >fearful</p>
                            <div style=""width:240px; margin: auto;"">
                                <img src=""images/map10_BrBG_scaleDef_orientMir_090.png"" style= ""width:200px""alt=""img"">
                            </div>
                        </div>",0.34,"",0,"",NA,"","images/map10_BrBG_scaleDef_orientMir_090.png","fearful",1,10,10,"BrBG","orientMir","scaleDef","090",NA,NA
"","","","","","html-slider-response",134,442720,"0.0-126.0","k17antmx24",59,NA,"<div style=""width:500px;"">
                            <p style=""font-size:50px; font-weight:bold;""
                            >fearful</p>
                            <div style=""width:240px; margin: auto;"">
                                <img src=""images/map10_BrBG_scaleRev_orientMir_180.png"" style= ""width:200px""alt=""img"">
                            </div>
                        </div>",0.3275,"",0,"",NA,"","images/map10_BrBG_scaleRev_orientMir_180.png","fearful",1,10,10,"BrBG","orientMir","scaleRev","180",NA,NA
"","","","","","html-slider-response",135,445753,"0.0-127.0","k17antmx24",59,NA,"<div style=""width:500px;"">
                            <p style=""font-size:50px; font-weight:bold;""
                            >fearful</p>
                            <div style=""width:240px; margin: auto;"">
                                <img src=""images/map12_RdYlBu_scaleDef_orientMir_090.png"" style= ""width:200px""alt=""img"">
                            </div>
                        </div>",0.3425,"",0,"",NA,"","images/map12_RdYlBu_scaleDef_orientMir_090.png","fearful",1,12,12,"RdYlBu","orientMir","scaleDef","090",NA,NA
"","","","","","html-slider-response",136,460567,"0.0-128.0","k17antmx24",59,NA,"<div style=""width:500px;"">
                            <p style=""font-size:50px; font-weight:bold;""
                            >fearful</p>
                            <div style=""width:240px; margin: auto;"">
                                <img src=""images/map15_gist_earth_scaleDef_orientMir_270.png"" style= ""width:200px""alt=""img"">
                            </div>
                        </div>",0.3375,"",0,"",NA,"","images/map15_gist_earth_scaleDef_orientMir_270.png","fearful",1,15,15,"gist","scaleDef","earth","orientMir",NA,NA
"","","","","","html-slider-response",137,462519,"0.0-129.0","k17antmx24",59,NA,"<div style=""width:500px;"">
                            <p style=""font-size:50px; font-weight:bold;""
                            >fearful</p>
                            <div style=""width:240px; margin: auto;"">
                                <img src=""images/map15_vanimo_scaleDef_orientMir_090.png"" style= ""width:200px""alt=""img"">
                            </div>
                        </div>",0.675,"",0,"",NA,"","images/map15_vanimo_scaleDef_orientMir_090.png","fearful",1,15,15,"vanimo","orientMir","scaleDef","090",NA,NA
"","","","","","html-slider-response",138,464134,"0.0-130.0","k17antmx24",59,NA,"<div style=""width:500px;"">
                            <p style=""font-size:50px; font-weight:bold;""
                            >fearful</p>
                            <div style=""width:240px; margin: auto;"">
                                <img src=""images/map26_Greys_scaleDef_orientMir_090.png"" style= ""width:200px""alt=""img"">
                            </div>
                        </div>",0.665,"",0,"",NA,"","images/map26_Greys_scaleDef_orientMir_090.png","fearful",1,26,26,"Greys","orientMir","scaleDef","090",NA,NA
"","","","","","html-slider-response",139,465900,"0.0-131.0","k17antmx24",59,NA,"<div style=""width:500px;"">
                            <p style=""font-size:50px; font-weight:bold;""
                            >fearful</p>
                            <div style=""width:240px; margin: auto;"">
                                <img src=""images/map07_BuGn_scaleDef_orientMir_090.png"" style= ""width:200px""alt=""img"">
                            </div>
                        </div>",0.395,"",0,"",NA,"","images/map07_BuGn_scaleDef_orientMir_090.png","fearful",1,7,7,"BuGn","orientMir","scaleDef","090",NA,NA
"","","","","","html-slider-response",140,467750,"0.0-132.0","k17antmx24",59,NA,"<div style=""width:500px;"">
                            <p style=""font-size:50px; font-weight:bold;""
                            >fearful</p>
                            <div style=""width:240px; margin: auto;"">
                                <img src=""images/map26_cividis_scaleRev_orientMir_000.png"" style= ""width:200px""alt=""img"">
                            </div>
                        </div>",0.9175,"",0,"",NA,"","images/map26_cividis_scaleRev_orientMir_000.png","fearful",1,26,26,"cividis","orientMir","scaleRev","000",NA,NA
"","","","","","html-slider-response",141,469400,"0.0-133.0","k17antmx24",59,NA,"<div style=""width:500px;"">
                            <p style=""font-size:50px; font-weight:bold;""
                            >fearful</p>
                            <div style=""width:240px; margin: auto;"">
                                <img src=""images/map15_seismic_scaleRev_orientDef_000.png"" style= ""width:200px""alt=""img"">
                            </div>
                        </div>",0.32,"",0,"",NA,"","images/map15_seismic_scaleRev_orientDef_000.png","fearful",1,15,15,"seismic","orientDef","scaleRev","000",NA,NA
"","","","","","html-slider-response",142,479050,"0.0-134.0","k17antmx24",59,NA,"<div style=""width:500px;"">
                            <p style=""font-size:50px; font-weight:bold;""
                            >fearful</p>
                            <div style=""width:240px; margin: auto;"">
                                <img src=""images/map12_RdGy_scaleDef_orientDef_090.png"" style= ""width:200px""alt=""img"">
                            </div>
                        </div>",0.6725,"",0,"",NA,"","images/map12_RdGy_scaleDef_orientDef_090.png","fearful",1,12,12,"RdGy","orientDef","scaleDef","090",NA,NA
"","","","","","html-slider-response",143,480435,"0.0-135.0","k17antmx24",59,NA,"<div style=""width:500px;"">
                            <p style=""font-size:50px; font-weight:bold;""
                            >fearful</p>
                            <div style=""width:240px; margin: auto;"">
                                <img src=""images/map12_RdYlGn_scaleDef_orientMir_270.png"" style= ""width:200px""alt=""img"">
                            </div>
                        </div>",0.355,"",0,"",NA,"","images/map12_RdYlGn_scaleDef_orientMir_270.png","fearful",1,12,12,"RdYlGn","orientMir","scaleDef","270",NA,NA
"","","","","","html-slider-response",144,481883,"0.0-136.0","k17antmx24",59,NA,"<div style=""width:500px;"">
                            <p style=""font-size:50px; font-weight:bold;""
                            >fearful</p>
                            <div style=""width:240px; margin: auto;"">
                                <img src=""images/map07_YlGn_scaleDef_orientMir_270.png"" style= ""width:200px""alt=""img"">
                            </div>
                        </div>",0.275,"",0,"",NA,"","images/map07_YlGn_scaleDef_orientMir_270.png","fearful",1,7,7,"YlGn","orientMir","scaleDef","270",NA,NA
"","","","","","html-button-response",145,484307,"0.0-137.0","k17antmx24",59,1922,"<p>You are doing great!<br></br> You are halway done with the current block. When you are ready to continue, click the 'Continue' button.</p>",0.5,"",NA,"",NA,"","","",NA,NA,NA,"","","","",NA,NA
"","","","","","html-slider-response",146,486183,"0.0-138.0","k17antmx24",59,NA,"<div style=""width:500px;"">
                            <p style=""font-size:50px; font-weight:bold;""
                            >fearful</p>
                            <div style=""width:240px; margin: auto;"">
                                <img src=""images/map07_BuGn_scaleRev_orientMir_180.png"" style= ""width:200px""alt=""img"">
                            </div>
                        </div>",0.315,"",0,"",NA,"","images/map07_BuGn_scaleRev_orientMir_180.png","fearful",1,7,7,"BuGn","orientMir","scaleRev","180",NA,NA
"","","","","","html-slider-response",147,487933,"0.0-139.0","k17antmx24",59,NA,"<div style=""width:500px;"">
                            <p style=""font-size:50px; font-weight:bold;""
                            >fearful</p>
                            <div style=""width:240px; margin: auto;"">
                                <img src=""images/map15_vanimo_scaleRev_orientMir_180.png"" style= ""width:200px""alt=""img"">
                            </div>
                        </div>",0.6225,"",0,"",NA,"","images/map15_vanimo_scaleRev_orientMir_180.png","fearful",1,15,15,"vanimo","orientMir","scaleRev","180",NA,NA
"","","","","","html-slider-response",148,489799,"0.0-140.0","k17antmx24",59,NA,"<div style=""width:500px;"">
                            <p style=""font-size:50px; font-weight:bold;""
                            >fearful</p>
                            <div style=""width:240px; margin: auto;"">
                                <img src=""images/map07_PuBuGn_scaleRev_orientMir_000.png"" style= ""width:200px""alt=""img"">
                            </div>
                        </div>",0.58,"",0,"",NA,"","images/map07_PuBuGn_scaleRev_orientMir_000.png","fearful",1,7,7,"PuBuGn","orientMir","scaleRev","000",NA,NA
"","","","","","html-slider-response",149,492133,"0.0-141.0","k17antmx24",59,NA,"<div style=""width:500px;"">
                            <p style=""font-size:50px; font-weight:bold;""
                            >fearful</p>
                            <div style=""width:240px; margin: auto;"">
                                <img src=""images/map02_OrRd_scaleRev_orientMir_180.png"" style= ""width:200px""alt=""img"">
                            </div>
                        </div>",1,"",0,"",NA,"","images/map02_OrRd_scaleRev_orientMir_180.png","fearful",1,2,2,"OrRd","orientMir","scaleRev","180",NA,NA
"","","","","","html-slider-response",150,494116,"0.0-142.0","k17antmx24",59,NA,"<div style=""width:500px;"">
                            <p style=""font-size:50px; font-weight:bold;""
                            >fearful</p>
                            <div style=""width:240px; margin: auto;"">
                                <img src=""images/map27_Reds_scaleDef_orientMir_270.png"" style= ""width:200px""alt=""img"">
                            </div>
                        </div>",1,"",0,"",NA,"","images/map27_Reds_scaleDef_orientMir_270.png","fearful",1,27,27,"Reds","orientMir","scaleDef","270",NA,NA
"","","","","","html-slider-response",151,496199,"0.0-143.0","k17antmx24",59,NA,"<div style=""width:500px;"">
                            <p style=""font-size:50px; font-weight:bold;""
                            >fearful</p>
                            <div style=""width:240px; margin: auto;"">
                                <img src=""images/map13_coolwarm_scaleRev_orientMir_000.png"" style= ""width:200px""alt=""img"">
                            </div>
                        </div>",0.3325,"",0,"",NA,"","images/map13_coolwarm_scaleRev_orientMir_000.png","fearful",1,13,13,"coolwarm","orientMir","scaleRev","000",NA,NA
"","","","","","html-slider-response",152,499216,"0.0-144.0","k17antmx24",59,NA,"<div style=""width:500px;"">
                            <p style=""font-size:50px; font-weight:bold;""
                            >fearful</p>
                            <div style=""width:240px; margin: auto;"">
                                <img src=""images/map02_YlOrBr_scaleDef_orientDef_090.png"" style= ""width:200px""alt=""img"">
                            </div>
                        </div>",0.68,"",0,"",NA,"","images/map02_YlOrBr_scaleDef_orientDef_090.png","fearful",1,2,2,"YlOrBr","orientDef","scaleDef","090",NA,NA
"","","","","","html-slider-response",153,501499,"0.0-145.0","k17antmx24",59,NA,"<div style=""width:500px;"">
                            <p style=""font-size:50px; font-weight:bold;""
                            >fearful</p>
                            <div style=""width:240px; margin: auto;"">
                                <img src=""images/map15_managua_scaleDef_orientDef_270.png"" style= ""width:200px""alt=""img"">
                            </div>
                        </div>",0.6,"",0,"",NA,"","images/map15_managua_scaleDef_orientDef_270.png","fearful",1,15,15,"managua","orientDef","scaleDef","270",NA,NA
"","","","","","html-slider-response",154,503165,"0.0-146.0","k17antmx24",59,NA,"<div style=""width:500px;"">
                            <p style=""font-size:50px; font-weight:bold;""
                            >fearful</p>
                            <div style=""width:240px; margin: auto;"">
                                <img src=""images/map05_PuBu_scaleDef_orientMir_270.png"" style= ""width:200px""alt=""img"">
                            </div>
                        </div>",0.6025,"",0,"",NA,"","images/map05_PuBu_scaleDef_orientMir_270.png","fearful",1,5,5,"PuBu","orientMir","scaleDef","270",NA,NA
"","","","","","html-slider-response",155,504749,"0.0-147.0","k17antmx24",59,NA,"<div style=""width:500px;"">
                            <p style=""font-size:50px; font-weight:bold;""
                            >fearful</p>
                            <div style=""width:240px; margin: auto;"">
                                <img src=""images/map10_PiYG_scaleDef_orientDef_090.png"" style= ""width:200px""alt=""img"">
                            </div>
                        </div>",0.265,"",0,"",NA,"","images/map10_PiYG_scaleDef_orientDef_090.png","fearful",1,10,10,"PiYG","orientDef","scaleDef","090",NA,NA
"","","","","","html-slider-response",156,506883,"0.0-148.0","k17antmx24",59,NA,"<div style=""width:500px;"">
                            <p style=""font-size:50px; font-weight:bold;""
                            >fearful</p>
                            <div style=""width:240px; margin: auto;"">
                                <img src=""images/map07_YlGnBu_scaleRev_orientDef_180.png"" style= ""width:200px""alt=""img"">
                            </div>
                        </div>",0.565,"",0,"",NA,"","images/map07_YlGnBu_scaleRev_orientDef_180.png","fearful",1,7,7,"YlGnBu","orientDef","scaleRev","180",NA,NA
"","","","","","html-slider-response",157,509033,"0.0-149.0","k17antmx24",59,NA,"<div style=""width:500px;"">
                            <p style=""font-size:50px; font-weight:bold;""
                            >fearful</p>
                            <div style=""width:240px; margin: auto;"">
                                <img src=""images/map10_PRGn_scaleRev_orientMir_000.png"" style= ""width:200px""alt=""img"">
                            </div>
                        </div>",0.03,"",0,"",NA,"","images/map10_PRGn_scaleRev_orientMir_000.png","fearful",1,10,10,"PRGn","orientMir","scaleRev","000",NA,NA
"","","","","","html-slider-response",158,512032,"0.0-150.0","k17antmx24",59,NA,"<div style=""width:500px;"">
                            <p style=""font-size:50px; font-weight:bold;""
                            >fearful</p>
                            <div style=""width:240px; margin: auto;"">
                                <img src=""images/map23_turbo_scaleDef_orientDef_090.png"" style= ""width:200px""alt=""img"">
                            </div>
                        </div>",0.1675,"",0,"",NA,"","images/map23_turbo_scaleDef_orientDef_090.png","fearful",1,23,23,"turbo","orientDef","scaleDef","090",NA,NA
"","","","","","html-slider-response",159,514032,"0.0-151.0","k17antmx24",59,NA,"<div style=""width:500px;"">
                            <p style=""font-size:50px; font-weight:bold;""
                            >fearful</p>
                            <div style=""width:240px; margin: auto;"">
                                <img src=""images/map15_managua_scaleRev_orientMir_000.png"" style= ""width:200px""alt=""img"">
                            </div>
                        </div>",0.605,"",0,"",NA,"","images/map15_managua_scaleRev_orientMir_000.png","fearful",1,15,15,"managua","orientMir","scaleRev","000",NA,NA
"","","","","","html-slider-response",160,515598,"0.0-152.0","k17antmx24",59,NA,"<div style=""width:500px;"">
                            <p style=""font-size:50px; font-weight:bold;""
                            >fearful</p>
                            <div style=""width:240px; margin: auto;"">
                                <img src=""images/map26_inferno_scaleRev_orientDef_000.png"" style= ""width:200px""alt=""img"">
                            </div>
                        </div>",0.7275,"",0,"",NA,"","images/map26_inferno_scaleRev_orientDef_000.png","fearful",1,26,26,"inferno","orientDef","scaleRev","000",NA,NA
"","","","","","html-slider-response",161,517365,"0.0-153.0","k17antmx24",59,NA,"<div style=""width:500px;"">
                            <p style=""font-size:50px; font-weight:bold;""
                            >fearful</p>
                            <div style=""width:240px; margin: auto;"">
                                <img src=""images/map12_RdYlBu_scaleRev_orientMir_180.png"" style= ""width:200px""alt=""img"">
                            </div>
                        </div>",0.4975,"",0,"",NA,"","images/map12_RdYlBu_scaleRev_orientMir_180.png","fearful",1,12,12,"RdYlBu","orientMir","scaleRev","180",NA,NA
"","","","","","html-slider-response",162,519399,"0.0-154.0","k17antmx24",59,NA,"<div style=""width:500px;"">
                            <p style=""font-size:50px; font-weight:bold;""
                            >fearful</p>
                            <div style=""width:240px; margin: auto;"">
                                <img src=""images/map26_magma_scaleDef_orientDef_090.png"" style= ""width:200px""alt=""img"">
                            </div>
                        </div>",0.7925,"",0,"",NA,"","images/map26_magma_scaleDef_orientDef_090.png","fearful",1,26,26,"magma","orientDef","scaleDef","090",NA,NA
"","","","","","html-slider-response",163,521482,"0.0-155.0","k17antmx24",59,NA,"<div style=""width:500px;"">
                            <p style=""font-size:50px; font-weight:bold;""
                            >fearful</p>
                            <div style=""width:240px; margin: auto;"">
                                <img src=""images/map12_RdGy_scaleRev_orientDef_180.png"" style= ""width:200px""alt=""img"">
                            </div>
                        </div>",0.595,"",0,"",NA,"","images/map12_RdGy_scaleRev_orientDef_180.png","fearful",1,12,12,"RdGy","orientDef","scaleRev","180",NA,NA
"","","","","","html-slider-response",164,523699,"0.0-156.0","k17antmx24",59,NA,"<div style=""width:500px;"">
                            <p style=""font-size:50px; font-weight:bold;""
                            >fearful</p>
                            <div style=""width:240px; margin: auto;"">
                                <img src=""images/map27_Oranges_scaleDef_orientMir_090.png"" style= ""width:200px""alt=""img"">
                            </div>
