"success","timeout","failed_images","failed_audio","failed_video","trial_type","trial_index","time_elapsed","internal_node_id","subject_id","condition_num","rt","stimulus","response","question_order","slider_start","practiceTrial","practiceTrialNum","correct","image_path","concept","repetition","map_id","map_num","scale_name","orientation_code","mapping_code","rotation_code","ishihara_plate","correct_response"
"true","false","[]","[]","[]","preload",0,328,"0.0-0.0","u8gs7ppzj2",31,NA,"",NA,"",NA,"",NA,"","","",NA,NA,NA,"","","","",NA,NA
"","","","","","html-button-response",1,4168,"0.0-1.0","u8gs7ppzj2",31,3838,"Welcome to our experiment!<p>At the bottom of this screen, you will see a button that says ""Begin Experiment"".<br>Please only click that button when you are ready to complete the 30 minute experiment in one sitting.</p><p> Once you click that button, it will not be possible to restart the experiment.",0.5,"",NA,"",NA,"","","",NA,NA,NA,"","","","",NA,NA
"true","","","","","fullscreen",2,6920,"0.0-2.0","u8gs7ppzj2",31,1746,"",NA,"",NA,"",NA,"","","",NA,NA,NA,"","","","",NA,NA
"","","","","","survey-multi-select",3,10422,"0.0-3.0","u8gs7ppzj2",31,3495,"",NA,"[0]",NA,"",NA,"","","",NA,NA,NA,"","","","",NA,NA
"","","","","","html-button-response",4,11633,"0.0-4.0","u8gs7ppzj2",31,1209,"Welcome! <p> This experiment involves two parts: demographic information, followed by the experimental task.<p> It will take about 30 minutes to complete both parts.",0.5,"",NA,"",NA,"","","",NA,NA,NA,"","","","",NA,NA
"","","","","","survey-text",5,30301,"0.0-5.0","u8gs7ppzj2",31,18652,"",NA,"",NA,"",NA,"","","",NA,NA,NA,"","","","",NA,NA
"","","","","","html-slider-response",6,34434,"0.0-6.0","u8gs7ppzj2",31,4130,"<div style='text-align:left; font-size:20px; line-height:25px; width: 1000px;'>
                                During this experiment you will be asked to rate how much you associate maps with                    different concepts.<br> Below, you can see some examples of the maps you will be asked to rate. Above the maps
                    is the list of concepts.<br>You will be asked                    to rate how much you associate each map with each concept on a scale from 'not at all' to 'very much' like the
                    one below. <br><br>
                    Now, please look at the list of concepts and maps. For each concept, think about the map you associate 'very
                    much' with the concept.<br>                     When you see that map during the experiment, please rate it near the 'very much' endpoint of the
                    scale.<br>Now, please think about which map you associate 'not at all'                     with each concept. When you see that map during the experiment, please rate it near the 'not at all' endpoint
                    of the scale.<br>
                    Please use the full range of the scale. That is, if a map is somewhat associated with the concept, you would
                    click partway between the middle point and right side of the scale.                    You will be asked to rate each map for a given concept before moving on to the next concept.<br>Press the
                    'Continue' button for instructions on how to use the slider.                    <br>
                </div>

                <div style=""width: 500px; margin: 0 auto;"">
                    <!-- Centered text paragraphs -->
                    <div style=""text-align: center; width: 500px;"">
                        <p style=""font-size:25px; line-height:15px;"">
                            fearful&nbsp;&nbsp;&nbsp;&nbsp;
                            happy&nbsp;&nbsp;&nbsp;&nbsp;
                            angry&nbsp;&nbsp;&nbsp;&nbsp;
                            disgust&nbsp;&nbsp;&nbsp;&nbsp;
                            sad
                        </p>
                        <!-- <p style=""font-size:20px; line-height:15px;"">happy</p>
                        <p style=""font-size:20px;line-height:15px;"">angry</p>
                        <p style=""font-size:20px;line-height:15px;"">disgust</p>
                        <p style=""font-size:20px;line-height:15px;"">sad</p> -->
                    </div>
            

                    <!-- Grid section -->
                   <div style=""display: flex; justify-content: center; padding-top: 15px;"">
                    <div style=""display: grid; grid-template-columns: repeat(10, 55px); grid-gap: 5px; width: auto;"">
                        <img src=""images/map13_Greens_scaleDef_orientMir_270.png"" alt=""map"" style=""width: 100%;""><img src=""images/map23_BuPu_scaleDef_orientMir_270.png"" alt=""map"" style=""width: 100%;""><img src=""images/map13_Blues_scaleRev_orientMir_180.png"" alt=""map"" style=""width: 100%;""><img src=""images/map02_PuOr_scaleRev_orientMir_000.png"" alt=""map"" style=""width: 100%;""><img src=""images/map07_berlin_scaleDef_orientMir_090.png"" alt=""map"" style=""width: 100%;""><img src=""images/map02_RdGy_scaleRev_orientMir_180.png"" alt=""map"" style=""width: 100%;""><img src=""images/map05_RdBu_scaleRev_orientDef_000.png"" alt=""map"" style=""width: 100%;""><img src=""images/map15_YlOrRd_scaleDef_orientMir_270.png"" alt=""map"" style=""width: 100%;""><img src=""images/map13_cividis_scaleRev_orientDef_000.png"" alt=""map"" style=""width: 100%;""><img src=""images/map07_bwr_scaleRev_orientDef_180.png"" alt=""map"" style=""width: 100%;""><img src=""images/map12_inferno_scaleRev_orientMir_000.png"" alt=""map"" style=""width: 100%;""><img src=""images/map23_PuRd_scaleDef_orientDef_270.png"" alt=""map"" style=""width: 100%;""><img src=""images/map05_Spectral_scaleDef_orientMir_090.png"" alt=""map"" style=""width: 100%;""><img src=""images/map12_viridis_scaleRev_orientDef_000.png"" alt=""map"" style=""width: 100%;""><img src=""images/map02_BrBG_scaleDef_orientDef_090.png"" alt=""map"" style=""width: 100%;""><img src=""images/map27_PuBuGn_scaleRev_orientDef_000.png"" alt=""map"" style=""width: 100%;""><img src=""images/map07_seismic_scaleDef_orientDef_270.png"" alt=""map"" style=""width: 100%;""><img src=""images/map26_YlGnBu_scaleRev_orientMir_180.png"" alt=""map"" style=""width: 100%;""><img src=""images/map27_YlGn_scaleRev_orientMir_000.png"" alt=""map"" style=""width: 100%;""><img src=""images/map23_OrRd_scaleRev_orientDef_180.png"" alt=""map"" style=""width: 100%;""><img src=""images/map13_Purples_scaleDef_orientDef_270.png"" alt=""map"" style=""width: 100%;""><img src=""images/map10_gist_earth_scaleDef_orientDef_270.png"" alt=""map"" style=""width: 100%;""><img src=""images/map13_Greys_scaleDef_orientDef_090.png"" alt=""map"" style=""width: 100%;""><img src=""images/map10_managua_scaleRev_orientDef_000.png"" alt=""map"" style=""width: 100%;""><img src=""images/map15_Reds_scaleRev_orientMir_000.png"" alt=""map"" style=""width: 100%;""><img src=""images/map05_RdYlBu_scaleDef_orientDef_090.png"" alt=""map"" style=""width: 100%;""><img src=""images/map12_magma_scaleDef_orientMir_090.png"" alt=""map"" style=""width: 100%;""><img src=""images/map05_coolwarm_scaleDef_orientMir_270.png"" alt=""map"" style=""width: 100%;""><img src=""images/map05_RdYlGn_scaleDef_orientDef_270.png"" alt=""map"" style=""width: 100%;""><img src=""images/map10_turbo_scaleDef_orientMir_090.png"" alt=""map"" style=""width: 100%;""><img src=""images/map23_RdPu_scaleDef_orientMir_090.png"" alt=""map"" style=""width: 100%;""><img src=""images/map27_BuGn_scaleDef_orientDef_090.png"" alt=""map"" style=""width: 100%;""><img src=""images/map10_vanimo_scaleRev_orientDef_180.png"" alt=""map"" style=""width: 100%;""><img src=""images/map26_GnBu_scaleDef_orientDef_090.png"" alt=""map"" style=""width: 100%;""><img src=""images/map15_Oranges_scaleRev_orientDef_180.png"" alt=""map"" style=""width: 100%;""><img src=""images/map27_PiYG_scaleDef_orientMir_090.png"" alt=""map"" style=""width: 100%;""><img src=""images/map15_YlOrBr_scaleDef_orientMir_090.png"" alt=""map"" style=""width: 100%;""><img src=""images/map02_PRGn_scaleRev_orientDef_000.png"" alt=""map"" style=""width: 100%;""><img src=""images/map26_PuBu_scaleRev_orientMir_000.png"" alt=""map"" style=""width: 100%;""><img src=""images/map12_plasma_scaleDef_orientDef_090.png"" alt=""map"" style=""width: 100%;"">
                    </div>
                </div>

                    <!-- Clear floats -->
                    <div style=""clear: both;""></div>
                </div>
                            ",1,"",0,"true",NA,"","","",NA,NA,NA,"","","","",NA,NA
"","","","","","html-button-response",7,35684,"0.0-7.0","u8gs7ppzj2",31,1247,"<div style=""width:800px;""><p style=""text-align:left"">To move the slider, click and drag your cursor to the location of the scale where you would like to make your rating and then let go. When you let go of the slider, your response will be recorded and the next trial will begin. <br>
                    We are interested in your initial impressions of each map for the given concept, so please go with your first intuition. <br>
                    Before you begin the experiment, there will be four training trials for you to practice using the scale. <br>
                     When you are ready to start the training trials, please click ""Continue"".</p><br></div>",0.5,"",NA,"",NA,"","","",NA,NA,NA,"","","","",NA,NA
"","","","","","html-slider-response",8,37310,"0.0-8.0-0.0","u8gs7ppzj2",31,NA,"<div style=""width:500px;"">
                                    <p style=""font-size:25px;"">Please move the slider all the way to the <br> right endpoint of the scale</p>

                                    </div>
                                </div>",1,"",0,"true",0,"true","","",NA,NA,NA,"","","","",NA,NA
"","","","","","html-button-response",9,38855,"0.0-8.0-1.0","u8gs7ppzj2",31,1040,"<p align='center'><b>Good job!</b> Click on 'Continue' to proceed.</p>",0.5,"",NA,"",NA,"","","",NA,NA,NA,"","","","",NA,NA
"","","","","","html-slider-response",10,41763,"0.0-9.0-0.0","u8gs7ppzj2",31,NA,"<div style=""width:500px;"">
                                    <p style=""font-size:25px;"">Please move the slider all the way to the <br> left endpoint of the scale</p>

                                    </div>
                                </div>",0,"",0,"true",1,"true","","",NA,NA,NA,"","","","",NA,NA
"","","","","","html-button-response",11,43336,"0.0-9.0-1.0","u8gs7ppzj2",31,1068,"<p align='center'><b>Good job!</b> Click on 'Continue' to proceed.</p>",0.5,"",NA,"",NA,"","","",NA,NA,NA,"","","","",NA,NA
"","","","","","html-slider-response",12,48561,"0.0-10.0-0.0","u8gs7ppzj2",31,NA,"<div style=""width:500px;"">
                                    <p style=""font-size:25px;"">Please move the slider halfway between the center and right endpoint of the scale</p>

                                    </div>
                                </div>",0.75,"",0,"true",2,"true","","",NA,NA,NA,"","","","",NA,NA
"","","","","","html-button-response",13,50084,"0.0-10.0-1.0","u8gs7ppzj2",31,1019,"<p align='center'><b>Good job!</b> Click on 'Continue' to proceed.</p>",0.5,"",NA,"",NA,"","","",NA,NA,NA,"","","","",NA,NA
"","","","","","html-slider-response",14,52428,"0.0-11.0-0.0","u8gs7ppzj2",31,NA,"<div style=""width:500px;"">
                                    <p style=""font-size:25px;"">Please move the slider halfway between the center and left endpoint of the scale</p>

                                    </div>
                                </div>",0.215,"",0,"true",3,"false","","",NA,NA,NA,"","","","",NA,NA
"","","","","","html-button-response",15,53800,"0.0-11.0-1.0","u8gs7ppzj2",31,870,"<p align='center'><b>Not quite!</b> The slider was not placed near the instructed located. Click on 'Continue' to try again. </p>",0.5,"",NA,"",NA,"","","",NA,NA,NA,"","","","",NA,NA
"","","","","","html-slider-response",16,58178,"0.0-11.1-0.1","u8gs7ppzj2",31,NA,"<div style=""width:500px;"">
                                    <p style=""font-size:25px;"">Please move the slider halfway between the center and left endpoint of the scale</p>

                                    </div>
                                </div>",0.2125,"",0,"true",3,"false","","",NA,NA,NA,"","","","",NA,NA
"","","","","","html-button-response",17,59284,"0.0-11.1-1.1","u8gs7ppzj2",31,604,"<p align='center'><b>Not quite!</b> The slider was not placed near the instructed located. Click on 'Continue' to try again. </p>",0.5,"",NA,"",NA,"","","",NA,NA,NA,"","","","",NA,NA
"","","","","","html-slider-response",18,63678,"0.0-11.2-0.2","u8gs7ppzj2",31,NA,"<div style=""width:500px;"">
                                    <p style=""font-size:25px;"">Please move the slider halfway between the center and left endpoint of the scale</p>

                                    </div>
                                </div>",0.2375,"",0,"true",3,"true","","",NA,NA,NA,"","","","",NA,NA
"","","","","","html-button-response",19,65067,"0.0-11.2-1.2","u8gs7ppzj2",31,886,"<p align='center'><b>Good job!</b> Click on 'Continue' to proceed.</p>",0.5,"",NA,"",NA,"","","",NA,NA,NA,"","","","",NA,NA
"","","","","","html-button-response",20,66067,"0.0-12.0","u8gs7ppzj2",31,998,"<p>Great job! You've completed the practice trials. Now you will begin the main task.</p>",0.5,"",NA,"",NA,"","","",NA,NA,NA,"","","","",NA,NA
"","","","","","html-button-response",21,67033,"0.0-13.0","u8gs7ppzj2",31,965,"<p>In this block of trials, you will be asked to rate how much you associate each map with:</p > <p style = 'font-size:150%; font-weight: bold'>fearful</p><br></br>",0.5,"",NA,"",NA,"","","",NA,NA,NA,"","","","",NA,NA
"","","","","","html-slider-response",22,74316,"0.0-14.0","u8gs7ppzj2",31,NA,"<div style=""width:500px;"">
                            <p style=""font-size:50px; font-weight:bold;""
                            >fearful</p>
                            <div style=""width:240px; margin: auto;"">
                                <img src=""images/map02_PuOr_scaleDef_orientDef_270.png"" style= ""width:200px""alt=""img"">
                            </div>
                        </div>",0.145,"",0,"",NA,"","images/map02_PuOr_scaleDef_orientDef_270.png","fearful",1,2,2,"PuOr","orientDef","scaleDef","270",NA,NA
"","","","","","html-slider-response",23,78695,"0.0-15.0","u8gs7ppzj2",31,NA,"<div style=""width:500px;"">
                            <p style=""font-size:50px; font-weight:bold;""
                            >fearful</p>
                            <div style=""width:240px; margin: auto;"">
                                <img src=""images/map07_bwr_scaleRev_orientDef_180.png"" style= ""width:200px""alt=""img"">
                            </div>
                        </div>",0.5175,"",0,"",NA,"","images/map07_bwr_scaleRev_orientDef_180.png","fearful",1,7,7,"bwr","orientDef","scaleRev","180",NA,NA
"","","","","","html-slider-response",24,80711,"0.0-16.0","u8gs7ppzj2",31,NA,"<div style=""width:500px;"">
                            <p style=""font-size:50px; font-weight:bold;""
                            >fearful</p>
                            <div style=""width:240px; margin: auto;"">
                                <img src=""images/map26_PuBu_scaleRev_orientMir_000.png"" style= ""width:200px""alt=""img"">
                            </div>
                        </div>",0,"",0,"",NA,"","images/map26_PuBu_scaleRev_orientMir_000.png","fearful",1,26,26,"PuBu","orientMir","scaleRev","000",NA,NA
"","","","","","html-slider-response",25,83176,"0.0-17.0","u8gs7ppzj2",31,NA,"<div style=""width:500px;"">
                            <p style=""font-size:50px; font-weight:bold;""
                            >fearful</p>
                            <div style=""width:240px; margin: auto;"">
                                <img src=""images/map27_YlGn_scaleDef_orientDef_270.png"" style= ""width:200px""alt=""img"">
                            </div>
                        </div>",0.23,"",0,"",NA,"","images/map27_YlGn_scaleDef_orientDef_270.png","fearful",1,27,27,"YlGn","orientDef","scaleDef","270",NA,NA
"","","","","","html-slider-response",26,85660,"0.0-18.0","u8gs7ppzj2",31,NA,"<div style=""width:500px;"">
                            <p style=""font-size:50px; font-weight:bold;""
                            >fearful</p>
                            <div style=""width:240px; margin: auto;"">
                                <img src=""images/map13_Greys_scaleRev_orientDef_180.png"" style= ""width:200px""alt=""img"">
                            </div>
                        </div>",0,"",0,"",NA,"","images/map13_Greys_scaleRev_orientDef_180.png","fearful",1,13,13,"Greys","orientDef","scaleRev","180",NA,NA
"","","","","","html-slider-response",27,87728,"0.0-19.0","u8gs7ppzj2",31,NA,"<div style=""width:500px;"">
                            <p style=""font-size:50px; font-weight:bold;""
                            >fearful</p>
                            <div style=""width:240px; margin: auto;"">
                                <img src=""images/map13_Greens_scaleDef_orientMir_270.png"" style= ""width:200px""alt=""img"">
                            </div>
                        </div>",0,"",0,"",NA,"","images/map13_Greens_scaleDef_orientMir_270.png","fearful",1,13,13,"Greens","orientMir","scaleDef","270",NA,NA
"","","","","","html-slider-response",28,90428,"0.0-20.0","u8gs7ppzj2",31,NA,"<div style=""width:500px;"">
                            <p style=""font-size:50px; font-weight:bold;""
                            >fearful</p>
                            <div style=""width:240px; margin: auto;"">
                                <img src=""images/map12_plasma_scaleDef_orientDef_090.png"" style= ""width:200px""alt=""img"">
                            </div>
                        </div>",0.6125,"",0,"",NA,"","images/map12_plasma_scaleDef_orientDef_090.png","fearful",1,12,12,"plasma","orientDef","scaleDef","090",NA,NA
"","","","","","html-slider-response",29,92495,"0.0-21.0","u8gs7ppzj2",31,NA,"<div style=""width:500px;"">
                            <p style=""font-size:50px; font-weight:bold;""
                            >fearful</p>
                            <div style=""width:240px; margin: auto;"">
                                <img src=""images/map10_turbo_scaleDef_orientMir_090.png"" style= ""width:200px""alt=""img"">
                            </div>
                        </div>",0.325,"",0,"",NA,"","images/map10_turbo_scaleDef_orientMir_090.png","fearful",1,10,10,"turbo","orientMir","scaleDef","090",NA,NA
"","","","","","html-slider-response",30,96294,"0.0-22.0","u8gs7ppzj2",31,NA,"<div style=""width:500px;"">
                            <p style=""font-size:50px; font-weight:bold;""
                            >fearful</p>
                            <div style=""width:240px; margin: auto;"">
                                <img src=""images/map02_RdBu_scaleDef_orientMir_270.png"" style= ""width:200px""alt=""img"">
                            </div>
                        </div>",0.395,"",0,"",NA,"","images/map02_RdBu_scaleDef_orientMir_270.png","fearful",1,2,2,"RdBu","orientMir","scaleDef","270",NA,NA
"","","","","","html-slider-response",31,98293,"0.0-23.0","u8gs7ppzj2",31,NA,"<div style=""width:500px;"">
                            <p style=""font-size:50px; font-weight:bold;""
                            >fearful</p>
                            <div style=""width:240px; margin: auto;"">
                                <img src=""images/map27_BuGn_scaleRev_orientDef_180.png"" style= ""width:200px""alt=""img"">
                            </div>
                        </div>",0.3675,"",0,"",NA,"","images/map27_BuGn_scaleRev_orientDef_180.png","fearful",1,27,27,"BuGn","orientDef","scaleRev","180",NA,NA
"","","","","","html-slider-response",32,100644,"0.0-24.0","u8gs7ppzj2",31,NA,"<div style=""width:500px;"">
                            <p style=""font-size:50px; font-weight:bold;""
                            >fearful</p>
                            <div style=""width:240px; margin: auto;"">
                                <img src=""images/map27_BuGn_scaleDef_orientDef_090.png"" style= ""width:200px""alt=""img"">
                            </div>
                        </div>",0.1825,"",0,"",NA,"","images/map27_BuGn_scaleDef_orientDef_090.png","fearful",1,27,27,"BuGn","orientDef","scaleDef","090",NA,NA
"","","","","","html-slider-response",33,109160,"0.0-25.0","u8gs7ppzj2",31,NA,"<div style=""width:500px;"">
                            <p style=""font-size:50px; font-weight:bold;""
                            >fearful</p>
                            <div style=""width:240px; margin: auto;"">
                                <img src=""images/map23_RdPu_scaleRev_orientMir_180.png"" style= ""width:200px""alt=""img"">
                            </div>
                        </div>",0,"",0,"",NA,"","images/map23_RdPu_scaleRev_orientMir_180.png","fearful",1,23,23,"RdPu","orientMir","scaleRev","180",NA,NA
"","","","","","html-slider-response",34,111844,"0.0-26.0","u8gs7ppzj2",31,NA,"<div style=""width:500px;"">
                            <p style=""font-size:50px; font-weight:bold;""
                            >fearful</p>
                            <div style=""width:240px; margin: auto;"">
                                <img src=""images/map12_inferno_scaleRev_orientMir_000.png"" style= ""width:200px""alt=""img"">
                            </div>
                        </div>",0.655,"",0,"",NA,"","images/map12_inferno_scaleRev_orientMir_000.png","fearful",1,12,12,"inferno","orientMir","scaleRev","000",NA,NA
"","","","","","html-slider-response",35,115010,"0.0-27.0","u8gs7ppzj2",31,NA,"<div style=""width:500px;"">
                            <p style=""font-size:50px; font-weight:bold;""
                            >fearful</p>
                            <div style=""width:240px; margin: auto;"">
                                <img src=""images/map23_OrRd_scaleDef_orientDef_090.png"" style= ""width:200px""alt=""img"">
                            </div>
                        </div>",1,"",0,"",NA,"","images/map23_OrRd_scaleDef_orientDef_090.png","fearful",1,23,23,"OrRd","orientDef","scaleDef","090",NA,NA
"","","","","","html-slider-response",36,124394,"0.0-28.0","u8gs7ppzj2",31,NA,"<div style=""width:500px;"">
                            <p style=""font-size:50px; font-weight:bold;""
                            >fearful</p>
                            <div style=""width:240px; margin: auto;"">
                                <img src=""images/map13_Blues_scaleDef_orientMir_090.png"" style= ""width:200px""alt=""img"">
                            </div>
                        </div>",0,"",0,"",NA,"","images/map13_Blues_scaleDef_orientMir_090.png","fearful",1,13,13,"Blues","orientMir","scaleDef","090",NA,NA
"","","","","","html-slider-response",37,130344,"0.0-29.0","u8gs7ppzj2",31,NA,"<div style=""width:500px;"">
                            <p style=""font-size:50px; font-weight:bold;""
                            >fearful</p>
                            <div style=""width:240px; margin: auto;"">
                                <img src=""images/map05_coolwarm_scaleDef_orientMir_270.png"" style= ""width:200px""alt=""img"">
                            </div>
                        </div>",0.275,"",0,"",NA,"","images/map05_coolwarm_scaleDef_orientMir_270.png","fearful",1,5,5,"coolwarm","orientMir","scaleDef","270",NA,NA
"","","","","","html-slider-response",38,133993,"0.0-30.0","u8gs7ppzj2",31,NA,"<div style=""width:500px;"">
                            <p style=""font-size:50px; font-weight:bold;""
                            >fearful</p>
                            <div style=""width:240px; margin: auto;"">
                                <img src=""images/map23_OrRd_scaleRev_orientDef_180.png"" style= ""width:200px""alt=""img"">
                            </div>
                        </div>",0.8125,"",0,"",NA,"","images/map23_OrRd_scaleRev_orientDef_180.png","fearful",1,23,23,"OrRd","orientDef","scaleRev","180",NA,NA
"","","","","","html-slider-response",39,138544,"0.0-31.0","u8gs7ppzj2",31,NA,"<div style=""width:500px;"">
                            <p style=""font-size:50px; font-weight:bold;""
                            >fearful</p>
                            <div style=""width:240px; margin: auto;"">
                                <img src=""images/map13_Blues_scaleRev_orientMir_180.png"" style= ""width:200px""alt=""img"">
                            </div>
                        </div>",0.4025,"",0,"",NA,"","images/map13_Blues_scaleRev_orientMir_180.png","fearful",1,13,13,"Blues","orientMir","scaleRev","180",NA,NA
"","","","","","html-slider-response",40,140878,"0.0-32.0","u8gs7ppzj2",31,NA,"<div style=""width:500px;"">
                            <p style=""font-size:50px; font-weight:bold;""
                            >fearful</p>
                            <div style=""width:240px; margin: auto;"">
                                <img src=""images/map12_viridis_scaleRev_orientDef_000.png"" style= ""width:200px""alt=""img"">
                            </div>
                        </div>",0.8775,"",0,"",NA,"","images/map12_viridis_scaleRev_orientDef_000.png","fearful",1,12,12,"viridis","orientDef","scaleRev","000",NA,NA
"","","","","","html-slider-response",41,142927,"0.0-33.0","u8gs7ppzj2",31,NA,"<div style=""width:500px;"">
                            <p style=""font-size:50px; font-weight:bold;""
                            >fearful</p>
                            <div style=""width:240px; margin: auto;"">
                                <img src=""images/map07_seismic_scaleRev_orientMir_000.png"" style= ""width:200px""alt=""img"">
                            </div>
                        </div>",0.9425,"",0,"",NA,"","images/map07_seismic_scaleRev_orientMir_000.png","fearful",1,7,7,"seismic","orientMir","scaleRev","000",NA,NA
"","","","","","html-slider-response",42,145077,"0.0-34.0","u8gs7ppzj2",31,NA,"<div style=""width:500px;"">
                            <p style=""font-size:50px; font-weight:bold;""
                            >fearful</p>
                            <div style=""width:240px; margin: auto;"">
                                <img src=""images/map12_magma_scaleRev_orientMir_180.png"" style= ""width:200px""alt=""img"">
                            </div>
                        </div>",0.785,"",0,"",NA,"","images/map12_magma_scaleRev_orientMir_180.png","fearful",1,12,12,"magma","orientMir","scaleRev","180",NA,NA
"","","","","","html-slider-response",43,147093,"0.0-35.0","u8gs7ppzj2",31,NA,"<div style=""width:500px;"">
                            <p style=""font-size:50px; font-weight:bold;""
                            >fearful</p>
                            <div style=""width:240px; margin: auto;"">
                                <img src=""images/map15_YlOrRd_scaleDef_orientMir_270.png"" style= ""width:200px""alt=""img"">
                            </div>
                        </div>",0.8125,"",0,"",NA,"","images/map15_YlOrRd_scaleDef_orientMir_270.png","fearful",1,15,15,"YlOrRd","orientMir","scaleDef","270",NA,NA
"","","","","","html-slider-response",44,161034,"0.0-36.0","u8gs7ppzj2",31,NA,"<div style=""width:500px;"">
                            <p style=""font-size:50px; font-weight:bold;""
                            >fearful</p>
                            <div style=""width:240px; margin: auto;"">
                                <img src=""images/map10_vanimo_scaleDef_orientDef_090.png"" style= ""width:200px""alt=""img"">
                            </div>
                        </div>",0.2875,"",0,"",NA,"","images/map10_vanimo_scaleDef_orientDef_090.png","fearful",1,10,10,"vanimo","orientDef","scaleDef","090",NA,NA
"","","","","","html-slider-response",45,162860,"0.0-37.0","u8gs7ppzj2",31,NA,"<div style=""width:500px;"">
                            <p style=""font-size:50px; font-weight:bold;""
                            >fearful</p>
                            <div style=""width:240px; margin: auto;"">
                                <img src=""images/map26_YlGnBu_scaleRev_orientMir_180.png"" style= ""width:200px""alt=""img"">
                            </div>
                        </div>",0.335,"",0,"",NA,"","images/map26_YlGnBu_scaleRev_orientMir_180.png","fearful",1,26,26,"YlGnBu","orientMir","scaleRev","180",NA,NA
"","","","","","html-slider-response",46,164447,"0.0-38.0","u8gs7ppzj2",31,NA,"<div style=""width:500px;"">
                            <p style=""font-size:50px; font-weight:bold;""
                            >fearful</p>
                            <div style=""width:240px; margin: auto;"">
                                <img src=""images/map02_BrBG_scaleDef_orientDef_090.png"" style= ""width:200px""alt=""img"">
                            </div>
                        </div>",0.255,"",0,"",NA,"","images/map02_BrBG_scaleDef_orientDef_090.png","fearful",1,2,2,"BrBG","orientDef","scaleDef","090",NA,NA
"","","","","","html-slider-response",47,165959,"0.0-39.0","u8gs7ppzj2",31,NA,"<div style=""width:500px;"">
                            <p style=""font-size:50px; font-weight:bold;""
                            >fearful</p>
                            <div style=""width:240px; margin: auto;"">
                                <img src=""images/map10_turbo_scaleRev_orientMir_180.png"" style= ""width:200px""alt=""img"">
                            </div>
                        </div>",0.685,"",0,"",NA,"","images/map10_turbo_scaleRev_orientMir_180.png","fearful",1,10,10,"turbo","orientMir","scaleRev","180",NA,NA
"","","","","","html-slider-response",48,167245,"0.0-40.0","u8gs7ppzj2",31,NA,"<div style=""width:500px;"">
                            <p style=""font-size:50px; font-weight:bold;""
                            >fearful</p>
                            <div style=""width:240px; margin: auto;"">
                                <img src=""images/map05_RdYlBu_scaleDef_orientDef_090.png"" style= ""width:200px""alt=""img"">
                            </div>
                        </div>",0.3025,"",0,"",NA,"","images/map05_RdYlBu_scaleDef_orientDef_090.png","fearful",1,5,5,"RdYlBu","orientDef","scaleDef","090",NA,NA
"","","","","","html-slider-response",49,169062,"0.0-41.0","u8gs7ppzj2",31,NA,"<div style=""width:500px;"">
                            <p style=""font-size:50px; font-weight:bold;""
                            >fearful</p>
                            <div style=""width:240px; margin: auto;"">
                                <img src=""images/map26_PuBu_scaleDef_orientDef_270.png"" style= ""width:200px""alt=""img"">
                            </div>
                        </div>",0,"",0,"",NA,"","images/map26_PuBu_scaleDef_orientDef_270.png","fearful",1,26,26,"PuBu","orientDef","scaleDef","270",NA,NA
"","","","","","html-slider-response",50,170809,"0.0-42.0","u8gs7ppzj2",31,NA,"<div style=""width:500px;"">
                            <p style=""font-size:50px; font-weight:bold;""
                            >fearful</p>
                            <div style=""width:240px; margin: auto;"">
                                <img src=""images/map02_RdGy_scaleRev_orientMir_180.png"" style= ""width:200px""alt=""img"">
                            </div>
                        </div>",0.545,"",0,"",NA,"","images/map02_RdGy_scaleRev_orientMir_180.png","fearful",1,2,2,"RdGy","orientMir","scaleRev","180",NA,NA
"","","","","","html-slider-response",51,172460,"0.0-43.0","u8gs7ppzj2",31,NA,"<div style=""width:500px;"">
                            <p style=""font-size:50px; font-weight:bold;""
                            >fearful</p>
                            <div style=""width:240px; margin: auto;"">
                                <img src=""images/map15_Reds_scaleDef_orientDef_270.png"" style= ""width:200px""alt=""img"">
                            </div>
                        </div>",0.775,"",0,"",NA,"","images/map15_Reds_scaleDef_orientDef_270.png","fearful",1,15,15,"Reds","orientDef","scaleDef","270",NA,NA
"","","","","","html-slider-response",52,174427,"0.0-44.0","u8gs7ppzj2",31,NA,"<div style=""width:500px;"">
                            <p style=""font-size:50px; font-weight:bold;""
                            >fearful</p>
                            <div style=""width:240px; margin: auto;"">
                                <img src=""images/map15_YlOrBr_scaleDef_orientMir_090.png"" style= ""width:200px""alt=""img"">
                            </div>
                        </div>",0.3875,"",0,"",NA,"","images/map15_YlOrBr_scaleDef_orientMir_090.png","fearful",1,15,15,"YlOrBr","orientMir","scaleDef","090",NA,NA
"","","","","","html-slider-response",53,176027,"0.0-45.0","u8gs7ppzj2",31,NA,"<div style=""width:500px;"">
                            <p style=""font-size:50px; font-weight:bold;""
                            >fearful</p>
                            <div style=""width:240px; margin: auto;"">
                                <img src=""images/map05_Spectral_scaleDef_orientMir_090.png"" style= ""width:200px""alt=""img"">
                            </div>
                        </div>",0.5175,"",0,"",NA,"","images/map05_Spectral_scaleDef_orientMir_090.png","fearful",1,5,5,"Spectral","orientMir","scaleDef","090",NA,NA
"","","","","","html-slider-response",54,177660,"0.0-46.0","u8gs7ppzj2",31,NA,"<div style=""width:500px;"">
                            <p style=""font-size:50px; font-weight:bold;""
                            >fearful</p>
                            <div style=""width:240px; margin: auto;"">
                                <img src=""images/map02_RdGy_scaleDef_orientMir_090.png"" style= ""width:200px""alt=""img"">
                            </div>
                        </div>",0.705,"",0,"",NA,"","images/map02_RdGy_scaleDef_orientMir_090.png","fearful",1,2,2,"RdGy","orientMir","scaleDef","090",NA,NA
"","","","","","html-slider-response",55,179311,"0.0-47.0","u8gs7ppzj2",31,NA,"<div style=""width:500px;"">
                            <p style=""font-size:50px; font-weight:bold;""
                            >fearful</p>
                            <div style=""width:240px; margin: auto;"">
                                <img src=""images/map27_YlGn_scaleRev_orientMir_000.png"" style= ""width:200px""alt=""img"">
                            </div>
                        </div>",0.59,"",0,"",NA,"","images/map27_YlGn_scaleRev_orientMir_000.png","fearful",1,27,27,"YlGn","orientMir","scaleRev","000",NA,NA
"","","","","","html-slider-response",56,180860,"0.0-48.0","u8gs7ppzj2",31,NA,"<div style=""width:500px;"">
                            <p style=""font-size:50px; font-weight:bold;""
                            >fearful</p>
                            <div style=""width:240px; margin: auto;"">
                                <img src=""images/map05_RdYlBu_scaleRev_orientDef_180.png"" style= ""width:200px""alt=""img"">
                            </div>
                        </div>",0.0775,"",0,"",NA,"","images/map05_RdYlBu_scaleRev_orientDef_180.png","fearful",1,5,5,"RdYlBu","orientDef","scaleRev","180",NA,NA
"","","","","","html-slider-response",57,183393,"0.0-49.0","u8gs7ppzj2",31,NA,"<div style=""width:500px;"">
                            <p style=""font-size:50px; font-weight:bold;""
                            >fearful</p>
                            <div style=""width:240px; margin: auto;"">
                                <img src=""images/map10_gist_earth_scaleRev_orientMir_000.png"" style= ""width:200px""alt=""img"">
                            </div>
                        </div>",0.57,"",0,"",NA,"","images/map10_gist_earth_scaleRev_orientMir_000.png","fearful",1,10,10,"gist","scaleRev","earth","orientMir",NA,NA
"","","","","","html-slider-response",58,184944,"0.0-50.0","u8gs7ppzj2",31,NA,"<div style=""width:500px;"">
                            <p style=""font-size:50px; font-weight:bold;""
                            >fearful</p>
                            <div style=""width:240px; margin: auto;"">
                                <img src=""images/map02_BrBG_scaleRev_orientDef_180.png"" style= ""width:200px""alt=""img"">
                            </div>
                        </div>",0.62,"",0,"",NA,"","images/map02_BrBG_scaleRev_orientDef_180.png","fearful",1,2,2,"BrBG","orientDef","scaleRev","180",NA,NA
"","","","","","html-slider-response",59,187111,"0.0-51.0","u8gs7ppzj2",31,NA,"<div style=""width:500px;"">
                            <p style=""font-size:50px; font-weight:bold;""
                            >fearful</p>
                            <div style=""width:240px; margin: auto;"">
                                <img src=""images/map27_PiYG_scaleRev_orientMir_180.png"" style= ""width:200px""alt=""img"">
                            </div>
                        </div>",0.585,"",0,"",NA,"","images/map27_PiYG_scaleRev_orientMir_180.png","fearful",1,27,27,"PiYG","orientMir","scaleRev","180",NA,NA
"","","","","","html-slider-response",60,188561,"0.0-52.0","u8gs7ppzj2",31,NA,"<div style=""width:500px;"">
                            <p style=""font-size:50px; font-weight:bold;""
                            >fearful</p>
                            <div style=""width:240px; margin: auto;"">
                                <img src=""images/map10_viridis_scaleDef_orientMir_270.png"" style= ""width:200px""alt=""img"">
                            </div>
                        </div>",0.595,"",0,"",NA,"","images/map10_viridis_scaleDef_orientMir_270.png","fearful",1,10,10,"viridis","orientMir","scaleDef","270",NA,NA
"","","","","","html-slider-response",61,192810,"0.0-53.0","u8gs7ppzj2",31,NA,"<div style=""width:500px;"">
                            <p style=""font-size:50px; font-weight:bold;""
                            >fearful</p>
                            <div style=""width:240px; margin: auto;"">
                                <img src=""images/map07_bwr_scaleDef_orientDef_090.png"" style= ""width:200px""alt=""img"">
                            </div>
                        </div>",0.57,"",0,"",NA,"","images/map07_bwr_scaleDef_orientDef_090.png","fearful",1,7,7,"bwr","orientDef","scaleDef","090",NA,NA
"","","","","","html-button-response",62,194266,"0.0-54.0","u8gs7ppzj2",31,954,"<p>You are doing great!<br></br> You are halway done with the current block. When you are ready to continue, click the 'Continue' button.</p>",0.5,"",NA,"",NA,"","","",NA,NA,NA,"","","","",NA,NA
"","","","","","html-slider-response",63,196060,"0.0-55.0","u8gs7ppzj2",31,NA,"<div style=""width:500px;"">
                            <p style=""font-size:50px; font-weight:bold;""
                            >fearful</p>
                            <div style=""width:240px; margin: auto;"">
                                <img src=""images/map27_PiYG_scaleDef_orientMir_090.png"" style= ""width:200px""alt=""img"">
                            </div>
                        </div>",0.6025,"",0,"",NA,"","images/map27_PiYG_scaleDef_orientMir_090.png","fearful",1,27,27,"PiYG","orientMir","scaleDef","090",NA,NA
"","","","","","html-slider-response",64,198261,"0.0-56.0","u8gs7ppzj2",31,NA,"<div style=""width:500px;"">
                            <p style=""font-size:50px; font-weight:bold;""
                            >fearful</p>
                            <div style=""width:240px; margin: auto;"">
                                <img src=""images/map26_GnBu_scaleDef_orientDef_090.png"" style= ""width:200px""alt=""img"">
                            </div>
                        </div>",0,"",0,"",NA,"","images/map26_GnBu_scaleDef_orientDef_090.png","fearful",1,26,26,"GnBu","orientDef","scaleDef","090",NA,NA
"","","","","","html-slider-response",65,203710,"0.0-57.0","u8gs7ppzj2",31,NA,"<div style=""width:500px;"">
                            <p style=""font-size:50px; font-weight:bold;""
                            >fearful</p>
                            <div style=""width:240px; margin: auto;"">
                                <img src=""images/map13_cividis_scaleRev_orientDef_000.png"" style= ""width:200px""alt=""img"">
                            </div>
                        </div>",0,"",0,"",NA,"","images/map13_cividis_scaleRev_orientDef_000.png","fearful",1,13,13,"cividis","orientDef","scaleRev","000",NA,NA
"","","","","","html-slider-response",66,207460,"0.0-58.0","u8gs7ppzj2",31,NA,"<div style=""width:500px;"">
                            <p style=""font-size:50px; font-weight:bold;""
                            >fearful</p>
                            <div style=""width:240px; margin: auto;"">
                                <img src=""images/map23_YlOrRd_scaleRev_orientDef_000.png"" style= ""width:200px""alt=""img"">
                            </div>
                        </div>",0.6675,"",0,"",NA,"","images/map23_YlOrRd_scaleRev_orientDef_000.png","fearful",1,23,23,"YlOrRd","orientDef","scaleRev","000",NA,NA
"","","","","","html-slider-response",67,208593,"0.0-59.0","u8gs7ppzj2",31,NA,"<div style=""width:500px;"">
                            <p style=""font-size:50px; font-weight:bold;""
                            >fearful</p>
                            <div style=""width:240px; margin: auto;"">
                                <img src=""images/map07_coolwarm_scaleRev_orientDef_000.png"" style= ""width:200px""alt=""img"">
                            </div>
                        </div>",0.615,"",0,"",NA,"","images/map07_coolwarm_scaleRev_orientDef_000.png","fearful",1,7,7,"coolwarm","orientDef","scaleRev","000",NA,NA
"","","","","","html-slider-response",68,209643,"0.0-60.0","u8gs7ppzj2",31,NA,"<div style=""width:500px;"">
                            <p style=""font-size:50px; font-weight:bold;""
                            >fearful</p>
                            <div style=""width:240px; margin: auto;"">
                                <img src=""images/map07_berlin_scaleDef_orientMir_090.png"" style= ""width:200px""alt=""img"">
                            </div>
                        </div>",0.5275,"",0,"",NA,"","images/map07_berlin_scaleDef_orientMir_090.png","fearful",1,7,7,"berlin","orientMir","scaleDef","090",NA,NA
"","","","","","html-slider-response",69,210743,"0.0-61.0","u8gs7ppzj2",31,NA,"<div style=""width:500px;"">
                            <p style=""font-size:50px; font-weight:bold;""
                            >fearful</p>
                            <div style=""width:240px; margin: auto;"">
                                <img src=""images/map12_inferno_scaleDef_orientDef_270.png"" style= ""width:200px""alt=""img"">
                            </div>
                        </div>",0.615,"",0,"",NA,"","images/map12_inferno_scaleDef_orientDef_270.png","fearful",1,12,12,"inferno","orientDef","scaleDef","270",NA,NA
"","","","","","html-slider-response",70,211926,"0.0-62.0","u8gs7ppzj2",31,NA,"<div style=""width:500px;"">
                            <p style=""font-size:50px; font-weight:bold;""
                            >fearful</p>
                            <div style=""width:240px; margin: auto;"">
                                <img src=""images/map23_RdPu_scaleDef_orientMir_090.png"" style= ""width:200px""alt=""img"">
                            </div>
                        </div>",0.645,"",0,"",NA,"","images/map23_RdPu_scaleDef_orientMir_090.png","fearful",1,23,23,"RdPu","orientMir","scaleDef","090",NA,NA
"","","","","","html-slider-response",71,212993,"0.0-63.0","u8gs7ppzj2",31,NA,"<div style=""width:500px;"">
                            <p style=""font-size:50px; font-weight:bold;""
                            >fearful</p>
                            <div style=""width:240px; margin: auto;"">
                                <img src=""images/map23_PuRd_scaleDef_orientDef_270.png"" style= ""width:200px""alt=""img"">
                            </div>
                        </div>",0.65,"",0,"",NA,"","images/map23_PuRd_scaleDef_orientDef_270.png","fearful",1,23,23,"PuRd","orientDef","scaleDef","270",NA,NA
"","","","","","html-slider-response",72,213976,"0.0-64.0","u8gs7ppzj2",31,NA,"<div style=""width:500px;"">
                            <p style=""font-size:50px; font-weight:bold;""
                            >fearful</p>
                            <div style=""width:240px; margin: auto;"">
                                <img src=""images/map10_managua_scaleRev_orientDef_000.png"" style= ""width:200px""alt=""img"">
                            </div>
                        </div>",0.805,"",0,"",NA,"","images/map10_managua_scaleRev_orientDef_000.png","fearful",1,10,10,"managua","orientDef","scaleRev","000",NA,NA
"","","","","","html-slider-response",73,214831,"0.0-65.0","u8gs7ppzj2",31,NA,"<div style=""width:500px;"">
                            <p style=""font-size:50px; font-weight:bold;""
                            >fearful</p>
                            <div style=""width:240px; margin: auto;"">
                                <img src=""images/map12_plasma_scaleRev_orientDef_180.png"" style= ""width:200px""alt=""img"">
                            </div>
                        </div>",0.87,"",0,"",NA,"","images/map12_plasma_scaleRev_orientDef_180.png","fearful",1,12,12,"plasma","orientDef","scaleRev","180",NA,NA
"","","","","","html-slider-response",74,216294,"0.0-66.0","u8gs7ppzj2",31,NA,"<div style=""width:500px;"">
                            <p style=""font-size:50px; font-weight:bold;""
                            >fearful</p>
                            <div style=""width:240px; margin: auto;"">
                                <img src=""images/map13_Purples_scaleDef_orientDef_270.png"" style= ""width:200px""alt=""img"">
                            </div>
                        </div>",0.9575,"",0,"",NA,"","images/map13_Purples_scaleDef_orientDef_270.png","fearful",1,13,13,"Purples","orientDef","scaleDef","270",NA,NA
"","","","","","html-slider-response",75,218060,"0.0-67.0","u8gs7ppzj2",31,NA,"<div style=""width:500px;"">
                            <p style=""font-size:50px; font-weight:bold;""
                            >fearful</p>
                            <div style=""width:240px; margin: auto;"">
                                <img src=""images/map15_Reds_scaleRev_orientMir_000.png"" style= ""width:200px""alt=""img"">
                            </div>
                        </div>",0.945,"",0,"",NA,"","images/map15_Reds_scaleRev_orientMir_000.png","fearful",1,15,15,"Reds","orientMir","scaleRev","000",NA,NA
"","","","","","html-slider-response",76,219662,"0.0-68.0","u8gs7ppzj2",31,NA,"<div style=""width:500px;"">
                            <p style=""font-size:50px; font-weight:bold;""
                            >fearful</p>
                            <div style=""width:240px; margin: auto;"">
                                <img src=""images/map26_BuPu_scaleRev_orientDef_000.png"" style= ""width:200px""alt=""img"">
                            </div>
                        </div>",0.405,"",0,"",NA,"","images/map26_BuPu_scaleRev_orientDef_000.png","fearful",1,26,26,"BuPu","orientDef","scaleRev","000",NA,NA
"","","","","","html-slider-response",77,221114,"0.0-69.0","u8gs7ppzj2",31,NA,"<div style=""width:500px;"">
                            <p style=""font-size:50px; font-weight:bold;""
                            >fearful</p>
                            <div style=""width:240px; margin: auto;"">
                                <img src=""images/map05_RdYlGn_scaleRev_orientMir_000.png"" style= ""width:200px""alt=""img"">
                            </div>
                        </div>",0.745,"",0,"",NA,"","images/map05_RdYlGn_scaleRev_orientMir_000.png","fearful",1,5,5,"RdYlGn","orientMir","scaleRev","000",NA,NA
"","","","","","html-slider-response",78,222545,"0.0-70.0","u8gs7ppzj2",31,NA,"<div style=""width:500px;"">
                            <p style=""font-size:50px; font-weight:bold;""
                            >fearful</p>
                            <div style=""width:240px; margin: auto;"">
                                <img src=""images/map15_Oranges_scaleDef_orientDef_090.png"" style= ""width:200px""alt=""img"">
                            </div>
                        </div>",0.8225,"",0,"",NA,"","images/map15_Oranges_scaleDef_orientDef_090.png","fearful",1,15,15,"Oranges","orientDef","scaleDef","090",NA,NA
"","","","","","html-slider-response",79,225428,"0.0-71.0","u8gs7ppzj2",31,NA,"<div style=""width:500px;"">
                            <p style=""font-size:50px; font-weight:bold;""
                            >fearful</p>
                            <div style=""width:240px; margin: auto;"">
                                <img src=""images/map27_PuBuGn_scaleRev_orientDef_000.png"" style= ""width:200px""alt=""img"">
                            </div>
                        </div>",0,"",0,"",NA,"","images/map27_PuBuGn_scaleRev_orientDef_000.png","fearful",1,27,27,"PuBuGn","orientDef","scaleRev","000",NA,NA
"","","","","","html-slider-response",80,226577,"0.0-72.0","u8gs7ppzj2",31,NA,"<div style=""width:500px;"">
                            <p style=""font-size:50px; font-weight:bold;""
                            >fearful</p>
                            <div style=""width:240px; margin: auto;"">
                                <img src=""images/map26_YlGnBu_scaleDef_orientMir_090.png"" style= ""width:200px""alt=""img"">
                            </div>
                        </div>",0.605,"",0,"",NA,"","images/map26_YlGnBu_scaleDef_orientMir_090.png","fearful",1,26,26,"YlGnBu","orientMir","scaleDef","090",NA,NA
"","","","","","html-slider-response",81,227809,"0.0-73.0","u8gs7ppzj2",31,NA,"<div style=""width:500px;"">
                            <p style=""font-size:50px; font-weight:bold;""
                            >fearful</p>
                            <div style=""width:240px; margin: auto;"">
                                <img src=""images/map13_Purples_scaleRev_orientMir_000.png"" style= ""width:200px""alt=""img"">
                            </div>
                        </div>",0.5825,"",0,"",NA,"","images/map13_Purples_scaleRev_orientMir_000.png","fearful",1,13,13,"Purples","orientMir","scaleRev","000",NA,NA
"","","","","","html-slider-response",82,228976,"0.0-74.0","u8gs7ppzj2",31,NA,"<div style=""width:500px;"">
                            <p style=""font-size:50px; font-weight:bold;""
                            >fearful</p>
                            <div style=""width:240px; margin: auto;"">
                                <img src=""images/map12_magma_scaleDef_orientMir_090.png"" style= ""width:200px""alt=""img"">
                            </div>
                        </div>",0.6,"",0,"",NA,"","images/map12_magma_scaleDef_orientMir_090.png","fearful",1,12,12,"magma","orientMir","scaleDef","090",NA,NA
"","","","","","html-slider-response",83,229947,"0.0-75.0","u8gs7ppzj2",31,NA,"<div style=""width:500px;"">
                            <p style=""font-size:50px; font-weight:bold;""
                            >fearful</p>
                            <div style=""width:240px; margin: auto;"">
                                <img src=""images/map12_cividis_scaleDef_orientMir_270.png"" style= ""width:200px""alt=""img"">
                            </div>
                        </div>",0.6475,"",0,"",NA,"","images/map12_cividis_scaleDef_orientMir_270.png","fearful",1,12,12,"cividis","orientMir","scaleDef","270",NA,NA
"","","","","","html-slider-response",84,230946,"0.0-76.0","u8gs7ppzj2",31,NA,"<div style=""width:500px;"">
                            <p style=""font-size:50px; font-weight:bold;""
                            >fearful</p>
                            <div style=""width:240px; margin: auto;"">
                                <img src=""images/map15_Greens_scaleRev_orientDef_000.png"" style= ""width:200px""alt=""img"">
                            </div>
                        </div>",0.6725,"",0,"",NA,"","images/map15_Greens_scaleRev_orientDef_000.png","fearful",1,15,15,"Greens","orientDef","scaleRev","000",NA,NA
"","","","","","html-slider-response",85,231830,"0.0-77.0","u8gs7ppzj2",31,NA,"<div style=""width:500px;"">
                            <p style=""font-size:50px; font-weight:bold;""
                            >fearful</p>
                            <div style=""width:240px; margin: auto;"">
                                <img src=""images/map02_PRGn_scaleRev_orientDef_000.png"" style= ""width:200px""alt=""img"">
                            </div>
                        </div>",0.6525,"",0,"",NA,"","images/map02_PRGn_scaleRev_orientDef_000.png","fearful",1,2,2,"PRGn","orientDef","scaleRev","000",NA,NA
"","","","","","html-slider-response",86,233110,"0.0-78.0","u8gs7ppzj2",31,NA,"<div style=""width:500px;"">
                            <p style=""font-size:50px; font-weight:bold;""
                            >fearful</p>
                            <div style=""width:240px; margin: auto;"">
                                <img src=""images/map05_RdYlGn_scaleDef_orientDef_270.png"" style= ""width:200px""alt=""img"">
                            </div>
                        </div>",0.1625,"",0,"",NA,"","images/map05_RdYlGn_scaleDef_orientDef_270.png","fearful",1,5,5,"RdYlGn","orientDef","scaleDef","270",NA,NA
"","","","","","html-slider-response",87,234526,"0.0-79.0","u8gs7ppzj2",31,NA,"<div style=""width:500px;"">
                            <p style=""font-size:50px; font-weight:bold;""
                            >fearful</p>
                            <div style=""width:240px; margin: auto;"">
                                <img src=""images/map15_Oranges_scaleRev_orientDef_180.png"" style= ""width:200px""alt=""img"">
                            </div>
                        </div>",0.575,"",0,"",NA,"","images/map15_Oranges_scaleRev_orientDef_180.png","fearful",1,15,15,"Oranges","orientDef","scaleRev","180",NA,NA
"","","","","","html-slider-response",88,235844,"0.0-80.0","u8gs7ppzj2",31,NA,"<div style=""width:500px;"">
                            <p style=""font-size:50px; font-weight:bold;""
                            >fearful</p>
                            <div style=""width:240px; margin: auto;"">
                                <img src=""images/map26_PuBuGn_scaleDef_orientMir_270.png"" style= ""width:200px""alt=""img"">
                            </div>
                        </div>",0,"",0,"",NA,"","images/map26_PuBuGn_scaleDef_orientMir_270.png","fearful",1,26,26,"PuBuGn","orientMir","scaleDef","270",NA,NA
"","","","","","html-slider-response",89,237693,"0.0-81.0","u8gs7ppzj2",31,NA,"<div style=""width:500px;"">
                            <p style=""font-size:50px; font-weight:bold;""
                            >fearful</p>
                            <div style=""width:240px; margin: auto;"">
                                <img src=""images/map23_BuPu_scaleDef_orientMir_270.png"" style= ""width:200px""alt=""img"">
                            </div>
                        </div>",0,"",0,"",NA,"","images/map23_BuPu_scaleDef_orientMir_270.png","fearful",1,23,23,"BuPu","orientMir","scaleDef","270",NA,NA
"","","","","","html-slider-response",90,240059,"0.0-82.0","u8gs7ppzj2",31,NA,"<div style=""width:500px;"">
                            <p style=""font-size:50px; font-weight:bold;""
                            >fearful</p>
                            <div style=""width:240px; margin: auto;"">
                                <img src=""images/map05_RdBu_scaleRev_orientDef_000.png"" style= ""width:200px""alt=""img"">
                            </div>
                        </div>",0.545,"",0,"",NA,"","images/map05_RdBu_scaleRev_orientDef_000.png","fearful",1,5,5,"RdBu","orientDef","scaleRev","000",NA,NA
"","","","","","html-slider-response",91,241694,"0.0-83.0","u8gs7ppzj2",31,NA,"<div style=""width:500px;"">
                            <p style=""font-size:50px; font-weight:bold;""
                            >fearful</p>
                            <div style=""width:240px; margin: auto;"">
                                <img src=""images/map27_PRGn_scaleDef_orientMir_270.png"" style= ""width:200px""alt=""img"">
                            </div>
                        </div>",0,"",0,"",NA,"","images/map27_PRGn_scaleDef_orientMir_270.png","fearful",1,27,27,"PRGn","orientMir","scaleDef","270",NA,NA
"","","","","","html-slider-response",92,243260,"0.0-84.0","u8gs7ppzj2",31,NA,"<div style=""width:500px;"">
                            <p style=""font-size:50px; font-weight:bold;""
                            >fearful</p>
                            <div style=""width:240px; margin: auto;"">
                                <img src=""images/map23_PuRd_scaleRev_orientMir_000.png"" style= ""width:200px""alt=""img"">
                            </div>
                        </div>",0.6275,"",0,"",NA,"","images/map23_PuRd_scaleRev_orientMir_000.png","fearful",1,23,23,"PuRd","orientMir","scaleRev","000",NA,NA
"","","","","","html-slider-response",93,244926,"0.0-85.0","u8gs7ppzj2",31,NA,"<div style=""width:500px;"">
                            <p style=""font-size:50px; font-weight:bold;""
                            >fearful</p>
                            <div style=""width:240px; margin: auto;"">
                                <img src=""images/map13_Greys_scaleDef_orientDef_090.png"" style= ""width:200px""alt=""img"">
                            </div>
                        </div>",0.205,"",0,"",NA,"","images/map13_Greys_scaleDef_orientDef_090.png","fearful",1,13,13,"Greys","orientDef","scaleDef","090",NA,NA
"","","","","","html-slider-response",94,246376,"0.0-86.0","u8gs7ppzj2",31,NA,"<div style=""width:500px;"">
                            <p style=""font-size:50px; font-weight:bold;""
                            >fearful</p>
                            <div style=""width:240px; margin: auto;"">
                                <img src=""images/map07_berlin_scaleRev_orientMir_180.png"" style= ""width:200px""alt=""img"">
                            </div>
                        </div>",0.55,"",0,"",NA,"","images/map07_berlin_scaleRev_orientMir_180.png","fearful",1,7,7,"berlin","orientMir","scaleRev","180",NA,NA
"","","","","","html-slider-response",95,248160,"0.0-87.0","u8gs7ppzj2",31,NA,"<div style=""width:500px;"">
                            <p style=""font-size:50px; font-weight:bold;""
                            >fearful</p>
                            <div style=""width:240px; margin: auto;"">
                                <img src=""images/map05_Spectral_scaleRev_orientMir_180.png"" style= ""width:200px""alt=""img"">
                            </div>
                        </div>",0.8175,"",0,"",NA,"","images/map05_Spectral_scaleRev_orientMir_180.png","fearful",1,5,5,"Spectral","orientMir","scaleRev","180",NA,NA
"","","","","","html-slider-response",96,249676,"0.0-88.0","u8gs7ppzj2",31,NA,"<div style=""width:500px;"">
                            <p style=""font-size:50px; font-weight:bold;""
                            >fearful</p>
                            <div style=""width:240px; margin: auto;"">
                                <img src=""images/map15_YlOrBr_scaleRev_orientMir_180.png"" style= ""width:200px""alt=""img"">
                            </div>
                        </div>",0.5925,"",0,"",NA,"","images/map15_YlOrBr_scaleRev_orientMir_180.png","fearful",1,15,15,"YlOrBr","orientMir","scaleRev","180",NA,NA
"","","","","","html-slider-response",97,251460,"0.0-89.0","u8gs7ppzj2",31,NA,"<div style=""width:500px;"">
                            <p style=""font-size:50px; font-weight:bold;""
                            >fearful</p>
                            <div style=""width:240px; margin: auto;"">
                                <img src=""images/map07_managua_scaleDef_orientMir_270.png"" style= ""width:200px""alt=""img"">
                            </div>
                        </div>",0.655,"",0,"",NA,"","images/map07_managua_scaleDef_orientMir_270.png","fearful",1,7,7,"managua","orientMir","scaleDef","270",NA,NA
"","","","","","html-slider-response",98,252909,"0.0-90.0","u8gs7ppzj2",31,NA,"<div style=""width:500px;"">
                            <p style=""font-size:50px; font-weight:bold;""
                            >fearful</p>
                            <div style=""width:240px; margin: auto;"">
                                <img src=""images/map02_PuOr_scaleRev_orientMir_000.png"" style= ""width:200px""alt=""img"">
                            </div>
                        </div>",0.655,"",0,"",NA,"","images/map02_PuOr_scaleRev_orientMir_000.png","fearful",1,2,2,"PuOr","orientMir","scaleRev","000",NA,NA
"","","","","","html-slider-response",99,254493,"0.0-91.0","u8gs7ppzj2",31,NA,"<div style=""width:500px;"">
                            <p style=""font-size:50px; font-weight:bold;""
                            >fearful</p>
                            <div style=""width:240px; margin: auto;"">
                                <img src=""images/map07_seismic_scaleDef_orientDef_270.png"" style= ""width:200px""alt=""img"">
                            </div>
                        </div>",0.72,"",0,"",NA,"","images/map07_seismic_scaleDef_orientDef_270.png","fearful",1,7,7,"seismic","orientDef","scaleDef","270",NA,NA
"","","","","","html-slider-response",100,257043,"0.0-92.0","u8gs7ppzj2",31,NA,"<div style=""width:500px;"">
                            <p style=""font-size:50px; font-weight:bold;""
                            >fearful</p>
                            <div style=""width:240px; margin: auto;"">
                                <img src=""images/map10_vanimo_scaleRev_orientDef_180.png"" style= ""width:200px""alt=""img"">
                            </div>
                        </div>",0.685,"",0,"",NA,"","images/map10_vanimo_scaleRev_orientDef_180.png","fearful",1,10,10,"vanimo","orientDef","scaleRev","180",NA,NA
"","","","","","html-slider-response",101,259160,"0.0-93.0","u8gs7ppzj2",31,NA,"<div style=""width:500px;"">
                            <p style=""font-size:50px; font-weight:bold;""
                            >fearful</p>
                            <div style=""width:240px; margin: auto;"">
                                <img src=""images/map26_GnBu_scaleRev_orientDef_180.png"" style= ""width:200px""alt=""img"">
                            </div>
                        </div>",0,"",0,"",NA,"","images/map26_GnBu_scaleRev_orientDef_180.png","fearful",1,26,26,"GnBu","orientDef","scaleRev","180",NA,NA
"","","","","","html-slider-response",102,261910,"0.0-94.0","u8gs7ppzj2",31,NA,"<div style=""width:500px;"">
                            <p style=""font-size:50px; font-weight:bold;""
                            >fearful</p>
                            <div style=""width:240px; margin: auto;"">
                                <img src=""images/map10_gist_earth_scaleDef_orientDef_270.png"" style= ""width:200px""alt=""img"">
                            </div>
                        </div>",0.765,"",0,"",NA,"","images/map10_gist_earth_scaleDef_orientDef_270.png","fearful",1,10,10,"gist","scaleDef","earth","orientDef",NA,NA
"","","","","","html-button-response",103,264733,"0.0-95.0","u8gs7ppzj2",31,2319,"<p>Great Job! You've finished block 1.<br></br> You have 4 block(s) left to go.<br></br></p>",0.5,"",NA,"",NA,"","","",NA,NA,NA,"","","","",NA,NA
"","","","","","html-button-response",104,265799,"0.0-96.0","u8gs7ppzj2",31,1065,"<p>In this block of trials, you will be asked to rate how much you associate each map with:</p > <p style = 'font-size:150%; font-weight: bold'>happy</p><br></br>",0.5,"",NA,"",NA,"","","",NA,NA,NA,"","","","",NA,NA
"","","","","","html-slider-response",105,269127,"0.0-97.0","u8gs7ppzj2",31,NA,"<div style=""width:500px;"">
                            <p style=""font-size:50px; font-weight:bold;""
                            >happy</p>
                            <div style=""width:240px; margin: auto;"">
                                <img src=""images/map27_PiYG_scaleRev_orientMir_180.png"" style= ""width:200px""alt=""img"">
                            </div>
                        </div>",0.3575,"",0,"",NA,"","images/map27_PiYG_scaleRev_orientMir_180.png","happy",1,27,27,"PiYG","orientMir","scaleRev","180",NA,NA
"","","","","","html-slider-response",106,270943,"0.0-98.0","u8gs7ppzj2",31,NA,"<div style=""width:500px;"">
                            <p style=""font-size:50px; font-weight:bold;""
                            >happy</p>
                            <div style=""width:240px; margin: auto;"">
                                <img src=""images/map07_managua_scaleDef_orientMir_270.png"" style= ""width:200px""alt=""img"">
                            </div>
                        </div>",0.28,"",0,"",NA,"","images/map07_managua_scaleDef_orientMir_270.png","happy",1,7,7,"managua","orientMir","scaleDef","270",NA,NA
"","","","","","html-slider-response",107,274776,"0.0-99.0","u8gs7ppzj2",31,NA,"<div style=""width:500px;"">
                            <p style=""font-size:50px; font-weight:bold;""
                            >happy</p>
                            <div style=""width:240px; margin: auto;"">
                                <img src=""images/map27_BuGn_scaleRev_orientDef_180.png"" style= ""width:200px""alt=""img"">
                            </div>
                        </div>",0.375,"",0,"",NA,"","images/map27_BuGn_scaleRev_orientDef_180.png","happy",1,27,27,"BuGn","orientDef","scaleRev","180",NA,NA
"","","","","","html-slider-response",108,276459,"0.0-100.0","u8gs7ppzj2",31,NA,"<div style=""width:500px;"">
                            <p style=""font-size:50px; font-weight:bold;""
                            >happy</p>
                            <div style=""width:240px; margin: auto;"">
                                <img src=""images/map07_bwr_scaleRev_orientDef_180.png"" style= ""width:200px""alt=""img"">
                            </div>
                        </div>",0.2625,"",0,"",NA,"","images/map07_bwr_scaleRev_orientDef_180.png","happy",1,7,7,"bwr","orientDef","scaleRev","180",NA,NA
"","","","","","html-slider-response",109,278010,"0.0-101.0","u8gs7ppzj2",31,NA,"<div style=""width:500px;"">
                            <p style=""font-size:50px; font-weight:bold;""
                            >happy</p>
                            <div style=""width:240px; margin: auto;"">
                                <img src=""images/map23_RdPu_scaleRev_orientMir_180.png"" style= ""width:200px""alt=""img"">
                            </div>
                        </div>",0.255,"",0,"",NA,"","images/map23_RdPu_scaleRev_orientMir_180.png","happy",1,23,23,"RdPu","orientMir","scaleRev","180",NA,NA
"","","","","","html-slider-response",110,279344,"0.0-102.0","u8gs7ppzj2",31,NA,"<div style=""width:500px;"">
                            <p style=""font-size:50px; font-weight:bold;""
                            >happy</p>
                            <div style=""width:240px; margin: auto;"">
                                <img src=""images/map10_vanimo_scaleDef_orientDef_090.png"" style= ""width:200px""alt=""img"">
                            </div>
                        </div>",0.185,"",0,"",NA,"","images/map10_vanimo_scaleDef_orientDef_090.png","happy",1,10,10,"vanimo","orientDef","scaleDef","090",NA,NA
"","","","","","html-slider-response",111,280960,"0.0-103.0","u8gs7ppzj2",31,NA,"<div style=""width:500px;"">
                            <p style=""font-size:50px; font-weight:bold;""
                            >happy</p>
                            <div style=""width:240px; margin: auto;"">
                                <img src=""images/map02_RdGy_scaleDef_orientMir_090.png"" style= ""width:200px""alt=""img"">
                            </div>
                        </div>",0.1625,"",0,"",NA,"","images/map02_RdGy_scaleDef_orientMir_090.png","happy",1,2,2,"RdGy","orientMir","scaleDef","090",NA,NA
"","","","","","html-slider-response",112,282210,"0.0-104.0","u8gs7ppzj2",31,NA,"<div style=""width:500px;"">
                            <p style=""font-size:50px; font-weight:bold;""
                            >happy</p>
                            <div style=""width:240px; margin: auto;"">
                                <img src=""images/map27_PRGn_scaleDef_orientMir_270.png"" style= ""width:200px""alt=""img"">
                            </div>
                        </div>",0.19,"",0,"",NA,"","images/map27_PRGn_scaleDef_orientMir_270.png","happy",1,27,27,"PRGn","orientMir","scaleDef","270",NA,NA
"","","","","","html-slider-response",113,284310,"0.0-105.0","u8gs7ppzj2",31,NA,"<div style=""width:500px;"">
                            <p style=""font-size:50px; font-weight:bold;""
                            >happy</p>
                            <div style=""width:240px; margin: auto;"">
                                <img src=""images/map05_RdYlGn_scaleRev_orientMir_000.png"" style= ""width:200px""alt=""img"">
                            </div>
                        </div>",0.0375,"",0,"",NA,"","images/map05_RdYlGn_scaleRev_orientMir_000.png","happy",1,5,5,"RdYlGn","orientMir","scaleRev","000",NA,NA
"","","","","","html-slider-response",114,286243,"0.0-106.0","u8gs7ppzj2",31,NA,"<div style=""width:500px;"">
                            <p style=""font-size:50px; font-weight:bold;""
                            >happy</p>
                            <div style=""width:240px; margin: auto;"">
                                <img src=""images/map05_Spectral_scaleDef_orientMir_090.png"" style= ""width:200px""alt=""img"">
                            </div>
                        </div>",0.14,"",0,"",NA,"","images/map05_Spectral_scaleDef_orientMir_090.png","happy",1,5,5,"Spectral","orientMir","scaleDef","090",NA,NA
"","","","","","html-slider-response",115,288077,"0.0-107.0","u8gs7ppzj2",31,NA,"<div style=""width:500px;"">
                            <p style=""font-size:50px; font-weight:bold;""
                            >happy</p>
                            <div style=""width:240px; margin: auto;"">
                                <img src=""images/map05_Spectral_scaleRev_orientMir_180.png"" style= ""width:200px""alt=""img"">
                            </div>
                        </div>",0.205,"",0,"",NA,"","images/map05_Spectral_scaleRev_orientMir_180.png","happy",1,5,5,"Spectral","orientMir","scaleRev","180",NA,NA
"","","","","","html-slider-response",116,289944,"0.0-108.0","u8gs7ppzj2",31,NA,"<div style=""width:500px;"">
                            <p style=""font-size:50px; font-weight:bold;""
                            >happy</p>
                            <div style=""width:240px; margin: auto;"">
                                <img src=""images/map23_BuPu_scaleDef_orientMir_270.png"" style= ""width:200px""alt=""img"">
                            </div>
                        </div>",0.275,"",0,"",NA,"","images/map23_BuPu_scaleDef_orientMir_270.png","happy",1,23,23,"BuPu","orientMir","scaleDef","270",NA,NA
"","","","","","html-slider-response",117,291512,"0.0-109.0","u8gs7ppzj2",31,NA,"<div style=""width:500px;"">
                            <p style=""font-size:50px; font-weight:bold;""
                            >happy</p>
                            <div style=""width:240px; margin: auto;"">
                                <img src=""images/map23_OrRd_scaleRev_orientDef_180.png"" style= ""width:200px""alt=""img"">
                            </div>
                        </div>",0.16,"",0,"",NA,"","images/map23_OrRd_scaleRev_orientDef_180.png","happy",1,23,23,"OrRd","orientDef","scaleRev","180",NA,NA
"","","","","","html-slider-response",118,292994,"0.0-110.0","u8gs7ppzj2",31,NA,"<div style=""width:500px;"">
                            <p style=""font-size:50px; font-weight:bold;""
                            >happy</p>
                            <div style=""width:240px; margin: auto;"">
                                <img src=""images/map15_Reds_scaleDef_orientDef_270.png"" style= ""width:200px""alt=""img"">
                            </div>
                        </div>",0.1175,"",0,"",NA,"","images/map15_Reds_scaleDef_orientDef_270.png","happy",1,15,15,"Reds","orientDef","scaleDef","270",NA,NA
"","","","","","html-slider-response",119,295009,"0.0-111.0","u8gs7ppzj2",31,NA,"<div style=""width:500px;"">
                            <p style=""font-size:50px; font-weight:bold;""
                            >happy</p>
                            <div style=""width:240px; margin: auto;"">
                                <img src=""images/map27_BuGn_scaleDef_orientDef_090.png"" style= ""width:200px""alt=""img"">
                            </div>
                        </div>",0.565,"",0,"",NA,"","images/map27_BuGn_scaleDef_orientDef_090.png","happy",1,27,27,"BuGn","orientDef","scaleDef","090",NA,NA
"","","","","","html-slider-response",120,296325,"0.0-112.0","u8gs7ppzj2",31,NA,"<div style=""width:500px;"">
                            <p style=""font-size:50px; font-weight:bold;""
                            >happy</p>
                            <div style=""width:240px; margin: auto;"">
                                <img src=""images/map13_cividis_scaleRev_orientDef_000.png"" style= ""width:200px""alt=""img"">
                            </div>
                        </div>",0.1675,"",0,"",NA,"","images/map13_cividis_scaleRev_orientDef_000.png","happy",1,13,13,"cividis","orientDef","scaleRev","000",NA,NA
"","","","","","html-slider-response",121,298310,"0.0-113.0","u8gs7ppzj2",31,NA,"<div style=""width:500px;"">
                            <p style=""font-size:50px; font-weight:bold;""
                            >happy</p>
                            <div style=""width:240px; margin: auto;"">
                                <img src=""images/map05_RdYlBu_scaleDef_orientDef_090.png"" style= ""width:200px""alt=""img"">
                            </div>
                        </div>",1,"",0,"",NA,"","images/map05_RdYlBu_scaleDef_orientDef_090.png","happy",1,5,5,"RdYlBu","orientDef","scaleDef","090",NA,NA
"","","","","","html-slider-response",122,299943,"0.0-114.0","u8gs7ppzj2",31,NA,"<div style=""width:500px;"">
                            <p style=""font-size:50px; font-weight:bold;""
                            >happy</p>
                            <div style=""width:240px; margin: auto;"">
                                <img src=""images/map12_inferno_scaleRev_orientMir_000.png"" style= ""width:200px""alt=""img"">
                            </div>
                        </div>",0.04,"",0,"",NA,"","images/map12_inferno_scaleRev_orientMir_000.png","happy",1,12,12,"inferno","orientMir","scaleRev","000",NA,NA
"","","","","","html-slider-response",123,301676,"0.0-115.0","u8gs7ppzj2",31,NA,"<div style=""width:500px;"">
                            <p style=""font-size:50px; font-weight:bold;""
                            >happy</p>
                            <div style=""width:240px; margin: auto;"">
                                <img src=""images/map02_PuOr_scaleDef_orientDef_270.png"" style= ""width:200px""alt=""img"">
                            </div>
                        </div>",0.1275,"",0,"",NA,"","images/map02_PuOr_scaleDef_orientDef_270.png","happy",1,2,2,"PuOr","orientDef","scaleDef","270",NA,NA
"","","","","","html-slider-response",124,303777,"0.0-116.0","u8gs7ppzj2",31,NA,"<div style=""width:500px;"">
                            <p style=""font-size:50px; font-weight:bold;""
                            >happy</p>
                            <div style=""width:240px; margin: auto;"">
                                <img src=""images/map27_YlGn_scaleDef_orientDef_270.png"" style= ""width:200px""alt=""img"">
                            </div>
                        </div>",0.555,"",0,"",NA,"","images/map27_YlGn_scaleDef_orientDef_270.png","happy",1,27,27,"YlGn","orientDef","scaleDef","270",NA,NA
"","","","","","html-slider-response",125,305610,"0.0-117.0","u8gs7ppzj2",31,NA,"<div style=""width:500px;"">
                            <p style=""font-size:50px; font-weight:bold;""
                            >happy</p>
                            <div style=""width:240px; margin: auto;"">
                                <img src=""images/map07_seismic_scaleDef_orientDef_270.png"" style= ""width:200px""alt=""img"">
                            </div>
                        </div>",0.08,"",0,"",NA,"","images/map07_seismic_scaleDef_orientDef_270.png","happy",1,7,7,"seismic","orientDef","scaleDef","270",NA,NA
"","","","","","html-slider-response",126,307976,"0.0-118.0","u8gs7ppzj2",31,NA,"<div style=""width:500px;"">
                            <p style=""font-size:50px; font-weight:bold;""
                            >happy</p>
                            <div style=""width:240px; margin: auto;"">
                                <img src=""images/map05_RdYlBu_scaleRev_orientDef_180.png"" style= ""width:200px""alt=""img"">
                            </div>
                        </div>",0.6025,"",0,"",NA,"","images/map05_RdYlBu_scaleRev_orientDef_180.png","happy",1,5,5,"RdYlBu","orientDef","scaleRev","180",NA,NA
"","","","","","html-slider-response",127,309894,"0.0-119.0","u8gs7ppzj2",31,NA,"<div style=""width:500px;"">
                            <p style=""font-size:50px; font-weight:bold;""
                            >happy</p>
                            <div style=""width:240px; margin: auto;"">
                                <img src=""images/map15_YlOrBr_scaleRev_orientMir_180.png"" style= ""width:200px""alt=""img"">
                            </div>
                        </div>",0.8075,"",0,"",NA,"","images/map15_YlOrBr_scaleRev_orientMir_180.png","happy",1,15,15,"YlOrBr","orientMir","scaleRev","180",NA,NA
"","","","","","html-slider-response",128,312277,"0.0-120.0","u8gs7ppzj2",31,NA,"<div style=""width:500px;"">
                            <p style=""font-size:50px; font-weight:bold;""
                            >happy</p>
                            <div style=""width:240px; margin: auto;"">
                                <img src=""images/map10_managua_scaleRev_orientDef_000.png"" style= ""width:200px""alt=""img"">
                            </div>
                        </div>",0.7175,"",0,"",NA,"","images/map10_managua_scaleRev_orientDef_000.png","happy",1,10,10,"managua","orientDef","scaleRev","000",NA,NA
"","","","","","html-slider-response",129,315443,"0.0-121.0","u8gs7ppzj2",31,NA,"<div style=""width:500px;"">
                            <p style=""font-size:50px; font-weight:bold;""
                            >happy</p>
                            <div style=""width:240px; margin: auto;"">
                                <img src=""images/map26_GnBu_scaleDef_orientDef_090.png"" style= ""width:200px""alt=""img"">
                            </div>
                        </div>",0.625,"",0,"",NA,"","images/map26_GnBu_scaleDef_orientDef_090.png","happy",1,26,26,"GnBu","orientDef","scaleDef","090",NA,NA
"","","","","","html-slider-response",130,317377,"0.0-122.0","u8gs7ppzj2",31,NA,"<div style=""width:500px;"">
                            <p style=""font-size:50px; font-weight:bold;""
                            >happy</p>
                            <div style=""width:240px; margin: auto;"">
                                <img src=""images/map13_Greys_scaleDef_orientDef_090.png"" style= ""width:200px""alt=""img"">
                            </div>
                        </div>",0.31,"",0,"",NA,"","images/map13_Greys_scaleDef_orientDef_090.png","happy",1,13,13,"Greys","orientDef","scaleDef","090",NA,NA
"","","","","","html-slider-response",131,321243,"0.0-123.0","u8gs7ppzj2",31,NA,"<div style=""width:500px;"">
                            <p style=""font-size:50px; font-weight:bold;""
                            >happy</p>
                            <div style=""width:240px; margin: auto;"">
                                <img src=""images/map27_YlGn_scaleRev_orientMir_000.png"" style= ""width:200px""alt=""img"">
                            </div>
                        </div>",0.555,"",0,"",NA,"","images/map27_YlGn_scaleRev_orientMir_000.png","happy",1,27,27,"YlGn","orientMir","scaleRev","000",NA,NA
"","","","","","html-slider-response",132,323660,"0.0-124.0","u8gs7ppzj2",31,NA,"<div style=""width:500px;"">
                            <p style=""font-size:50px; font-weight:bold;""
                            >happy</p>
                            <div style=""width:240px; margin: auto;"">
                                <img src=""images/map15_Reds_scaleRev_orientMir_000.png"" style= ""width:200px""alt=""img"">
                            </div>
                        </div>",0.3825,"",0,"",NA,"","images/map15_Reds_scaleRev_orientMir_000.png","happy",1,15,15,"Reds","orientMir","scaleRev","000",NA,NA
"","","","","","html-slider-response",133,326128,"0.0-125.0","u8gs7ppzj2",31,NA,"<div style=""width:500px;"">
                            <p style=""font-size:50px; font-weight:bold;""
                            >happy</p>
                            <div style=""width:240px; margin: auto;"">
                                <img src=""images/map12_plasma_scaleRev_orientDef_180.png"" style= ""width:200px""alt=""img"">
                            </div>
                        </div>",0.3775,"",0,"",NA,"","images/map12_plasma_scaleRev_orientDef_180.png","happy",1,12,12,"plasma","orientDef","scaleRev","180",NA,NA
"","","","","","html-slider-response",134,333377,"0.0-126.0","u8gs7ppzj2",31,NA,"<div style=""width:500px;"">
                            <p style=""font-size:50px; font-weight:bold;""
                            >happy</p>
                            <div style=""width:240px; margin: auto;"">
                                <img src=""images/map27_PiYG_scaleDef_orientMir_090.png"" style= ""width:200px""alt=""img"">
                            </div>
                        </div>",0.365,"",0,"",NA,"","images/map27_PiYG_scaleDef_orientMir_090.png","happy",1,27,27,"PiYG","orientMir","scaleDef","090",NA,NA
"","","","","","html-slider-response",135,336793,"0.0-127.0","u8gs7ppzj2",31,NA,"<div style=""width:500px;"">
                            <p style=""font-size:50px; font-weight:bold;""
                            >happy</p>
                            <div style=""width:240px; margin: auto;"">
                                <img src=""images/map23_OrRd_scaleDef_orientDef_090.png"" style= ""width:200px""alt=""img"">
                            </div>
                        </div>",0.3175,"",0,"",NA,"","images/map23_OrRd_scaleDef_orientDef_090.png","happy",1,23,23,"OrRd","orientDef","scaleDef","090",NA,NA
"","","","","","html-slider-response",136,339565,"0.0-128.0","u8gs7ppzj2",31,NA,"<div style=""width:500px;"">
                            <p style=""font-size:50px; font-weight:bold;""
                            >happy</p>
                            <div style=""width:240px; margin: auto;"">
                                <img src=""images/map13_Greens_scaleDef_orientMir_270.png"" style= ""width:200px""alt=""img"">
                            </div>
                        </div>",0.315,"",0,"",NA,"","images/map13_Greens_scaleDef_orientMir_270.png","happy",1,13,13,"Greens","orientMir","scaleDef","270",NA,NA
"","","","","","html-slider-response",137,341343,"0.0-129.0","u8gs7ppzj2",31,NA,"<div style=""width:500px;"">
                            <p style=""font-size:50px; font-weight:bold;""
                            >happy</p>
                            <div style=""width:240px; margin: auto;"">
                                <img src=""images/map10_gist_earth_scaleRev_orientMir_000.png"" style= ""width:200px""alt=""img"">
                            </div>
                        </div>",0.4125,"",0,"",NA,"","images/map10_gist_earth_scaleRev_orientMir_000.png","happy",1,10,10,"gist","scaleRev","earth","orientMir",NA,NA
"","","","","","html-slider-response",138,343342,"0.0-130.0","u8gs7ppzj2",31,NA,"<div style=""width:500px;"">
                            <p style=""font-size:50px; font-weight:bold;""
                            >happy</p>
                            <div style=""width:240px; margin: auto;"">
                                <img src=""images/map10_turbo_scaleDef_orientMir_090.png"" style= ""width:200px""alt=""img"">
                            </div>
                        </div>",0.545,"",0,"",NA,"","images/map10_turbo_scaleDef_orientMir_090.png","happy",1,10,10,"turbo","orientMir","scaleDef","090",NA,NA
"","","","","","html-slider-response",139,345260,"0.0-131.0","u8gs7ppzj2",31,NA,"<div style=""width:500px;"">
                            <p style=""font-size:50px; font-weight:bold;""
                            >happy</p>
                            <div style=""width:240px; margin: auto;"">
                                <img src=""images/map13_Blues_scaleDef_orientMir_090.png"" style= ""width:200px""alt=""img"">
                            </div>
                        </div>",0.365,"",0,"",NA,"","images/map13_Blues_scaleDef_orientMir_090.png","happy",1,13,13,"Blues","orientMir","scaleDef","090",NA,NA
"","","","","","html-slider-response",140,349243,"0.0-132.0","u8gs7ppzj2",31,NA,"<div style=""width:500px;"">
                            <p style=""font-size:50px; font-weight:bold;""
                            >happy</p>
                            <div style=""width:240px; margin: auto;"">
                                <img src=""images/map07_seismic_scaleRev_orientMir_000.png"" style= ""width:200px""alt=""img"">
                            </div>
                        </div>",0.5725,"",0,"",NA,"","images/map07_seismic_scaleRev_orientMir_000.png","happy",1,7,7,"seismic","orientMir","scaleRev","000",NA,NA
"","","","","","html-slider-response",141,352109,"0.0-133.0","u8gs7ppzj2",31,NA,"<div style=""width:500px;"">
                            <p style=""font-size:50px; font-weight:bold;""
                            >happy</p>
                            <div style=""width:240px; margin: auto;"">
                                <img src=""images/map26_GnBu_scaleRev_orientDef_180.png"" style= ""width:200px""alt=""img"">
                            </div>
                        </div>",0.7825,"",0,"",NA,"","images/map26_GnBu_scaleRev_orientDef_180.png","happy",1,26,26,"GnBu","orientDef","scaleRev","180",NA,NA
"","","","","","html-slider-response",142,355493,"0.0-134.0","u8gs7ppzj2",31,NA,"<div style=""width:500px;"">
                            <p style=""font-size:50px; font-weight:bold;""
                            >happy</p>
                            <div style=""width:240px; margin: auto;"">
                                <img src=""images/map12_magma_scaleRev_orientMir_180.png"" style= ""width:200px""alt=""img"">
                            </div>
                        </div>",0.735,"",0,"",NA,"","images/map12_magma_scaleRev_orientMir_180.png","happy",1,12,12,"magma","orientMir","scaleRev","180",NA,NA
"","","","","","html-slider-response",143,359061,"0.0-135.0","u8gs7ppzj2",31,NA,"<div style=""width:500px;"">
                            <p style=""font-size:50px; font-weight:bold;""
                            >happy</p>
                            <div style=""width:240px; margin: auto;"">
                                <img src=""images/map12_viridis_scaleRev_orientDef_000.png"" style= ""width:200px""alt=""img"">
                            </div>
                        </div>",0.74,"",0,"",NA,"","images/map12_viridis_scaleRev_orientDef_000.png","happy",1,12,12,"viridis","orientDef","scaleRev","000",NA,NA
"","","","","","html-slider-response",144,361176,"0.0-136.0","u8gs7ppzj2",31,NA,"<div style=""width:500px;"">
                            <p style=""font-size:50px; font-weight:bold;""
                            >happy</p>
                            <div style=""width:240px; margin: auto;"">
                                <img src=""images/map07_bwr_scaleDef_orientDef_090.png"" style= ""width:200px""alt=""img"">
                            </div>
                        </div>",0.7325,"",0,"",NA,"","images/map07_bwr_scaleDef_orientDef_090.png","happy",1,7,7,"bwr","orientDef","scaleDef","090",NA,NA
"","","","","","html-button-response",145,363132,"0.0-137.0","u8gs7ppzj2",31,1453,"<p>You are doing great!<br></br> You are halway done with the current block. When you are ready to continue, click the 'Continue' button.</p>",0.5,"",NA,"",NA,"","","",NA,NA,NA,"","","","",NA,NA
"","","","","","html-slider-response",146,385111,"0.0-138.0","u8gs7ppzj2",31,NA,"<div style=""width:500px;"">
                            <p style=""font-size:50px; font-weight:bold;""
                            >happy</p>
                            <div style=""width:240px; margin: auto;"">
                                <img src=""images/map02_PRGn_scaleRev_orientDef_000.png"" style= ""width:200px""alt=""img"">
                            </div>
                        </div>",0.6625,"",0,"",NA,"","images/map02_PRGn_scaleRev_orientDef_000.png","happy",1,2,2,"PRGn","orientDef","scaleRev","000",NA,NA
"","","","","","html-slider-response",147,386960,"0.0-139.0","u8gs7ppzj2",31,NA,"<div style=""width:500px;"">
                            <p style=""font-size:50px; font-weight:bold;""
                            >happy</p>
                            <div style=""width:240px; margin: auto;"">
                                <img src=""images/map26_YlGnBu_scaleDef_orientMir_090.png"" style= ""width:200px""alt=""img"">
                            </div>
                        </div>",0.705,"",0,"",NA,"","images/map26_YlGnBu_scaleDef_orientMir_090.png","happy",1,26,26,"YlGnBu","orientMir","scaleDef","090",NA,NA
"","","","","","html-slider-response",148,388725,"0.0-140.0","u8gs7ppzj2",31,NA,"<div style=""width:500px;"">
                            <p style=""font-size:50px; font-weight:bold;""
                            >happy</p>
                            <div style=""width:240px; margin: auto;"">
                                <img src=""images/map02_BrBG_scaleDef_orientDef_090.png"" style= ""width:200px""alt=""img"">
                            </div>
                        </div>",0.695,"",0,"",NA,"","images/map02_BrBG_scaleDef_orientDef_090.png","happy",1,2,2,"BrBG","orientDef","scaleDef","090",NA,NA
"","","","","","html-slider-response",149,391093,"0.0-141.0","u8gs7ppzj2",31,NA,"<div style=""width:500px;"">
                            <p style=""font-size:50px; font-weight:bold;""
                            >happy</p>
                            <div style=""width:240px; margin: auto;"">
                                <img src=""images/map12_inferno_scaleDef_orientDef_270.png"" style= ""width:200px""alt=""img"">
                            </div>
                        </div>",0.74,"",0,"",NA,"","images/map12_inferno_scaleDef_orientDef_270.png","happy",1,12,12,"inferno","orientDef","scaleDef","270",NA,NA
"","","","","","html-slider-response",150,393210,"0.0-142.0","u8gs7ppzj2",31,NA,"<div style=""width:500px;"">
                            <p style=""font-size:50px; font-weight:bold;""
                            >happy</p>
                            <div style=""width:240px; margin: auto;"">
                                <img src=""images/map12_magma_scaleDef_orientMir_090.png"" style= ""width:200px""alt=""img"">
                            </div>
                        </div>",0.7075,"",0,"",NA,"","images/map12_magma_scaleDef_orientMir_090.png","happy",1,12,12,"magma","orientMir","scaleDef","090",NA,NA
"","","","","","html-slider-response",151,396011,"0.0-143.0","u8gs7ppzj2",31,NA,"<div style=""width:500px;"">
                            <p style=""font-size:50px; font-weight:bold;""
                            >happy</p>
                            <div style=""width:240px; margin: auto;"">
                                <img src=""images/map05_RdYlGn_scaleDef_orientDef_270.png"" style= ""width:200px""alt=""img"">
                            </div>
                        </div>",0.22,"",0,"",NA,"","images/map05_RdYlGn_scaleDef_orientDef_270.png","happy",1,5,5,"RdYlGn","orientDef","scaleDef","270",NA,NA
"","","","","","html-slider-response",152,398143,"0.0-144.0","u8gs7ppzj2",31,NA,"<div style=""width:500px;"">
                            <p style=""font-size:50px; font-weight:bold;""
                            >happy</p>
                            <div style=""width:240px; margin: auto;"">
                                <img src=""images/map23_RdPu_scaleDef_orientMir_090.png"" style= ""width:200px""alt=""img"">
                            </div>
                        </div>",0.2575,"",0,"",NA,"","images/map23_RdPu_scaleDef_orientMir_090.png","happy",1,23,23,"RdPu","orientMir","scaleDef","090",NA,NA
"","","","","","html-slider-response",153,401409,"0.0-145.0","u8gs7ppzj2",31,NA,"<div style=""width:500px;"">
                            <p style=""font-size:50px; font-weight:bold;""
                            >happy</p>
                            <div style=""width:240px; margin: auto;"">
                                <img src=""images/map26_PuBuGn_scaleDef_orientMir_270.png"" style= ""width:200px""alt=""img"">
                            </div>
                        </div>",0.2075,"",0,"",NA,"","images/map26_PuBuGn_scaleDef_orientMir_270.png","happy",1,26,26,"PuBuGn","orientMir","scaleDef","270",NA,NA
"","","","","","html-slider-response",154,420160,"0.0-146.0","u8gs7ppzj2",31,NA,"<div style=""width:500px;"">
                            <p style=""font-size:50px; font-weight:bold;""
                            >happy</p>
                            <div style=""width:240px; margin: auto;"">
                                <img src=""images/map05_coolwarm_scaleDef_orientMir_270.png"" style= ""width:200px""alt=""img"">
                            </div>
                        </div>",0.365,"",0,"",NA,"","images/map05_coolwarm_scaleDef_orientMir_270.png","happy",1,5,5,"coolwarm","orientMir","scaleDef","270",NA,NA
"","","","","","html-slider-response",155,429043,"0.0-147.0","u8gs7ppzj2",31,NA,"<div style=""width:500px;"">
                            <p style=""font-size:50px; font-weight:bold;""
                            >happy</p>
                            <div style=""width:240px; margin: auto;"">
                                <img src=""images/map10_turbo_scaleRev_orientMir_180.png"" style= ""width:200px""alt=""img"">
                            </div>
                        </div>",0.645,"",0,"",NA,"","images/map10_turbo_scaleRev_orientMir_180.png","happy",1,10,10,"turbo","orientMir","scaleRev","180",NA,NA
"","","","","","html-slider-response",156,431477,"0.0-148.0","u8gs7ppzj2",31,NA,"<div style=""width:500px;"">
                            <p style=""font-size:50px; font-weight:bold;""
                            >happy</p>
                            <div style=""width:240px; margin: auto;"">
                                <img src=""images/map12_cividis_scaleDef_orientMir_270.png"" style= ""width:200px""alt=""img"">
                            </div>
                        </div>",0.355,"",0,"",NA,"","images/map12_cividis_scaleDef_orientMir_270.png","happy",1,12,12,"cividis","orientMir","scaleDef","270",NA,NA
"","","","","","html-slider-response",157,433359,"0.0-149.0","u8gs7ppzj2",31,NA,"<div style=""width:500px;"">
                            <p style=""font-size:50px; font-weight:bold;""
                            >happy</p>
                            <div style=""width:240px; margin: auto;"">
                                <img src=""images/map05_RdBu_scaleRev_orientDef_000.png"" style= ""width:200px""alt=""img"">
                            </div>
                        </div>",0.585,"",0,"",NA,"","images/map05_RdBu_scaleRev_orientDef_000.png","happy",1,5,5,"RdBu","orientDef","scaleRev","000",NA,NA
"","","","","","html-slider-response",158,436348,"0.0-150.0","u8gs7ppzj2",31,NA,"<div style=""width:500px;"">
                            <p style=""font-size:50px; font-weight:bold;""
                            >happy</p>
                            <div style=""width:240px; margin: auto;"">
                                <img src=""images/map02_RdBu_scaleDef_orientMir_270.png"" style= ""width:200px""alt=""img"">
                            </div>
                        </div>",0.585,"",0,"",NA,"","images/map02_RdBu_scaleDef_orientMir_270.png","happy",1,2,2,"RdBu","orientMir","scaleDef","270",NA,NA
"","","","","","html-slider-response",159,438309,"0.0-151.0","u8gs7ppzj2",31,NA,"<div style=""width:500px;"">
                            <p style=""font-size:50px; font-weight:bold;""
                            >happy</p>
                            <div style=""width:240px; margin: auto;"">
                                <img src=""images/map26_PuBu_scaleRev_orientMir_000.png"" style= ""width:200px""alt=""img"">
                            </div>
                        </div>",0.625,"",0,"",NA,"","images/map26_PuBu_scaleRev_orientMir_000.png","happy",1,26,26,"PuBu","orientMir","scaleRev","000",NA,NA
"","","","","","html-slider-response",160,443292,"0.0-152.0","u8gs7ppzj2",31,NA,"<div style=""width:500px;"">
                            <p style=""font-size:50px; font-weight:bold;""
                            >happy</p>
                            <div style=""width:240px; margin: auto;"">
                                <img src=""images/map15_Greens_scaleRev_orientDef_000.png"" style= ""width:200px""alt=""img"">
                            </div>
                        </div>",0.5875,"",0,"",NA,"","images/map15_Greens_scaleRev_orientDef_000.png","happy",1,15,15,"Greens","orientDef","scaleRev","000",NA,NA
"","","","","","html-slider-response",161,444825,"0.0-153.0","u8gs7ppzj2",31,NA,"<div style=""width:500px;"">
                            <p style=""font-size:50px; font-weight:bold;""
                            >happy</p>
                            <div style=""width:240px; margin: auto;"">
                                <img src=""images/map12_plasma_scaleDef_orientDef_090.png"" style= ""width:200px""alt=""img"">
                            </div>
                        </div>",0.6025,"",0,"",NA,"","images/map12_plasma_scaleDef_orientDef_090.png","happy",1,12,12,"plasma","orientDef","scaleDef","090",NA,NA
"","","","","","html-slider-response",162,446343,"0.0-154.0","u8gs7ppzj2",31,NA,"<div style=""width:500px;"">
                            <p style=""font-size:50px; font-weight:bold;""
                            >happy</p>
                            <div style=""width:240px; margin: auto;"">
                                <img src=""images/map15_Oranges_scaleRev_orientDef_180.png"" style= ""width:200px""alt=""img"">
                            </div>
                        </div>",0.635,"",0,"",NA,"","images/map15_Oranges_scaleRev_orientDef_180.png","happy",1,15,15,"Oranges","orientDef","scaleRev","180",NA,NA
"","","","","","html-slider-response",163,448225,"0.0-155.0","u8gs7ppzj2",31,NA,"<div style=""width:500px;"">
                            <p style=""font-size:50px; font-weight:bold;""
                            >happy</p>
                            <div style=""width:240px; margin: auto;"">
                                <img src=""images/map07_berlin_scaleRev_orientMir_180.png"" style= ""width:200px""alt=""img"">
                            </div>
                        </div>",0.3875,"",0,"",NA,"","images/map07_berlin_scaleRev_orientMir_180.png","happy",1,7,7,"berlin","orientMir","scaleRev","180",NA,NA
"","","","","","html-slider-response",164,449910,"0.0-156.0","u8gs7ppzj2",31,NA,"<div style=""width:500px;"">
                            <p style=""font-size:50px; font-weight:bold;""
