"success","timeout","failed_images","failed_audio","failed_video","trial_type","trial_index","time_elapsed","internal_node_id","subject_id","condition_num","rt","stimulus","response","question_order","slider_start","practiceTrial","practiceTrialNum","correct","image_path","concept","repetition","map_id","map_num","scale_name","orientation_code","mapping_code","rotation_code","ishihara_plate","correct_response"
"true","false","[]","[]","[]","preload",0,715,"0.0-0.0","p60bn1u3qr",25,NA,"",NA,"",NA,"",NA,"","","",NA,NA,NA,"","","","",NA,NA
"","","","","","html-button-response",1,1571,"0.0-1.0","p60bn1u3qr",25,854,"Welcome to our experiment!<p>At the bottom of this screen, you will see a button that says ""Begin Experiment"".<br>Please only click that button when you are ready to complete the 30 minute experiment in one sitting.</p><p> Once you click that button, it will not be possible to restart the experiment.",0.5,"",NA,"",NA,"","","",NA,NA,NA,"","","","",NA,NA
"true","","","","","fullscreen",2,4044,"0.0-2.0","p60bn1u3qr",25,1470,"",NA,"",NA,"",NA,"","","",NA,NA,NA,"","","","",NA,NA
"","","","","","survey-multi-select",3,9400,"0.0-3.0","p60bn1u3qr",25,5351,"",NA,"[0]",NA,"",NA,"","","",NA,NA,NA,"","","","",NA,NA
"","","","","","html-button-response",4,13970,"0.0-4.0","p60bn1u3qr",25,4568,"Welcome! <p> This experiment involves two parts: demographic information, followed by the experimental task.<p> It will take about 30 minutes to complete both parts.",0.5,"",NA,"",NA,"","","",NA,NA,NA,"","","","",NA,NA
"","","","","","survey-text",5,27233,"0.0-5.0","p60bn1u3qr",25,13255,"",NA,"",NA,"",NA,"","","",NA,NA,NA,"","","","",NA,NA
"","","","","","html-slider-response",6,49252,"0.0-6.0","p60bn1u3qr",25,22015,"<div style='text-align:left; font-size:20px; line-height:25px; width: 1000px;'>
                                During this experiment you will be asked to rate how much you associate maps with                    different concepts.<br> Below, you can see some examples of the maps you will be asked to rate. Above the maps
                    is the list of concepts.<br>You will be asked                    to rate how much you associate each map with each concept on a scale from 'not at all' to 'very much' like the
                    one below. <br><br>
                    Now, please look at the list of concepts and maps. For each concept, think about the map you associate 'very
                    much' with the concept.<br>                     When you see that map during the experiment, please rate it near the 'very much' endpoint of the
                    scale.<br>Now, please think about which map you associate 'not at all'                     with each concept. When you see that map during the experiment, please rate it near the 'not at all' endpoint
                    of the scale.<br>
                    Please use the full range of the scale. That is, if a map is somewhat associated with the concept, you would
                    click partway between the middle point and right side of the scale.                    You will be asked to rate each map for a given concept before moving on to the next concept.<br>Press the
                    'Continue' button for instructions on how to use the slider.                    <br>
                </div>

                <div style=""width: 500px; margin: 0 auto;"">
                    <!-- Centered text paragraphs -->
                    <div style=""text-align: center; width: 500px;"">
                        <p style=""font-size:25px; line-height:15px;"">
                            fearful&nbsp;&nbsp;&nbsp;&nbsp;
                            disgust&nbsp;&nbsp;&nbsp;&nbsp;
                            sad&nbsp;&nbsp;&nbsp;&nbsp;
                            happy&nbsp;&nbsp;&nbsp;&nbsp;
                            angry
                        </p>
                        <!-- <p style=""font-size:20px; line-height:15px;"">disgust</p>
                        <p style=""font-size:20px;line-height:15px;"">sad</p>
                        <p style=""font-size:20px;line-height:15px;"">happy</p>
                        <p style=""font-size:20px;line-height:15px;"">angry</p> -->
                    </div>
            

                    <!-- Grid section -->
                   <div style=""display: flex; justify-content: center; padding-top: 15px;"">
                    <div style=""display: grid; grid-template-columns: repeat(10, 55px); grid-gap: 5px; width: auto;"">
                        <img src=""images/map07_gist_earth_scaleDef_orientMir_090.png"" alt=""map"" style=""width: 100%;""><img src=""images/map12_cividis_scaleRev_orientDef_180.png"" alt=""map"" style=""width: 100%;""><img src=""images/map26_PiYG_scaleDef_orientMir_270.png"" alt=""map"" style=""width: 100%;""><img src=""images/map10_inferno_scaleRev_orientMir_180.png"" alt=""map"" style=""width: 100%;""><img src=""images/map07_managua_scaleDef_orientDef_090.png"" alt=""map"" style=""width: 100%;""><img src=""images/map02_RdGy_scaleRev_orientDef_000.png"" alt=""map"" style=""width: 100%;""><img src=""images/map10_viridis_scaleDef_orientDef_090.png"" alt=""map"" style=""width: 100%;""><img src=""images/map05_berlin_scaleDef_orientMir_270.png"" alt=""map"" style=""width: 100%;""><img src=""images/map10_turbo_scaleRev_orientDef_000.png"" alt=""map"" style=""width: 100%;""><img src=""images/map23_YlGnBu_scaleDef_orientMir_270.png"" alt=""map"" style=""width: 100%;""><img src=""images/map23_BuPu_scaleRev_orientDef_180.png"" alt=""map"" style=""width: 100%;""><img src=""images/map15_YlOrRd_scaleRev_orientDef_180.png"" alt=""map"" style=""width: 100%;""><img src=""images/map15_RdPu_scaleDef_orientMir_270.png"" alt=""map"" style=""width: 100%;""><img src=""images/map12_Greys_scaleDef_orientDef_270.png"" alt=""map"" style=""width: 100%;""><img src=""images/map02_RdYlGn_scaleDef_orientMir_090.png"" alt=""map"" style=""width: 100%;""><img src=""images/map13_Greens_scaleRev_orientDef_180.png"" alt=""map"" style=""width: 100%;""><img src=""images/map15_PuRd_scaleDef_orientMir_090.png"" alt=""map"" style=""width: 100%;""><img src=""images/map12_Purples_scaleRev_orientMir_180.png"" alt=""map"" style=""width: 100%;""><img src=""images/map27_BrBG_scaleRev_orientMir_000.png"" alt=""map"" style=""width: 100%;""><img src=""images/map12_Blues_scaleDef_orientMir_270.png"" alt=""map"" style=""width: 100%;""><img src=""images/map27_PuOr_scaleDef_orientMir_090.png"" alt=""map"" style=""width: 100%;""><img src=""images/map10_plasma_scaleDef_orientDef_270.png"" alt=""map"" style=""width: 100%;""><img src=""images/map05_Spectral_scaleRev_orientDef_000.png"" alt=""map"" style=""width: 100%;""><img src=""images/map05_bwr_scaleDef_orientDef_270.png"" alt=""map"" style=""width: 100%;""><img src=""images/map23_GnBu_scaleRev_orientMir_000.png"" alt=""map"" style=""width: 100%;""><img src=""images/map05_seismic_scaleRev_orientMir_180.png"" alt=""map"" style=""width: 100%;""><img src=""images/map13_YlOrBr_scaleDef_orientMir_270.png"" alt=""map"" style=""width: 100%;""><img src=""images/map26_YlGn_scaleDef_orientMir_090.png"" alt=""map"" style=""width: 100%;""><img src=""images/map07_vanimo_scaleRev_orientMir_000.png"" alt=""map"" style=""width: 100%;""><img src=""images/map02_RdBu_scaleDef_orientDef_090.png"" alt=""map"" style=""width: 100%;""><img src=""images/map26_PuBuGn_scaleRev_orientDef_180.png"" alt=""map"" style=""width: 100%;""><img src=""images/map13_Oranges_scaleDef_orientDef_270.png"" alt=""map"" style=""width: 100%;""><img src=""images/map02_RdYlBu_scaleDef_orientDef_270.png"" alt=""map"" style=""width: 100%;""><img src=""images/map05_coolwarm_scaleDef_orientDef_090.png"" alt=""map"" style=""width: 100%;""><img src=""images/map15_OrRd_scaleRev_orientMir_000.png"" alt=""map"" style=""width: 100%;""><img src=""images/map26_BuGn_scaleDef_orientDef_270.png"" alt=""map"" style=""width: 100%;""><img src=""images/map23_PuBu_scaleRev_orientMir_180.png"" alt=""map"" style=""width: 100%;""><img src=""images/map27_PRGn_scaleDef_orientDef_090.png"" alt=""map"" style=""width: 100%;""><img src=""images/map12_magma_scaleRev_orientDef_000.png"" alt=""map"" style=""width: 100%;""><img src=""images/map13_Reds_scaleRev_orientMir_180.png"" alt=""map"" style=""width: 100%;"">
                    </div>
                </div>

                    <!-- Clear floats -->
                    <div style=""clear: both;""></div>
                </div>
                            ",0.7425,"",0,"true",NA,"","","",NA,NA,NA,"","","","",NA,NA
"","","","","","html-button-response",7,52035,"0.0-7.0","p60bn1u3qr",25,2782,"<div style=""width:800px;""><p style=""text-align:left"">To move the slider, click and drag your cursor to the location of the scale where you would like to make your rating and then let go. When you let go of the slider, your response will be recorded and the next trial will begin. <br>
                    We are interested in your initial impressions of each map for the given concept, so please go with your first intuition. <br>
                    Before you begin the experiment, there will be four training trials for you to practice using the scale. <br>
                     When you are ready to start the training trials, please click ""Continue"".</p><br></div>",0.5,"",NA,"",NA,"","","",NA,NA,NA,"","","","",NA,NA
"","","","","","html-slider-response",8,54754,"0.0-8.0-0.0","p60bn1u3qr",25,NA,"<div style=""width:500px;"">
                                    <p style=""font-size:25px;"">Please move the slider all the way to the <br> right endpoint of the scale</p>

                                    </div>
                                </div>",0.6625,"",0,"true",0,"false","","",NA,NA,NA,"","","","",NA,NA
"","","","","","html-button-response",9,60584,"0.0-8.0-1.0","p60bn1u3qr",25,5327,"<p align='center'><b>Not quite!</b> The slider was not placed near the instructed located. Click on 'Continue' to try again. </p>",0.5,"",NA,"",NA,"","","",NA,NA,NA,"","","","",NA,NA
"","","","","","html-slider-response",10,63394,"0.0-8.1-0.1","p60bn1u3qr",25,NA,"<div style=""width:500px;"">
                                    <p style=""font-size:25px;"">Please move the slider all the way to the <br> right endpoint of the scale</p>

                                    </div>
                                </div>",1,"",0,"true",0,"true","","",NA,NA,NA,"","","","",NA,NA
"","","","","","html-button-response",11,64831,"0.0-8.1-1.1","p60bn1u3qr",25,935,"<p align='center'><b>Good job!</b> Click on 'Continue' to proceed.</p>",0.5,"",NA,"",NA,"","","",NA,NA,NA,"","","","",NA,NA
"","","","","","html-slider-response",12,67126,"0.0-9.0-0.0","p60bn1u3qr",25,NA,"<div style=""width:500px;"">
                                    <p style=""font-size:25px;"">Please move the slider all the way to the <br> left endpoint of the scale</p>

                                    </div>
                                </div>",0,"",0,"true",1,"true","","",NA,NA,NA,"","","","",NA,NA
"","","","","","html-button-response",13,68742,"0.0-9.0-1.0","p60bn1u3qr",25,1113,"<p align='center'><b>Good job!</b> Click on 'Continue' to proceed.</p>",0.5,"",NA,"",NA,"","","",NA,NA,NA,"","","","",NA,NA
"","","","","","html-slider-response",14,72192,"0.0-10.0-0.0","p60bn1u3qr",25,NA,"<div style=""width:500px;"">
                                    <p style=""font-size:25px;"">Please move the slider halfway between the center and right endpoint of the scale</p>

                                    </div>
                                </div>",0.76,"",0,"true",2,"true","","",NA,NA,NA,"","","","",NA,NA
"","","","","","html-button-response",15,76507,"0.0-10.0-1.0","p60bn1u3qr",25,3812,"<p align='center'><b>Good job!</b> Click on 'Continue' to proceed.</p>",0.5,"",NA,"",NA,"","","",NA,NA,NA,"","","","",NA,NA
"","","","","","html-slider-response",16,78752,"0.0-11.0-0.0","p60bn1u3qr",25,NA,"<div style=""width:500px;"">
                                    <p style=""font-size:25px;"">Please move the slider halfway between the center and left endpoint of the scale</p>

                                    </div>
                                </div>",0.21,"",0,"true",3,"false","","",NA,NA,NA,"","","","",NA,NA
"","","","","","html-button-response",17,79947,"0.0-11.0-1.0","p60bn1u3qr",25,692,"<p align='center'><b>Not quite!</b> The slider was not placed near the instructed located. Click on 'Continue' to try again. </p>",0.5,"",NA,"",NA,"","","",NA,NA,NA,"","","","",NA,NA
"","","","","","html-slider-response",18,84587,"0.0-11.1-0.1","p60bn1u3qr",25,NA,"<div style=""width:500px;"">
                                    <p style=""font-size:25px;"">Please move the slider halfway between the center and left endpoint of the scale</p>

                                    </div>
                                </div>",0.1075,"",0,"true",3,"false","","",NA,NA,NA,"","","","",NA,NA
"","","","","","html-button-response",19,87313,"0.0-11.1-1.1","p60bn1u3qr",25,2224,"<p align='center'><b>Not quite!</b> The slider was not placed near the instructed located. Click on 'Continue' to try again. </p>",0.5,"",NA,"",NA,"","","",NA,NA,NA,"","","","",NA,NA
"","","","","","html-slider-response",20,92108,"0.0-11.2-0.2","p60bn1u3qr",25,NA,"<div style=""width:500px;"">
                                    <p style=""font-size:25px;"">Please move the slider halfway between the center and left endpoint of the scale</p>

                                    </div>
                                </div>",0.065,"",0,"true",3,"false","","",NA,NA,NA,"","","","",NA,NA
"","","","","","html-button-response",21,94792,"0.0-11.2-1.2","p60bn1u3qr",25,2182,"<p align='center'><b>Not quite!</b> The slider was not placed near the instructed located. Click on 'Continue' to try again. </p>",0.5,"",NA,"",NA,"","","",NA,NA,NA,"","","","",NA,NA
"","","","","","html-slider-response",22,98024,"0.0-11.3-0.3","p60bn1u3qr",25,NA,"<div style=""width:500px;"">
                                    <p style=""font-size:25px;"">Please move the slider halfway between the center and left endpoint of the scale</p>

                                    </div>
                                </div>",0.0175,"",0,"true",3,"false","","",NA,NA,NA,"","","","",NA,NA
"","","","","","html-button-response",23,100094,"0.0-11.3-1.3","p60bn1u3qr",25,1567,"<p align='center'><b>Not quite!</b> The slider was not placed near the instructed located. Click on 'Continue' to try again. </p>",0.5,"",NA,"",NA,"","","",NA,NA,NA,"","","","",NA,NA
"","","","","","html-slider-response",24,105571,"0.0-11.4-0.4","p60bn1u3qr",25,NA,"<div style=""width:500px;"">
                                    <p style=""font-size:25px;"">Please move the slider halfway between the center and left endpoint of the scale</p>

                                    </div>
                                </div>",0.23,"",0,"true",3,"true","","",NA,NA,NA,"","","","",NA,NA
"","","","","","html-button-response",25,106725,"0.0-11.4-1.4","p60bn1u3qr",25,651,"<p align='center'><b>Good job!</b> Click on 'Continue' to proceed.</p>",0.5,"",NA,"",NA,"","","",NA,NA,NA,"","","","",NA,NA
"","","","","","html-button-response",26,107729,"0.0-12.0","p60bn1u3qr",25,1003,"<p>Great job! You've completed the practice trials. Now you will begin the main task.</p>",0.5,"",NA,"",NA,"","","",NA,NA,NA,"","","","",NA,NA
"","","","","","html-button-response",27,109703,"0.0-13.0","p60bn1u3qr",25,1973,"<p>In this block of trials, you will be asked to rate how much you associate each map with:</p > <p style = 'font-size:150%; font-weight: bold'>fearful</p><br></br>",0.5,"",NA,"",NA,"","","",NA,NA,NA,"","","","",NA,NA
"","","","","","html-slider-response",28,111625,"0.0-14.0","p60bn1u3qr",25,NA,"<div style=""width:500px;"">
                            <p style=""font-size:50px; font-weight:bold;""
                            >fearful</p>
                            <div style=""width:240px; margin: auto;"">
                                <img src=""images/map07_vanimo_scaleRev_orientMir_000.png"" style= ""width:200px""alt=""img"">
                            </div>
                        </div>",0.295,"",0,"",NA,"","images/map07_vanimo_scaleRev_orientMir_000.png","fearful",1,7,7,"vanimo","orientMir","scaleRev","000",NA,NA
"","","","","","html-slider-response",29,113996,"0.0-15.0","p60bn1u3qr",25,NA,"<div style=""width:500px;"">
                            <p style=""font-size:50px; font-weight:bold;""
                            >fearful</p>
                            <div style=""width:240px; margin: auto;"">
                                <img src=""images/map15_OrRd_scaleRev_orientMir_000.png"" style= ""width:200px""alt=""img"">
                            </div>
                        </div>",0.6675,"",0,"",NA,"","images/map15_OrRd_scaleRev_orientMir_000.png","fearful",1,15,15,"OrRd","orientMir","scaleRev","000",NA,NA
"","","","","","html-slider-response",30,116944,"0.0-16.0","p60bn1u3qr",25,NA,"<div style=""width:500px;"">
                            <p style=""font-size:50px; font-weight:bold;""
                            >fearful</p>
                            <div style=""width:240px; margin: auto;"">
                                <img src=""images/map05_bwr_scaleRev_orientMir_000.png"" style= ""width:200px""alt=""img"">
                            </div>
                        </div>",0.185,"",0,"",NA,"","images/map05_bwr_scaleRev_orientMir_000.png","fearful",1,5,5,"bwr","orientMir","scaleRev","000",NA,NA
"","","","","","html-slider-response",31,120463,"0.0-17.0","p60bn1u3qr",25,NA,"<div style=""width:500px;"">
                            <p style=""font-size:50px; font-weight:bold;""
                            >fearful</p>
                            <div style=""width:240px; margin: auto;"">
                                <img src=""images/map26_BuGn_scaleDef_orientDef_270.png"" style= ""width:200px""alt=""img"">
                            </div>
                        </div>",0.7275,"",0,"",NA,"","images/map26_BuGn_scaleDef_orientDef_270.png","fearful",1,26,26,"BuGn","orientDef","scaleDef","270",NA,NA
"","","","","","html-slider-response",32,122796,"0.0-18.0","p60bn1u3qr",25,NA,"<div style=""width:500px;"">
                            <p style=""font-size:50px; font-weight:bold;""
                            >fearful</p>
                            <div style=""width:240px; margin: auto;"">
                                <img src=""images/map26_PuBuGn_scaleRev_orientDef_180.png"" style= ""width:200px""alt=""img"">
                            </div>
                        </div>",0.8325,"",0,"",NA,"","images/map26_PuBuGn_scaleRev_orientDef_180.png","fearful",1,26,26,"PuBuGn","orientDef","scaleRev","180",NA,NA
"","","","","","html-slider-response",33,125037,"0.0-19.0","p60bn1u3qr",25,NA,"<div style=""width:500px;"">
                            <p style=""font-size:50px; font-weight:bold;""
                            >fearful</p>
                            <div style=""width:240px; margin: auto;"">
                                <img src=""images/map13_Greens_scaleDef_orientDef_090.png"" style= ""width:200px""alt=""img"">
                            </div>
                        </div>",0.625,"",0,"",NA,"","images/map13_Greens_scaleDef_orientDef_090.png","fearful",1,13,13,"Greens","orientDef","scaleDef","090",NA,NA
"","","","","","html-slider-response",34,127044,"0.0-20.0","p60bn1u3qr",25,NA,"<div style=""width:500px;"">
                            <p style=""font-size:50px; font-weight:bold;""
                            >fearful</p>
                            <div style=""width:240px; margin: auto;"">
                                <img src=""images/map02_Spectral_scaleDef_orientMir_270.png"" style= ""width:200px""alt=""img"">
                            </div>
                        </div>",0.78,"",0,"",NA,"","images/map02_Spectral_scaleDef_orientMir_270.png","fearful",1,2,2,"Spectral","orientMir","scaleDef","270",NA,NA
"","","","","","html-slider-response",35,129019,"0.0-21.0","p60bn1u3qr",25,NA,"<div style=""width:500px;"">
                            <p style=""font-size:50px; font-weight:bold;""
                            >fearful</p>
                            <div style=""width:240px; margin: auto;"">
                                <img src=""images/map12_Greys_scaleDef_orientDef_270.png"" style= ""width:200px""alt=""img"">
                            </div>
                        </div>",1,"",0,"",NA,"","images/map12_Greys_scaleDef_orientDef_270.png","fearful",1,12,12,"Greys","orientDef","scaleDef","270",NA,NA
"","","","","","html-slider-response",36,130946,"0.0-22.0","p60bn1u3qr",25,NA,"<div style=""width:500px;"">
                            <p style=""font-size:50px; font-weight:bold;""
                            >fearful</p>
                            <div style=""width:240px; margin: auto;"">
                                <img src=""images/map12_magma_scaleRev_orientDef_000.png"" style= ""width:200px""alt=""img"">
                            </div>
                        </div>",0.9425,"",0,"",NA,"","images/map12_magma_scaleRev_orientDef_000.png","fearful",1,12,12,"magma","orientDef","scaleRev","000",NA,NA
"","","","","","html-slider-response",37,132742,"0.0-23.0","p60bn1u3qr",25,NA,"<div style=""width:500px;"">
                            <p style=""font-size:50px; font-weight:bold;""
                            >fearful</p>
                            <div style=""width:240px; margin: auto;"">
                                <img src=""images/map05_coolwarm_scaleDef_orientDef_090.png"" style= ""width:200px""alt=""img"">
                            </div>
                        </div>",0.3125,"",0,"",NA,"","images/map05_coolwarm_scaleDef_orientDef_090.png","fearful",1,5,5,"coolwarm","orientDef","scaleDef","090",NA,NA
"","","","","","html-slider-response",38,135194,"0.0-24.0","p60bn1u3qr",25,NA,"<div style=""width:500px;"">
                            <p style=""font-size:50px; font-weight:bold;""
                            >fearful</p>
                            <div style=""width:240px; margin: auto;"">
                                <img src=""images/map15_YlOrBr_scaleRev_orientDef_000.png"" style= ""width:200px""alt=""img"">
                            </div>
                        </div>",0.82,"",0,"",NA,"","images/map15_YlOrBr_scaleRev_orientDef_000.png","fearful",1,15,15,"YlOrBr","orientDef","scaleRev","000",NA,NA
"","","","","","html-slider-response",39,137730,"0.0-25.0","p60bn1u3qr",25,NA,"<div style=""width:500px;"">
                            <p style=""font-size:50px; font-weight:bold;""
                            >fearful</p>
                            <div style=""width:240px; margin: auto;"">
                                <img src=""images/map26_PiYG_scaleDef_orientMir_270.png"" style= ""width:200px""alt=""img"">
                            </div>
                        </div>",0.705,"",0,"",NA,"","images/map26_PiYG_scaleDef_orientMir_270.png","fearful",1,26,26,"PiYG","orientMir","scaleDef","270",NA,NA
"","","","","","html-slider-response",40,139668,"0.0-26.0","p60bn1u3qr",25,NA,"<div style=""width:500px;"">
                            <p style=""font-size:50px; font-weight:bold;""
                            >fearful</p>
                            <div style=""width:240px; margin: auto;"">
                                <img src=""images/map05_bwr_scaleDef_orientDef_270.png"" style= ""width:200px""alt=""img"">
                            </div>
                        </div>",0.345,"",0,"",NA,"","images/map05_bwr_scaleDef_orientDef_270.png","fearful",1,5,5,"bwr","orientDef","scaleDef","270",NA,NA
"","","","","","html-slider-response",41,141895,"0.0-27.0","p60bn1u3qr",25,NA,"<div style=""width:500px;"">
                            <p style=""font-size:50px; font-weight:bold;""
                            >fearful</p>
                            <div style=""width:240px; margin: auto;"">
                                <img src=""images/map15_PuRd_scaleRev_orientMir_180.png"" style= ""width:200px""alt=""img"">
                            </div>
                        </div>",0.1775,"",0,"",NA,"","images/map15_PuRd_scaleRev_orientMir_180.png","fearful",1,15,15,"PuRd","orientMir","scaleRev","180",NA,NA
"","","","","","html-slider-response",42,143663,"0.0-28.0","p60bn1u3qr",25,NA,"<div style=""width:500px;"">
                            <p style=""font-size:50px; font-weight:bold;""
                            >fearful</p>
                            <div style=""width:240px; margin: auto;"">
                                <img src=""images/map27_PuOr_scaleDef_orientMir_090.png"" style= ""width:200px""alt=""img"">
                            </div>
                        </div>",0.6175,"",0,"",NA,"","images/map27_PuOr_scaleDef_orientMir_090.png","fearful",1,27,27,"PuOr","orientMir","scaleDef","090",NA,NA
"","","","","","html-slider-response",43,145521,"0.0-29.0","p60bn1u3qr",25,NA,"<div style=""width:500px;"">
                            <p style=""font-size:50px; font-weight:bold;""
                            >fearful</p>
                            <div style=""width:240px; margin: auto;"">
                                <img src=""images/map13_Reds_scaleDef_orientMir_090.png"" style= ""width:200px""alt=""img"">
                            </div>
                        </div>",0.69,"",0,"",NA,"","images/map13_Reds_scaleDef_orientMir_090.png","fearful",1,13,13,"Reds","orientMir","scaleDef","090",NA,NA
"","","","","","html-slider-response",44,147392,"0.0-30.0","p60bn1u3qr",25,NA,"<div style=""width:500px;"">
                            <p style=""font-size:50px; font-weight:bold;""
                            >fearful</p>
                            <div style=""width:240px; margin: auto;"">
                                <img src=""images/map02_RdYlGn_scaleRev_orientMir_180.png"" style= ""width:200px""alt=""img"">
                            </div>
                        </div>",0.7425,"",0,"",NA,"","images/map02_RdYlGn_scaleRev_orientMir_180.png","fearful",1,2,2,"RdYlGn","orientMir","scaleRev","180",NA,NA
"","","","","","html-slider-response",45,149064,"0.0-31.0","p60bn1u3qr",25,NA,"<div style=""width:500px;"">
                            <p style=""font-size:50px; font-weight:bold;""
                            >fearful</p>
                            <div style=""width:240px; margin: auto;"">
                                <img src=""images/map26_PuBuGn_scaleDef_orientDef_090.png"" style= ""width:200px""alt=""img"">
                            </div>
                        </div>",0.3125,"",0,"",NA,"","images/map26_PuBuGn_scaleDef_orientDef_090.png","fearful",1,26,26,"PuBuGn","orientDef","scaleDef","090",NA,NA
"","","","","","html-slider-response",46,151315,"0.0-32.0","p60bn1u3qr",25,NA,"<div style=""width:500px;"">
                            <p style=""font-size:50px; font-weight:bold;""
                            >fearful</p>
                            <div style=""width:240px; margin: auto;"">
                                <img src=""images/map27_RdGy_scaleDef_orientMir_270.png"" style= ""width:200px""alt=""img"">
                            </div>
                        </div>",0.82,"",0,"",NA,"","images/map27_RdGy_scaleDef_orientMir_270.png","fearful",1,27,27,"RdGy","orientMir","scaleDef","270",NA,NA
"","","","","","html-slider-response",47,153105,"0.0-33.0","p60bn1u3qr",25,NA,"<div style=""width:500px;"">
                            <p style=""font-size:50px; font-weight:bold;""
                            >fearful</p>
                            <div style=""width:240px; margin: auto;"">
                                <img src=""images/map10_plasma_scaleDef_orientDef_270.png"" style= ""width:200px""alt=""img"">
                            </div>
                        </div>",0.86,"",0,"",NA,"","images/map10_plasma_scaleDef_orientDef_270.png","fearful",1,10,10,"plasma","orientDef","scaleDef","270",NA,NA
"","","","","","html-slider-response",48,154787,"0.0-34.0","p60bn1u3qr",25,NA,"<div style=""width:500px;"">
                            <p style=""font-size:50px; font-weight:bold;""
                            >fearful</p>
                            <div style=""width:240px; margin: auto;"">
                                <img src=""images/map15_YlOrRd_scaleDef_orientDef_090.png"" style= ""width:200px""alt=""img"">
                            </div>
                        </div>",0.8375,"",0,"",NA,"","images/map15_YlOrRd_scaleDef_orientDef_090.png","fearful",1,15,15,"YlOrRd","orientDef","scaleDef","090",NA,NA
"","","","","","html-slider-response",49,156616,"0.0-35.0","p60bn1u3qr",25,NA,"<div style=""width:500px;"">
                            <p style=""font-size:50px; font-weight:bold;""
                            >fearful</p>
                            <div style=""width:240px; margin: auto;"">
                                <img src=""images/map05_coolwarm_scaleRev_orientDef_180.png"" style= ""width:200px""alt=""img"">
                            </div>
                        </div>",0.225,"",0,"",NA,"","images/map05_coolwarm_scaleRev_orientDef_180.png","fearful",1,5,5,"coolwarm","orientDef","scaleRev","180",NA,NA
"","","","","","html-slider-response",50,158582,"0.0-36.0","p60bn1u3qr",25,NA,"<div style=""width:500px;"">
                            <p style=""font-size:50px; font-weight:bold;""
                            >fearful</p>
                            <div style=""width:240px; margin: auto;"">
                                <img src=""images/map27_BrBG_scaleDef_orientDef_270.png"" style= ""width:200px""alt=""img"">
                            </div>
                        </div>",0.2,"",0,"",NA,"","images/map27_BrBG_scaleDef_orientDef_270.png","fearful",1,27,27,"BrBG","orientDef","scaleDef","270",NA,NA
"","","","","","html-slider-response",51,160456,"0.0-37.0","p60bn1u3qr",25,NA,"<div style=""width:500px;"">
                            <p style=""font-size:50px; font-weight:bold;""
                            >fearful</p>
                            <div style=""width:240px; margin: auto;"">
                                <img src=""images/map13_YlOrBr_scaleDef_orientMir_270.png"" style= ""width:200px""alt=""img"">
                            </div>
                        </div>",0.79,"",0,"",NA,"","images/map13_YlOrBr_scaleDef_orientMir_270.png","fearful",1,13,13,"YlOrBr","orientMir","scaleDef","270",NA,NA
"","","","","","html-slider-response",52,162290,"0.0-38.0","p60bn1u3qr",25,NA,"<div style=""width:500px;"">
                            <p style=""font-size:50px; font-weight:bold;""
                            >fearful</p>
                            <div style=""width:240px; margin: auto;"">
                                <img src=""images/map10_inferno_scaleDef_orientMir_090.png"" style= ""width:200px""alt=""img"">
                            </div>
                        </div>",0.7925,"",0,"",NA,"","images/map10_inferno_scaleDef_orientMir_090.png","fearful",1,10,10,"inferno","orientMir","scaleDef","090",NA,NA
"","","","","","html-slider-response",53,164208,"0.0-39.0","p60bn1u3qr",25,NA,"<div style=""width:500px;"">
                            <p style=""font-size:50px; font-weight:bold;""
                            >fearful</p>
                            <div style=""width:240px; margin: auto;"">
                                <img src=""images/map12_Purples_scaleRev_orientMir_180.png"" style= ""width:200px""alt=""img"">
                            </div>
                        </div>",0.1675,"",0,"",NA,"","images/map12_Purples_scaleRev_orientMir_180.png","fearful",1,12,12,"Purples","orientMir","scaleRev","180",NA,NA
"","","","","","html-slider-response",54,170142,"0.0-40.0","p60bn1u3qr",25,NA,"<div style=""width:500px;"">
                            <p style=""font-size:50px; font-weight:bold;""
                            >fearful</p>
                            <div style=""width:240px; margin: auto;"">
                                <img src=""images/map23_BuPu_scaleRev_orientDef_180.png"" style= ""width:200px""alt=""img"">
                            </div>
                        </div>",0.7275,"",0,"",NA,"","images/map23_BuPu_scaleRev_orientDef_180.png","fearful",1,23,23,"BuPu","orientDef","scaleRev","180",NA,NA
"","","","","","html-slider-response",55,172913,"0.0-41.0","p60bn1u3qr",25,NA,"<div style=""width:500px;"">
                            <p style=""font-size:50px; font-weight:bold;""
                            >fearful</p>
                            <div style=""width:240px; margin: auto;"">
                                <img src=""images/map02_RdYlGn_scaleDef_orientMir_090.png"" style= ""width:200px""alt=""img"">
                            </div>
                        </div>",0.85,"",0,"",NA,"","images/map02_RdYlGn_scaleDef_orientMir_090.png","fearful",1,2,2,"RdYlGn","orientMir","scaleDef","090",NA,NA
"","","","","","html-slider-response",56,174863,"0.0-42.0","p60bn1u3qr",25,NA,"<div style=""width:500px;"">
                            <p style=""font-size:50px; font-weight:bold;""
                            >fearful</p>
                            <div style=""width:240px; margin: auto;"">
                                <img src=""images/map23_PuBu_scaleRev_orientMir_180.png"" style= ""width:200px""alt=""img"">
                            </div>
                        </div>",0.2125,"",0,"",NA,"","images/map23_PuBu_scaleRev_orientMir_180.png","fearful",1,23,23,"PuBu","orientMir","scaleRev","180",NA,NA
"","","","","","html-slider-response",57,178373,"0.0-43.0","p60bn1u3qr",25,NA,"<div style=""width:500px;"">
                            <p style=""font-size:50px; font-weight:bold;""
                            >fearful</p>
                            <div style=""width:240px; margin: auto;"">
                                <img src=""images/map27_PRGn_scaleDef_orientDef_090.png"" style= ""width:200px""alt=""img"">
                            </div>
                        </div>",0.285,"",0,"",NA,"","images/map27_PRGn_scaleDef_orientDef_090.png","fearful",1,27,27,"PRGn","orientDef","scaleDef","090",NA,NA
"","","","","","html-slider-response",58,180025,"0.0-44.0","p60bn1u3qr",25,NA,"<div style=""width:500px;"">
                            <p style=""font-size:50px; font-weight:bold;""
                            >fearful</p>
                            <div style=""width:240px; margin: auto;"">
                                <img src=""images/map10_magma_scaleDef_orientMir_270.png"" style= ""width:200px""alt=""img"">
                            </div>
                        </div>",0.785,"",0,"",NA,"","images/map10_magma_scaleDef_orientMir_270.png","fearful",1,10,10,"magma","orientMir","scaleDef","270",NA,NA
"","","","","","html-slider-response",59,181998,"0.0-45.0","p60bn1u3qr",25,NA,"<div style=""width:500px;"">
                            <p style=""font-size:50px; font-weight:bold;""
                            >fearful</p>
                            <div style=""width:240px; margin: auto;"">
                                <img src=""images/map27_PuOr_scaleRev_orientMir_180.png"" style= ""width:200px""alt=""img"">
                            </div>
                        </div>",0.35,"",0,"",NA,"","images/map27_PuOr_scaleRev_orientMir_180.png","fearful",1,27,27,"PuOr","orientMir","scaleRev","180",NA,NA
"","","","","","html-slider-response",60,183755,"0.0-46.0","p60bn1u3qr",25,NA,"<div style=""width:500px;"">
                            <p style=""font-size:50px; font-weight:bold;""
                            >fearful</p>
                            <div style=""width:240px; margin: auto;"">
                                <img src=""images/map02_RdBu_scaleRev_orientDef_180.png"" style= ""width:200px""alt=""img"">
                            </div>
                        </div>",0.2825,"",0,"",NA,"","images/map02_RdBu_scaleRev_orientDef_180.png","fearful",1,2,2,"RdBu","orientDef","scaleRev","180",NA,NA
"","","","","","html-slider-response",61,185554,"0.0-47.0","p60bn1u3qr",25,NA,"<div style=""width:500px;"">
                            <p style=""font-size:50px; font-weight:bold;""
                            >fearful</p>
                            <div style=""width:240px; margin: auto;"">
                                <img src=""images/map26_YlGn_scaleDef_orientMir_090.png"" style= ""width:200px""alt=""img"">
                            </div>
                        </div>",0.415,"",0,"",NA,"","images/map26_YlGn_scaleDef_orientMir_090.png","fearful",1,26,26,"YlGn","orientMir","scaleDef","090",NA,NA
"","","","","","html-slider-response",62,187656,"0.0-48.0","p60bn1u3qr",25,NA,"<div style=""width:500px;"">
                            <p style=""font-size:50px; font-weight:bold;""
                            >fearful</p>
                            <div style=""width:240px; margin: auto;"">
                                <img src=""images/map12_Purples_scaleDef_orientMir_090.png"" style= ""width:200px""alt=""img"">
                            </div>
                        </div>",0.4375,"",0,"",NA,"","images/map12_Purples_scaleDef_orientMir_090.png","fearful",1,12,12,"Purples","orientMir","scaleDef","090",NA,NA
"","","","","","html-slider-response",63,189323,"0.0-49.0","p60bn1u3qr",25,NA,"<div style=""width:500px;"">
                            <p style=""font-size:50px; font-weight:bold;""
                            >fearful</p>
                            <div style=""width:240px; margin: auto;"">
                                <img src=""images/map10_inferno_scaleRev_orientMir_180.png"" style= ""width:200px""alt=""img"">
                            </div>
                        </div>",0.95,"",0,"",NA,"","images/map10_inferno_scaleRev_orientMir_180.png","fearful",1,10,10,"inferno","orientMir","scaleRev","180",NA,NA
"","","","","","html-slider-response",64,191200,"0.0-50.0","p60bn1u3qr",25,NA,"<div style=""width:500px;"">
                            <p style=""font-size:50px; font-weight:bold;""
                            >fearful</p>
                            <div style=""width:240px; margin: auto;"">
                                <img src=""images/map26_YlGn_scaleRev_orientMir_180.png"" style= ""width:200px""alt=""img"">
                            </div>
                        </div>",0.575,"",0,"",NA,"","images/map26_YlGn_scaleRev_orientMir_180.png","fearful",1,26,26,"YlGn","orientMir","scaleRev","180",NA,NA
"","","","","","html-slider-response",65,193118,"0.0-51.0","p60bn1u3qr",25,NA,"<div style=""width:500px;"">
                            <p style=""font-size:50px; font-weight:bold;""
                            >fearful</p>
                            <div style=""width:240px; margin: auto;"">
                                <img src=""images/map15_PuRd_scaleDef_orientMir_090.png"" style= ""width:200px""alt=""img"">
                            </div>
                        </div>",0.295,"",0,"",NA,"","images/map15_PuRd_scaleDef_orientMir_090.png","fearful",1,15,15,"PuRd","orientMir","scaleDef","090",NA,NA
"","","","","","html-slider-response",66,194963,"0.0-52.0","p60bn1u3qr",25,NA,"<div style=""width:500px;"">
                            <p style=""font-size:50px; font-weight:bold;""
                            >fearful</p>
                            <div style=""width:240px; margin: auto;"">
                                <img src=""images/map12_Greys_scaleRev_orientMir_000.png"" style= ""width:200px""alt=""img"">
                            </div>
                        </div>",0.9425,"",0,"",NA,"","images/map12_Greys_scaleRev_orientMir_000.png","fearful",1,12,12,"Greys","orientMir","scaleRev","000",NA,NA
"","","","","","html-slider-response",67,197036,"0.0-53.0","p60bn1u3qr",25,NA,"<div style=""width:500px;"">
                            <p style=""font-size:50px; font-weight:bold;""
                            >fearful</p>
                            <div style=""width:240px; margin: auto;"">
                                <img src=""images/map13_Blues_scaleRev_orientDef_000.png"" style= ""width:200px""alt=""img"">
                            </div>
                        </div>",0.9075,"",0,"",NA,"","images/map13_Blues_scaleRev_orientDef_000.png","fearful",1,13,13,"Blues","orientDef","scaleRev","000",NA,NA
"","","","","","html-button-response",68,198750,"0.0-54.0","p60bn1u3qr",25,1211,"<p>You are doing great!<br></br> You are halway done with the current block. When you are ready to continue, click the 'Continue' button.</p>",0.5,"",NA,"",NA,"","","",NA,NA,NA,"","","","",NA,NA
"","","","","","html-slider-response",69,200241,"0.0-55.0","p60bn1u3qr",25,NA,"<div style=""width:500px;"">
                            <p style=""font-size:50px; font-weight:bold;""
                            >fearful</p>
                            <div style=""width:240px; margin: auto;"">
                                <img src=""images/map27_PiYG_scaleRev_orientDef_000.png"" style= ""width:200px""alt=""img"">
                            </div>
                        </div>",0.31,"",0,"",NA,"","images/map27_PiYG_scaleRev_orientDef_000.png","fearful",1,27,27,"PiYG","orientDef","scaleRev","000",NA,NA
"","","","","","html-slider-response",70,202028,"0.0-56.0","p60bn1u3qr",25,NA,"<div style=""width:500px;"">
                            <p style=""font-size:50px; font-weight:bold;""
                            >fearful</p>
                            <div style=""width:240px; margin: auto;"">
                                <img src=""images/map10_plasma_scaleRev_orientMir_000.png"" style= ""width:200px""alt=""img"">
                            </div>
                        </div>",0.86,"",0,"",NA,"","images/map10_plasma_scaleRev_orientMir_000.png","fearful",1,10,10,"plasma","orientMir","scaleRev","000",NA,NA
"","","","","","html-slider-response",71,203696,"0.0-57.0","p60bn1u3qr",25,NA,"<div style=""width:500px;"">
                            <p style=""font-size:50px; font-weight:bold;""
                            >fearful</p>
                            <div style=""width:240px; margin: auto;"">
                                <img src=""images/map26_BuGn_scaleRev_orientMir_000.png"" style= ""width:200px""alt=""img"">
                            </div>
                        </div>",0.2775,"",0,"",NA,"","images/map26_BuGn_scaleRev_orientMir_000.png","fearful",1,26,26,"BuGn","orientMir","scaleRev","000",NA,NA
"","","","","","html-slider-response",72,205479,"0.0-58.0","p60bn1u3qr",25,NA,"<div style=""width:500px;"">
                            <p style=""font-size:50px; font-weight:bold;""
                            >fearful</p>
                            <div style=""width:240px; margin: auto;"">
                                <img src=""images/map02_RdYlBu_scaleRev_orientMir_000.png"" style= ""width:200px""alt=""img"">
                            </div>
                        </div>",0.74,"",0,"",NA,"","images/map02_RdYlBu_scaleRev_orientMir_000.png","fearful",1,2,2,"RdYlBu","orientMir","scaleRev","000",NA,NA
"","","","","","html-slider-response",73,207210,"0.0-59.0","p60bn1u3qr",25,NA,"<div style=""width:500px;"">
                            <p style=""font-size:50px; font-weight:bold;""
                            >fearful</p>
                            <div style=""width:240px; margin: auto;"">
                                <img src=""images/map13_Oranges_scaleRev_orientMir_000.png"" style= ""width:200px""alt=""img"">
                            </div>
                        </div>",0.805,"",0,"",NA,"","images/map13_Oranges_scaleRev_orientMir_000.png","fearful",1,13,13,"Oranges","orientMir","scaleRev","000",NA,NA
"","","","","","html-slider-response",74,208965,"0.0-60.0","p60bn1u3qr",25,NA,"<div style=""width:500px;"">
                            <p style=""font-size:50px; font-weight:bold;""
                            >fearful</p>
                            <div style=""width:240px; margin: auto;"">
                                <img src=""images/map15_RdPu_scaleDef_orientMir_270.png"" style= ""width:200px""alt=""img"">
                            </div>
                        </div>",0.815,"",0,"",NA,"","images/map15_RdPu_scaleDef_orientMir_270.png","fearful",1,15,15,"RdPu","orientMir","scaleDef","270",NA,NA
"","","","","","html-slider-response",75,210915,"0.0-61.0","p60bn1u3qr",25,NA,"<div style=""width:500px;"">
                            <p style=""font-size:50px; font-weight:bold;""
                            >fearful</p>
                            <div style=""width:240px; margin: auto;"">
                                <img src=""images/map26_YlGnBu_scaleRev_orientDef_000.png"" style= ""width:200px""alt=""img"">
                            </div>
                        </div>",0.1775,"",0,"",NA,"","images/map26_YlGnBu_scaleRev_orientDef_000.png","fearful",1,26,26,"YlGnBu","orientDef","scaleRev","000",NA,NA
"","","","","","html-slider-response",76,212737,"0.0-62.0","p60bn1u3qr",25,NA,"<div style=""width:500px;"">
                            <p style=""font-size:50px; font-weight:bold;""
                            >fearful</p>
                            <div style=""width:240px; margin: auto;"">
                                <img src=""images/map13_Oranges_scaleDef_orientDef_270.png"" style= ""width:200px""alt=""img"">
                            </div>
                        </div>",0.805,"",0,"",NA,"","images/map13_Oranges_scaleDef_orientDef_270.png","fearful",1,13,13,"Oranges","orientDef","scaleDef","270",NA,NA
"","","","","","html-slider-response",77,214597,"0.0-63.0","p60bn1u3qr",25,NA,"<div style=""width:500px;"">
                            <p style=""font-size:50px; font-weight:bold;""
                            >fearful</p>
                            <div style=""width:240px; margin: auto;"">
                                <img src=""images/map07_gist_earth_scaleRev_orientMir_180.png"" style= ""width:200px""alt=""img"">
                            </div>
                        </div>",0.7975,"",0,"",NA,"","images/map07_gist_earth_scaleRev_orientMir_180.png","fearful",1,7,7,"gist","scaleRev","earth","orientMir",NA,NA
"","","","","","html-slider-response",78,216402,"0.0-64.0","p60bn1u3qr",25,NA,"<div style=""width:500px;"">
                            <p style=""font-size:50px; font-weight:bold;""
                            >fearful</p>
                            <div style=""width:240px; margin: auto;"">
                                <img src=""images/map07_berlin_scaleRev_orientDef_000.png"" style= ""width:200px""alt=""img"">
                            </div>
                        </div>",0.8975,"",0,"",NA,"","images/map07_berlin_scaleRev_orientDef_000.png","fearful",1,7,7,"berlin","orientDef","scaleRev","000",NA,NA
"","","","","","html-slider-response",79,218151,"0.0-65.0","p60bn1u3qr",25,NA,"<div style=""width:500px;"">
                            <p style=""font-size:50px; font-weight:bold;""
                            >fearful</p>
                            <div style=""width:240px; margin: auto;"">
                                <img src=""images/map07_turbo_scaleDef_orientMir_270.png"" style= ""width:200px""alt=""img"">
                            </div>
                        </div>",0.88,"",0,"",NA,"","images/map07_turbo_scaleDef_orientMir_270.png","fearful",1,7,7,"turbo","orientMir","scaleDef","270",NA,NA
"","","","","","html-slider-response",80,219794,"0.0-66.0","p60bn1u3qr",25,NA,"<div style=""width:500px;"">
                            <p style=""font-size:50px; font-weight:bold;""
                            >fearful</p>
                            <div style=""width:240px; margin: auto;"">
                                <img src=""images/map27_PRGn_scaleRev_orientDef_180.png"" style= ""width:200px""alt=""img"">
                            </div>
                        </div>",0.8325,"",0,"",NA,"","images/map27_PRGn_scaleRev_orientDef_180.png","fearful",1,27,27,"PRGn","orientDef","scaleRev","180",NA,NA
"","","","","","html-slider-response",81,221582,"0.0-67.0","p60bn1u3qr",25,NA,"<div style=""width:500px;"">
                            <p style=""font-size:50px; font-weight:bold;""
                            >fearful</p>
                            <div style=""width:240px; margin: auto;"">
                                <img src=""images/map15_OrRd_scaleDef_orientDef_270.png"" style= ""width:200px""alt=""img"">
                            </div>
                        </div>",0.855,"",0,"",NA,"","images/map15_OrRd_scaleDef_orientDef_270.png","fearful",1,15,15,"OrRd","orientDef","scaleDef","270",NA,NA
"","","","","","html-slider-response",82,223581,"0.0-68.0","p60bn1u3qr",25,NA,"<div style=""width:500px;"">
                            <p style=""font-size:50px; font-weight:bold;""
                            >fearful</p>
                            <div style=""width:240px; margin: auto;"">
                                <img src=""images/map12_Blues_scaleDef_orientMir_270.png"" style= ""width:200px""alt=""img"">
                            </div>
                        </div>",0.265,"",0,"",NA,"","images/map12_Blues_scaleDef_orientMir_270.png","fearful",1,12,12,"Blues","orientMir","scaleDef","270",NA,NA
"","","","","","html-slider-response",83,225580,"0.0-69.0","p60bn1u3qr",25,NA,"<div style=""width:500px;"">
                            <p style=""font-size:50px; font-weight:bold;""
                            >fearful</p>
                            <div style=""width:240px; margin: auto;"">
                                <img src=""images/map12_cividis_scaleDef_orientDef_090.png"" style= ""width:200px""alt=""img"">
                            </div>
                        </div>",0.8125,"",0,"",NA,"","images/map12_cividis_scaleDef_orientDef_090.png","fearful",1,12,12,"cividis","orientDef","scaleDef","090",NA,NA
"","","","","","html-slider-response",84,227354,"0.0-70.0","p60bn1u3qr",25,NA,"<div style=""width:500px;"">
                            <p style=""font-size:50px; font-weight:bold;""
                            >fearful</p>
                            <div style=""width:240px; margin: auto;"">
                                <img src=""images/map27_BrBG_scaleRev_orientMir_000.png"" style= ""width:200px""alt=""img"">
                            </div>
                        </div>",0.77,"",0,"",NA,"","images/map27_BrBG_scaleRev_orientMir_000.png","fearful",1,27,27,"BrBG","orientMir","scaleRev","000",NA,NA
"","","","","","html-slider-response",85,229190,"0.0-71.0","p60bn1u3qr",25,NA,"<div style=""width:500px;"">
                            <p style=""font-size:50px; font-weight:bold;""
                            >fearful</p>
                            <div style=""width:240px; margin: auto;"">
                                <img src=""images/map07_managua_scaleDef_orientDef_090.png"" style= ""width:200px""alt=""img"">
                            </div>
                        </div>",0.635,"",0,"",NA,"","images/map07_managua_scaleDef_orientDef_090.png","fearful",1,7,7,"managua","orientDef","scaleDef","090",NA,NA
"","","","","","html-slider-response",86,231099,"0.0-72.0","p60bn1u3qr",25,NA,"<div style=""width:500px;"">
                            <p style=""font-size:50px; font-weight:bold;""
                            >fearful</p>
                            <div style=""width:240px; margin: auto;"">
                                <img src=""images/map07_managua_scaleRev_orientDef_180.png"" style= ""width:200px""alt=""img"">
                            </div>
                        </div>",0.6475,"",0,"",NA,"","images/map07_managua_scaleRev_orientDef_180.png","fearful",1,7,7,"managua","orientDef","scaleRev","180",NA,NA
"","","","","","html-slider-response",87,233463,"0.0-73.0","p60bn1u3qr",25,NA,"<div style=""width:500px;"">
                            <p style=""font-size:50px; font-weight:bold;""
                            >fearful</p>
                            <div style=""width:240px; margin: auto;"">
                                <img src=""images/map23_RdPu_scaleRev_orientDef_000.png"" style= ""width:200px""alt=""img"">
                            </div>
                        </div>",0.4,"",0,"",NA,"","images/map23_RdPu_scaleRev_orientDef_000.png","fearful",1,23,23,"RdPu","orientDef","scaleRev","000",NA,NA
"","","","","","html-slider-response",88,235307,"0.0-74.0","p60bn1u3qr",25,NA,"<div style=""width:500px;"">
                            <p style=""font-size:50px; font-weight:bold;""
                            >fearful</p>
                            <div style=""width:240px; margin: auto;"">
                                <img src=""images/map23_PuBu_scaleDef_orientMir_090.png"" style= ""width:200px""alt=""img"">
                            </div>
                        </div>",0.365,"",0,"",NA,"","images/map23_PuBu_scaleDef_orientMir_090.png","fearful",1,23,23,"PuBu","orientMir","scaleDef","090",NA,NA
"","","","","","html-slider-response",89,237096,"0.0-75.0","p60bn1u3qr",25,NA,"<div style=""width:500px;"">
                            <p style=""font-size:50px; font-weight:bold;""
                            >fearful</p>
                            <div style=""width:240px; margin: auto;"">
                                <img src=""images/map13_Reds_scaleRev_orientMir_180.png"" style= ""width:200px""alt=""img"">
                            </div>
                        </div>",0.78,"",0,"",NA,"","images/map13_Reds_scaleRev_orientMir_180.png","fearful",1,13,13,"Reds","orientMir","scaleRev","180",NA,NA
"","","","","","html-slider-response",90,238682,"0.0-76.0","p60bn1u3qr",25,NA,"<div style=""width:500px;"">
                            <p style=""font-size:50px; font-weight:bold;""
                            >fearful</p>
                            <div style=""width:240px; margin: auto;"">
                                <img src=""images/map05_berlin_scaleDef_orientMir_270.png"" style= ""width:200px""alt=""img"">
                            </div>
                        </div>",0.8575,"",0,"",NA,"","images/map05_berlin_scaleDef_orientMir_270.png","fearful",1,5,5,"berlin","orientMir","scaleDef","270",NA,NA
"","","","","","html-slider-response",91,240396,"0.0-77.0","p60bn1u3qr",25,NA,"<div style=""width:500px;"">
                            <p style=""font-size:50px; font-weight:bold;""
                            >fearful</p>
                            <div style=""width:240px; margin: auto;"">
                                <img src=""images/map02_RdGy_scaleRev_orientDef_000.png"" style= ""width:200px""alt=""img"">
                            </div>
                        </div>",0.65,"",0,"",NA,"","images/map02_RdGy_scaleRev_orientDef_000.png","fearful",1,2,2,"RdGy","orientDef","scaleRev","000",NA,NA
"","","","","","html-slider-response",92,242534,"0.0-78.0","p60bn1u3qr",25,NA,"<div style=""width:500px;"">
                            <p style=""font-size:50px; font-weight:bold;""
                            >fearful</p>
                            <div style=""width:240px; margin: auto;"">
                                <img src=""images/map10_viridis_scaleDef_orientDef_090.png"" style= ""width:200px""alt=""img"">
                            </div>
                        </div>",0.64,"",0,"",NA,"","images/map10_viridis_scaleDef_orientDef_090.png","fearful",1,10,10,"viridis","orientDef","scaleDef","090",NA,NA
"","","","","","html-slider-response",93,244598,"0.0-79.0","p60bn1u3qr",25,NA,"<div style=""width:500px;"">
                            <p style=""font-size:50px; font-weight:bold;""
                            >fearful</p>
                            <div style=""width:240px; margin: auto;"">
                                <img src=""images/map23_BuPu_scaleDef_orientDef_090.png"" style= ""width:200px""alt=""img"">
                            </div>
                        </div>",0.665,"",0,"",NA,"","images/map23_BuPu_scaleDef_orientDef_090.png","fearful",1,23,23,"BuPu","orientDef","scaleDef","090",NA,NA
"","","","","","html-slider-response",94,246297,"0.0-80.0","p60bn1u3qr",25,NA,"<div style=""width:500px;"">
                            <p style=""font-size:50px; font-weight:bold;""
                            >fearful</p>
                            <div style=""width:240px; margin: auto;"">
                                <img src=""images/map07_gist_earth_scaleDef_orientMir_090.png"" style= ""width:200px""alt=""img"">
                            </div>
                        </div>",0.8225,"",0,"",NA,"","images/map07_gist_earth_scaleDef_orientMir_090.png","fearful",1,7,7,"gist","scaleDef","earth","orientMir",NA,NA
"","","","","","html-slider-response",95,248508,"0.0-81.0","p60bn1u3qr",25,NA,"<div style=""width:500px;"">
                            <p style=""font-size:50px; font-weight:bold;""
                            >fearful</p>
                            <div style=""width:240px; margin: auto;"">
                                <img src=""images/map10_viridis_scaleRev_orientDef_180.png"" style= ""width:200px""alt=""img"">
                            </div>
                        </div>",0.74,"",0,"",NA,"","images/map10_viridis_scaleRev_orientDef_180.png","fearful",1,10,10,"viridis","orientDef","scaleRev","180",NA,NA
"","","","","","html-slider-response",96,250125,"0.0-82.0","p60bn1u3qr",25,NA,"<div style=""width:500px;"">
                            <p style=""font-size:50px; font-weight:bold;""
                            >fearful</p>
                            <div style=""width:240px; margin: auto;"">
                                <img src=""images/map07_vanimo_scaleDef_orientDef_270.png"" style= ""width:200px""alt=""img"">
                            </div>
                        </div>",0.75,"",0,"",NA,"","images/map07_vanimo_scaleDef_orientDef_270.png","fearful",1,7,7,"vanimo","orientDef","scaleDef","270",NA,NA
"","","","","","html-slider-response",97,251939,"0.0-83.0","p60bn1u3qr",25,NA,"<div style=""width:500px;"">
                            <p style=""font-size:50px; font-weight:bold;""
                            >fearful</p>
                            <div style=""width:240px; margin: auto;"">
                                <img src=""images/map23_GnBu_scaleDef_orientDef_270.png"" style= ""width:200px""alt=""img"">
                            </div>
                        </div>",0.25,"",0,"",NA,"","images/map23_GnBu_scaleDef_orientDef_270.png","fearful",1,23,23,"GnBu","orientDef","scaleDef","270",NA,NA
"","","","","","html-slider-response",98,253980,"0.0-84.0","p60bn1u3qr",25,NA,"<div style=""width:500px;"">
                            <p style=""font-size:50px; font-weight:bold;""
                            >fearful</p>
                            <div style=""width:240px; margin: auto;"">
                                <img src=""images/map05_Spectral_scaleRev_orientDef_000.png"" style= ""width:200px""alt=""img"">
                            </div>
                        </div>",0.7175,"",0,"",NA,"","images/map05_Spectral_scaleRev_orientDef_000.png","fearful",1,5,5,"Spectral","orientDef","scaleRev","000",NA,NA
"","","","","","html-slider-response",99,255863,"0.0-85.0","p60bn1u3qr",25,NA,"<div style=""width:500px;"">
                            <p style=""font-size:50px; font-weight:bold;""
                            >fearful</p>
                            <div style=""width:240px; margin: auto;"">
                                <img src=""images/map23_YlGnBu_scaleDef_orientMir_270.png"" style= ""width:200px""alt=""img"">
                            </div>
                        </div>",0.35,"",0,"",NA,"","images/map23_YlGnBu_scaleDef_orientMir_270.png","fearful",1,23,23,"YlGnBu","orientMir","scaleDef","270",NA,NA
"","","","","","html-slider-response",100,257731,"0.0-86.0","p60bn1u3qr",25,NA,"<div style=""width:500px;"">
                            <p style=""font-size:50px; font-weight:bold;""
                            >fearful</p>
                            <div style=""width:240px; margin: auto;"">
                                <img src=""images/map02_RdYlBu_scaleDef_orientDef_270.png"" style= ""width:200px""alt=""img"">
                            </div>
                        </div>",0.6425,"",0,"",NA,"","images/map02_RdYlBu_scaleDef_orientDef_270.png","fearful",1,2,2,"RdYlBu","orientDef","scaleDef","270",NA,NA
"","","","","","html-slider-response",101,259496,"0.0-87.0","p60bn1u3qr",25,NA,"<div style=""width:500px;"">
                            <p style=""font-size:50px; font-weight:bold;""
                            >fearful</p>
                            <div style=""width:240px; margin: auto;"">
                                <img src=""images/map23_GnBu_scaleRev_orientMir_000.png"" style= ""width:200px""alt=""img"">
                            </div>
                        </div>",0.29,"",0,"",NA,"","images/map23_GnBu_scaleRev_orientMir_000.png","fearful",1,23,23,"GnBu","orientMir","scaleRev","000",NA,NA
"","","","","","html-slider-response",102,261439,"0.0-88.0","p60bn1u3qr",25,NA,"<div style=""width:500px;"">
                            <p style=""font-size:50px; font-weight:bold;""
                            >fearful</p>
                            <div style=""width:240px; margin: auto;"">
                                <img src=""images/map13_Greens_scaleRev_orientDef_180.png"" style= ""width:200px""alt=""img"">
                            </div>
                        </div>",0.665,"",0,"",NA,"","images/map13_Greens_scaleRev_orientDef_180.png","fearful",1,13,13,"Greens","orientDef","scaleRev","180",NA,NA
"","","","","","html-slider-response",103,263330,"0.0-89.0","p60bn1u3qr",25,NA,"<div style=""width:500px;"">
                            <p style=""font-size:50px; font-weight:bold;""
                            >fearful</p>
                            <div style=""width:240px; margin: auto;"">
                                <img src=""images/map12_cividis_scaleRev_orientDef_180.png"" style= ""width:200px""alt=""img"">
                            </div>
                        </div>",0.755,"",0,"",NA,"","images/map12_cividis_scaleRev_orientDef_180.png","fearful",1,12,12,"cividis","orientDef","scaleRev","180",NA,NA
"","","","","","html-slider-response",104,265323,"0.0-90.0","p60bn1u3qr",25,NA,"<div style=""width:500px;"">
                            <p style=""font-size:50px; font-weight:bold;""
                            >fearful</p>
                            <div style=""width:240px; margin: auto;"">
                                <img src=""images/map02_RdBu_scaleDef_orientDef_090.png"" style= ""width:200px""alt=""img"">
                            </div>
                        </div>",0.3525,"",0,"",NA,"","images/map02_RdBu_scaleDef_orientDef_090.png","fearful",1,2,2,"RdBu","orientDef","scaleDef","090",NA,NA
"","","","","","html-slider-response",105,267056,"0.0-91.0","p60bn1u3qr",25,NA,"<div style=""width:500px;"">
                            <p style=""font-size:50px; font-weight:bold;""
                            >fearful</p>
                            <div style=""width:240px; margin: auto;"">
                                <img src=""images/map10_turbo_scaleRev_orientDef_000.png"" style= ""width:200px""alt=""img"">
                            </div>
                        </div>",0.785,"",0,"",NA,"","images/map10_turbo_scaleRev_orientDef_000.png","fearful",1,10,10,"turbo","orientDef","scaleRev","000",NA,NA
"","","","","","html-slider-response",106,268647,"0.0-92.0","p60bn1u3qr",25,NA,"<div style=""width:500px;"">
                            <p style=""font-size:50px; font-weight:bold;""
                            >fearful</p>
                            <div style=""width:240px; margin: auto;"">
                                <img src=""images/map15_YlOrRd_scaleRev_orientDef_180.png"" style= ""width:200px""alt=""img"">
                            </div>
                        </div>",0.75,"",0,"",NA,"","images/map15_YlOrRd_scaleRev_orientDef_180.png","fearful",1,15,15,"YlOrRd","orientDef","scaleRev","180",NA,NA
"","","","","","html-slider-response",107,270349,"0.0-93.0","p60bn1u3qr",25,NA,"<div style=""width:500px;"">
                            <p style=""font-size:50px; font-weight:bold;""
                            >fearful</p>
                            <div style=""width:240px; margin: auto;"">
                                <img src=""images/map05_seismic_scaleRev_orientMir_180.png"" style= ""width:200px""alt=""img"">
                            </div>
                        </div>",0.3025,"",0,"",NA,"","images/map05_seismic_scaleRev_orientMir_180.png","fearful",1,5,5,"seismic","orientMir","scaleRev","180",NA,NA
"","","","","","html-slider-response",108,272032,"0.0-94.0","p60bn1u3qr",25,NA,"<div style=""width:500px;"">
                            <p style=""font-size:50px; font-weight:bold;""
                            >fearful</p>
                            <div style=""width:240px; margin: auto;"">
                                <img src=""images/map05_seismic_scaleDef_orientMir_090.png"" style= ""width:200px""alt=""img"">
                            </div>
                        </div>",0.3125,"",0,"",NA,"","images/map05_seismic_scaleDef_orientMir_090.png","fearful",1,5,5,"seismic","orientMir","scaleDef","090",NA,NA
"","","","","","html-button-response",109,273884,"0.0-95.0","p60bn1u3qr",25,1349,"<p>Great Job! You've finished block 1.<br></br> You have 4 block(s) left to go.<br></br></p>",0.5,"",NA,"",NA,"","","",NA,NA,NA,"","","","",NA,NA
"","","","","","html-button-response",110,275527,"0.0-96.0","p60bn1u3qr",25,1641,"<p>In this block of trials, you will be asked to rate how much you associate each map with:</p > <p style = 'font-size:150%; font-weight: bold'>disgust</p><br></br>",0.5,"",NA,"",NA,"","","",NA,NA,NA,"","","","",NA,NA
"","","","","","html-slider-response",111,277504,"0.0-97.0","p60bn1u3qr",25,NA,"<div style=""width:500px;"">
                            <p style=""font-size:50px; font-weight:bold;""
                            >disgust</p>
                            <div style=""width:240px; margin: auto;"">
                                <img src=""images/map07_berlin_scaleRev_orientDef_000.png"" style= ""width:200px""alt=""img"">
                            </div>
                        </div>",0.265,"",0,"",NA,"","images/map07_berlin_scaleRev_orientDef_000.png","disgust",1,7,7,"berlin","orientDef","scaleRev","000",NA,NA
"","","","","","html-slider-response",112,279027,"0.0-98.0","p60bn1u3qr",25,NA,"<div style=""width:500px;"">
                            <p style=""font-size:50px; font-weight:bold;""
                            >disgust</p>
                            <div style=""width:240px; margin: auto;"">
                                <img src=""images/map02_Spectral_scaleDef_orientMir_270.png"" style= ""width:200px""alt=""img"">
                            </div>
                        </div>",0.2925,"",0,"",NA,"","images/map02_Spectral_scaleDef_orientMir_270.png","disgust",1,2,2,"Spectral","orientMir","scaleDef","270",NA,NA
"","","","","","html-slider-response",113,280733,"0.0-99.0","p60bn1u3qr",25,NA,"<div style=""width:500px;"">
                            <p style=""font-size:50px; font-weight:bold;""
                            >disgust</p>
                            <div style=""width:240px; margin: auto;"">
                                <img src=""images/map12_Greys_scaleRev_orientMir_000.png"" style= ""width:200px""alt=""img"">
                            </div>
                        </div>",0.7525,"",0,"",NA,"","images/map12_Greys_scaleRev_orientMir_000.png","disgust",1,12,12,"Greys","orientMir","scaleRev","000",NA,NA
"","","","","","html-slider-response",114,283056,"0.0-100.0","p60bn1u3qr",25,NA,"<div style=""width:500px;"">
                            <p style=""font-size:50px; font-weight:bold;""
                            >disgust</p>
                            <div style=""width:240px; margin: auto;"">
                                <img src=""images/map26_PuBuGn_scaleRev_orientDef_180.png"" style= ""width:200px""alt=""img"">
                            </div>
                        </div>",0.325,"",0,"",NA,"","images/map26_PuBuGn_scaleRev_orientDef_180.png","disgust",1,26,26,"PuBuGn","orientDef","scaleRev","180",NA,NA
"","","","","","html-slider-response",115,284587,"0.0-101.0","p60bn1u3qr",25,NA,"<div style=""width:500px;"">
                            <p style=""font-size:50px; font-weight:bold;""
                            >disgust</p>
                            <div style=""width:240px; margin: auto;"">
                                <img src=""images/map02_RdYlGn_scaleDef_orientMir_090.png"" style= ""width:200px""alt=""img"">
                            </div>
                        </div>",0.7175,"",0,"",NA,"","images/map02_RdYlGn_scaleDef_orientMir_090.png","disgust",1,2,2,"RdYlGn","orientMir","scaleDef","090",NA,NA
"","","","","","html-slider-response",116,286141,"0.0-102.0","p60bn1u3qr",25,NA,"<div style=""width:500px;"">
                            <p style=""font-size:50px; font-weight:bold;""
                            >disgust</p>
                            <div style=""width:240px; margin: auto;"">
                                <img src=""images/map02_RdYlGn_scaleRev_orientMir_180.png"" style= ""width:200px""alt=""img"">
                            </div>
                        </div>",0.7025,"",0,"",NA,"","images/map02_RdYlGn_scaleRev_orientMir_180.png","disgust",1,2,2,"RdYlGn","orientMir","scaleRev","180",NA,NA
"","","","","","html-slider-response",117,287747,"0.0-103.0","p60bn1u3qr",25,NA,"<div style=""width:500px;"">
                            <p style=""font-size:50px; font-weight:bold;""
                            >disgust</p>
                            <div style=""width:240px; margin: auto;"">
                                <img src=""images/map27_RdGy_scaleDef_orientMir_270.png"" style= ""width:200px""alt=""img"">
                            </div>
                        </div>",0.34,"",0,"",NA,"","images/map27_RdGy_scaleDef_orientMir_270.png","disgust",1,27,27,"RdGy","orientMir","scaleDef","270",NA,NA
"","","","","","html-slider-response",118,289320,"0.0-104.0","p60bn1u3qr",25,NA,"<div style=""width:500px;"">
                            <p style=""font-size:50px; font-weight:bold;""
                            >disgust</p>
                            <div style=""width:240px; margin: auto;"">
                                <img src=""images/map27_PiYG_scaleRev_orientDef_000.png"" style= ""width:200px""alt=""img"">
                            </div>
                        </div>",0.72,"",0,"",NA,"","images/map27_PiYG_scaleRev_orientDef_000.png","disgust",1,27,27,"PiYG","orientDef","scaleRev","000",NA,NA
"","","","","","html-slider-response",119,290866,"0.0-105.0","p60bn1u3qr",25,NA,"<div style=""width:500px;"">
                            <p style=""font-size:50px; font-weight:bold;""
                            >disgust</p>
                            <div style=""width:240px; margin: auto;"">
                                <img src=""images/map05_coolwarm_scaleDef_orientDef_090.png"" style= ""width:200px""alt=""img"">
                            </div>
                        </div>",0.375,"",0,"",NA,"","images/map05_coolwarm_scaleDef_orientDef_090.png","disgust",1,5,5,"coolwarm","orientDef","scaleDef","090",NA,NA
"","","","","","html-slider-response",120,292929,"0.0-106.0","p60bn1u3qr",25,NA,"<div style=""width:500px;"">
                            <p style=""font-size:50px; font-weight:bold;""
                            >disgust</p>
                            <div style=""width:240px; margin: auto;"">
                                <img src=""images/map26_YlGnBu_scaleRev_orientDef_000.png"" style= ""width:200px""alt=""img"">
                            </div>
                        </div>",0.26,"",0,"",NA,"","images/map26_YlGnBu_scaleRev_orientDef_000.png","disgust",1,26,26,"YlGnBu","orientDef","scaleRev","000",NA,NA
"","","","","","html-slider-response",121,294639,"0.0-107.0","p60bn1u3qr",25,NA,"<div style=""width:500px;"">
                            <p style=""font-size:50px; font-weight:bold;""
                            >disgust</p>
                            <div style=""width:240px; margin: auto;"">
                                <img src=""images/map07_turbo_scaleDef_orientMir_270.png"" style= ""width:200px""alt=""img"">
                            </div>
                        </div>",0.7425,"",0,"",NA,"","images/map07_turbo_scaleDef_orientMir_270.png","disgust",1,7,7,"turbo","orientMir","scaleDef","270",NA,NA
"","","","","","html-slider-response",122,296489,"0.0-108.0","p60bn1u3qr",25,NA,"<div style=""width:500px;"">
                            <p style=""font-size:50px; font-weight:bold;""
                            >disgust</p>
                            <div style=""width:240px; margin: auto;"">
                                <img src=""images/map15_YlOrBr_scaleRev_orientDef_000.png"" style= ""width:200px""alt=""img"">
                            </div>
                        </div>",0.32,"",0,"",NA,"","images/map15_YlOrBr_scaleRev_orientDef_000.png","disgust",1,15,15,"YlOrBr","orientDef","scaleRev","000",NA,NA
"","","","","","html-slider-response",123,298189,"0.0-109.0","p60bn1u3qr",25,NA,"<div style=""width:500px;"">
                            <p style=""font-size:50px; font-weight:bold;""
                            >disgust</p>
                            <div style=""width:240px; margin: auto;"">
                                <img src=""images/map02_RdYlBu_scaleRev_orientMir_000.png"" style= ""width:200px""alt=""img"">
                            </div>
                        </div>",0.2675,"",0,"",NA,"","images/map02_RdYlBu_scaleRev_orientMir_000.png","disgust",1,2,2,"RdYlBu","orientMir","scaleRev","000",NA,NA
"","","","","","html-slider-response",124,300013,"0.0-110.0","p60bn1u3qr",25,NA,"<div style=""width:500px;"">
                            <p style=""font-size:50px; font-weight:bold;""
                            >disgust</p>
                            <div style=""width:240px; margin: auto;"">
                                <img src=""images/map27_PRGn_scaleRev_orientDef_180.png"" style= ""width:200px""alt=""img"">
                            </div>
                        </div>",0.815,"",0,"",NA,"","images/map27_PRGn_scaleRev_orientDef_180.png","disgust",1,27,27,"PRGn","orientDef","scaleRev","180",NA,NA
"","","","","","html-slider-response",125,301742,"0.0-111.0","p60bn1u3qr",25,NA,"<div style=""width:500px;"">
                            <p style=""font-size:50px; font-weight:bold;""
                            >disgust</p>
                            <div style=""width:240px; margin: auto;"">
                                <img src=""images/map27_BrBG_scaleDef_orientDef_270.png"" style= ""width:200px""alt=""img"">
                            </div>
                        </div>",0.37,"",0,"",NA,"","images/map27_BrBG_scaleDef_orientDef_270.png","disgust",1,27,27,"BrBG","orientDef","scaleDef","270",NA,NA
"","","","","","html-slider-response",126,303361,"0.0-112.0","p60bn1u3qr",25,NA,"<div style=""width:500px;"">
                            <p style=""font-size:50px; font-weight:bold;""
                            >disgust</p>
                            <div style=""width:240px; margin: auto;"">
                                <img src=""images/map07_managua_scaleDef_orientDef_090.png"" style= ""width:200px""alt=""img"">
                            </div>
                        </div>",0.17,"",0,"",NA,"","images/map07_managua_scaleDef_orientDef_090.png","disgust",1,7,7,"managua","orientDef","scaleDef","090",NA,NA
"","","","","","html-slider-response",127,305101,"0.0-113.0","p60bn1u3qr",25,NA,"<div style=""width:500px;"">
                            <p style=""font-size:50px; font-weight:bold;""
                            >disgust</p>
                            <div style=""width:240px; margin: auto;"">
                                <img src=""images/map13_Reds_scaleRev_orientMir_180.png"" style= ""width:200px""alt=""img"">
                            </div>
                        </div>",0.3125,"",0,"",NA,"","images/map13_Reds_scaleRev_orientMir_180.png","disgust",1,13,13,"Reds","orientMir","scaleRev","180",NA,NA
"","","","","","html-slider-response",128,307063,"0.0-114.0","p60bn1u3qr",25,NA,"<div style=""width:500px;"">
                            <p style=""font-size:50px; font-weight:bold;""
                            >disgust</p>
                            <div style=""width:240px; margin: auto;"">
                                <img src=""images/map02_RdBu_scaleDef_orientDef_090.png"" style= ""width:200px""alt=""img"">
                            </div>
                        </div>",0.3525,"",0,"",NA,"","images/map02_RdBu_scaleDef_orientDef_090.png","disgust",1,2,2,"RdBu","orientDef","scaleDef","090",NA,NA
"","","","","","html-slider-response",129,308541,"0.0-115.0","p60bn1u3qr",25,NA,"<div style=""width:500px;"">
                            <p style=""font-size:50px; font-weight:bold;""
                            >disgust</p>
                            <div style=""width:240px; margin: auto;"">
                                <img src=""images/map15_OrRd_scaleRev_orientMir_000.png"" style= ""width:200px""alt=""img"">
                            </div>
                        </div>",0.29,"",0,"",NA,"","images/map15_OrRd_scaleRev_orientMir_000.png","disgust",1,15,15,"OrRd","orientMir","scaleRev","000",NA,NA
"","","","","","html-slider-response",130,309958,"0.0-116.0","p60bn1u3qr",25,NA,"<div style=""width:500px;"">
                            <p style=""font-size:50px; font-weight:bold;""
                            >disgust</p>
                            <div style=""width:240px; margin: auto;"">
                                <img src=""images/map05_coolwarm_scaleRev_orientDef_180.png"" style= ""width:200px""alt=""img"">
                            </div>
                        </div>",0.27,"",0,"",NA,"","images/map05_coolwarm_scaleRev_orientDef_180.png","disgust",1,5,5,"coolwarm","orientDef","scaleRev","180",NA,NA
"","","","","","html-slider-response",131,311642,"0.0-117.0","p60bn1u3qr",25,NA,"<div style=""width:500px;"">
                            <p style=""font-size:50px; font-weight:bold;""
                            >disgust</p>
                            <div style=""width:240px; margin: auto;"">
                                <img src=""images/map12_cividis_scaleDef_orientDef_090.png"" style= ""width:200px""alt=""img"">
                            </div>
                        </div>",0.915,"",0,"",NA,"","images/map12_cividis_scaleDef_orientDef_090.png","disgust",1,12,12,"cividis","orientDef","scaleDef","090",NA,NA
"","","","","","html-slider-response",132,313447,"0.0-118.0","p60bn1u3qr",25,NA,"<div style=""width:500px;"">
                            <p style=""font-size:50px; font-weight:bold;""
                            >disgust</p>
                            <div style=""width:240px; margin: auto;"">
                                <img src=""images/map07_gist_earth_scaleRev_orientMir_180.png"" style= ""width:200px""alt=""img"">
                            </div>
                        </div>",0.85,"",0,"",NA,"","images/map07_gist_earth_scaleRev_orientMir_180.png","disgust",1,7,7,"gist","scaleRev","earth","orientMir",NA,NA
"","","","","","html-slider-response",133,315259,"0.0-119.0","p60bn1u3qr",25,NA,"<div style=""width:500px;"">
                            <p style=""font-size:50px; font-weight:bold;""
                            >disgust</p>
                            <div style=""width:240px; margin: auto;"">
                                <img src=""images/map26_YlGn_scaleDef_orientMir_090.png"" style= ""width:200px""alt=""img"">
                            </div>
                        </div>",0.84,"",0,"",NA,"","images/map26_YlGn_scaleDef_orientMir_090.png","disgust",1,26,26,"YlGn","orientMir","scaleDef","090",NA,NA
"","","","","","html-slider-response",134,316991,"0.0-120.0","p60bn1u3qr",25,NA,"<div style=""width:500px;"">
                            <p style=""font-size:50px; font-weight:bold;""
                            >disgust</p>
                            <div style=""width:240px; margin: auto;"">
                                <img src=""images/map12_cividis_scaleRev_orientDef_180.png"" style= ""width:200px""alt=""img"">
                            </div>
                        </div>",0.8325,"",0,"",NA,"","images/map12_cividis_scaleRev_orientDef_180.png","disgust",1,12,12,"cividis","orientDef","scaleRev","180",NA,NA
"","","","","","html-slider-response",135,318659,"0.0-121.0","p60bn1u3qr",25,NA,"<div style=""width:500px;"">
                            <p style=""font-size:50px; font-weight:bold;""
                            >disgust</p>
                            <div style=""width:240px; margin: auto;"">
                                <img src=""images/map05_bwr_scaleDef_orientDef_270.png"" style= ""width:200px""alt=""img"">
                            </div>
                        </div>",0.27,"",0,"",NA,"","images/map05_bwr_scaleDef_orientDef_270.png","disgust",1,5,5,"bwr","orientDef","scaleDef","270",NA,NA
"","","","","","html-slider-response",136,320123,"0.0-122.0","p60bn1u3qr",25,NA,"<div style=""width:500px;"">
                            <p style=""font-size:50px; font-weight:bold;""
                            >disgust</p>
                            <div style=""width:240px; margin: auto;"">
                                <img src=""images/map13_Reds_scaleDef_orientMir_090.png"" style= ""width:200px""alt=""img"">
                            </div>
                        </div>",0.1925,"",0,"",NA,"","images/map13_Reds_scaleDef_orientMir_090.png","disgust",1,13,13,"Reds","orientMir","scaleDef","090",NA,NA
"","","","","","html-slider-response",137,321921,"0.0-123.0","p60bn1u3qr",25,NA,"<div style=""width:500px;"">
                            <p style=""font-size:50px; font-weight:bold;""
                            >disgust</p>
                            <div style=""width:240px; margin: auto;"">
                                <img src=""images/map23_PuBu_scaleRev_orientMir_180.png"" style= ""width:200px""alt=""img"">
                            </div>
                        </div>",0.265,"",0,"",NA,"","images/map23_PuBu_scaleRev_orientMir_180.png","disgust",1,23,23,"PuBu","orientMir","scaleRev","180",NA,NA
"","","","","","html-slider-response",138,323539,"0.0-124.0","p60bn1u3qr",25,NA,"<div style=""width:500px;"">
                            <p style=""font-size:50px; font-weight:bold;""
                            >disgust</p>
                            <div style=""width:240px; margin: auto;"">
                                <img src=""images/map23_BuPu_scaleRev_orientDef_180.png"" style= ""width:200px""alt=""img"">
                            </div>
                        </div>",0.1975,"",0,"",NA,"","images/map23_BuPu_scaleRev_orientDef_180.png","disgust",1,23,23,"BuPu","orientDef","scaleRev","180",NA,NA
"","","","","","html-slider-response",139,325125,"0.0-125.0","p60bn1u3qr",25,NA,"<div style=""width:500px;"">
                            <p style=""font-size:50px; font-weight:bold;""
                            >disgust</p>
                            <div style=""width:240px; margin: auto;"">
                                <img src=""images/map27_PuOr_scaleRev_orientMir_180.png"" style= ""width:200px""alt=""img"">
                            </div>
                        </div>",0.1925,"",0,"",NA,"","images/map27_PuOr_scaleRev_orientMir_180.png","disgust",1,27,27,"PuOr","orientMir","scaleRev","180",NA,NA
"","","","","","html-slider-response",140,326912,"0.0-126.0","p60bn1u3qr",25,NA,"<div style=""width:500px;"">
                            <p style=""font-size:50px; font-weight:bold;""
                            >disgust</p>
                            <div style=""width:240px; margin: auto;"">
                                <img src=""images/map02_RdYlBu_scaleDef_orientDef_270.png"" style= ""width:200px""alt=""img"">
                            </div>
                        </div>",0.17,"",0,"",NA,"","images/map02_RdYlBu_scaleDef_orientDef_270.png","disgust",1,2,2,"RdYlBu","orientDef","scaleDef","270",NA,NA
"","","","","","html-slider-response",141,328473,"0.0-127.0","p60bn1u3qr",25,NA,"<div style=""width:500px;"">
                            <p style=""font-size:50px; font-weight:bold;""
                            >disgust</p>
                            <div style=""width:240px; margin: auto;"">
                                <img src=""images/map10_plasma_scaleRev_orientMir_000.png"" style= ""width:200px""alt=""img"">
                            </div>
                        </div>",0.19,"",0,"",NA,"","images/map10_plasma_scaleRev_orientMir_000.png","disgust",1,10,10,"plasma","orientMir","scaleRev","000",NA,NA
"","","","","","html-slider-response",142,330029,"0.0-128.0","p60bn1u3qr",25,NA,"<div style=""width:500px;"">
                            <p style=""font-size:50px; font-weight:bold;""
                            >disgust</p>
                            <div style=""width:240px; margin: auto;"">
                                <img src=""images/map23_BuPu_scaleDef_orientDef_090.png"" style= ""width:200px""alt=""img"">
                            </div>
                        </div>",0.3025,"",0,"",NA,"","images/map23_BuPu_scaleDef_orientDef_090.png","disgust",1,23,23,"BuPu","orientDef","scaleDef","090",NA,NA
"","","","","","html-slider-response",143,331566,"0.0-129.0","p60bn1u3qr",25,NA,"<div style=""width:500px;"">
                            <p style=""font-size:50px; font-weight:bold;""
                            >disgust</p>
                            <div style=""width:240px; margin: auto;"">
                                <img src=""images/map13_Greens_scaleRev_orientDef_180.png"" style= ""width:200px""alt=""img"">
                            </div>
                        </div>",0.725,"",0,"",NA,"","images/map13_Greens_scaleRev_orientDef_180.png","disgust",1,13,13,"Greens","orientDef","scaleRev","180",NA,NA
"","","","","","html-slider-response",144,333136,"0.0-130.0","p60bn1u3qr",25,NA,"<div style=""width:500px;"">
                            <p style=""font-size:50px; font-weight:bold;""
                            >disgust</p>
                            <div style=""width:240px; margin: auto;"">
                                <img src=""images/map07_managua_scaleRev_orientDef_180.png"" style= ""width:200px""alt=""img"">
                            </div>
                        </div>",0.3275,"",0,"",NA,"","images/map07_managua_scaleRev_orientDef_180.png","disgust",1,7,7,"managua","orientDef","scaleRev","180",NA,NA
"","","","","","html-slider-response",145,334862,"0.0-131.0","p60bn1u3qr",25,NA,"<div style=""width:500px;"">
                            <p style=""font-size:50px; font-weight:bold;""
                            >disgust</p>
                            <div style=""width:240px; margin: auto;"">
                                <img src=""images/map10_plasma_scaleDef_orientDef_270.png"" style= ""width:200px""alt=""img"">
                            </div>
                        </div>",0.33,"",0,"",NA,"","images/map10_plasma_scaleDef_orientDef_270.png","disgust",1,10,10,"plasma","orientDef","scaleDef","270",NA,NA
"","","","","","html-slider-response",146,336430,"0.0-132.0","p60bn1u3qr",25,NA,"<div style=""width:500px;"">
                            <p style=""font-size:50px; font-weight:bold;""
                            >disgust</p>
                            <div style=""width:240px; margin: auto;"">
                                <img src=""images/map26_BuGn_scaleDef_orientDef_270.png"" style= ""width:200px""alt=""img"">
                            </div>
                        </div>",0.79,"",0,"",NA,"","images/map26_BuGn_scaleDef_orientDef_270.png","disgust",1,26,26,"BuGn","orientDef","scaleDef","270",NA,NA
"","","","","","html-slider-response",147,338504,"0.0-133.0","p60bn1u3qr",25,NA,"<div style=""width:500px;"">
                            <p style=""font-size:50px; font-weight:bold;""
                            >disgust</p>
                            <div style=""width:240px; margin: auto;"">
                                <img src=""images/map27_BrBG_scaleRev_orientMir_000.png"" style= ""width:200px""alt=""img"">
                            </div>
                        </div>",0.56,"",0,"",NA,"","images/map27_BrBG_scaleRev_orientMir_000.png","disgust",1,27,27,"BrBG","orientMir","scaleRev","000",NA,NA
"","","","","","html-slider-response",148,339904,"0.0-134.0","p60bn1u3qr",25,NA,"<div style=""width:500px;"">
                            <p style=""font-size:50px; font-weight:bold;""
                            >disgust</p>
                            <div style=""width:240px; margin: auto;"">
                                <img src=""images/map13_Oranges_scaleDef_orientDef_270.png"" style= ""width:200px""alt=""img"">
                            </div>
                        </div>",0.2975,"",0,"",NA,"","images/map13_Oranges_scaleDef_orientDef_270.png","disgust",1,13,13,"Oranges","orientDef","scaleDef","270",NA,NA
"","","","","","html-slider-response",149,341230,"0.0-135.0","p60bn1u3qr",25,NA,"<div style=""width:500px;"">
                            <p style=""font-size:50px; font-weight:bold;""
                            >disgust</p>
                            <div style=""width:240px; margin: auto;"">
                                <img src=""images/map12_Purples_scaleRev_orientMir_180.png"" style= ""width:200px""alt=""img"">
                            </div>
                        </div>",0.225,"",0,"",NA,"","images/map12_Purples_scaleRev_orientMir_180.png","disgust",1,12,12,"Purples","orientMir","scaleRev","180",NA,NA
"","","","","","html-slider-response",150,342880,"0.0-136.0","p60bn1u3qr",25,NA,"<div style=""width:500px;"">
                            <p style=""font-size:50px; font-weight:bold;""
                            >disgust</p>
                            <div style=""width:240px; margin: auto;"">
                                <img src=""images/map15_OrRd_scaleDef_orientDef_270.png"" style= ""width:200px""alt=""img"">
                            </div>
                        </div>",0.3,"",0,"",NA,"","images/map15_OrRd_scaleDef_orientDef_270.png","disgust",1,15,15,"OrRd","orientDef","scaleDef","270",NA,NA
"","","","","","html-button-response",151,344166,"0.0-137.0","p60bn1u3qr",25,784,"<p>You are doing great!<br></br> You are halway done with the current block. When you are ready to continue, click the 'Continue' button.</p>",0.5,"",NA,"",NA,"","","",NA,NA,NA,"","","","",NA,NA
"","","","","","html-slider-response",152,345365,"0.0-138.0","p60bn1u3qr",25,NA,"<div style=""width:500px;"">
                            <p style=""font-size:50px; font-weight:bold;""
                            >disgust</p>
                            <div style=""width:240px; margin: auto;"">
                                <img src=""images/map26_PuBuGn_scaleDef_orientDef_090.png"" style= ""width:200px""alt=""img"">
                            </div>
                        </div>",0.335,"",0,"",NA,"","images/map26_PuBuGn_scaleDef_orientDef_090.png","disgust",1,26,26,"PuBuGn","orientDef","scaleDef","090",NA,NA
"","","","","","html-slider-response",153,346889,"0.0-139.0","p60bn1u3qr",25,NA,"<div style=""width:500px;"">
                            <p style=""font-size:50px; font-weight:bold;""
                            >disgust</p>
                            <div style=""width:240px; margin: auto;"">
                                <img src=""images/map02_RdGy_scaleRev_orientDef_000.png"" style= ""width:200px""alt=""img"">
                            </div>
                        </div>",0.32,"",0,"",NA,"","images/map02_RdGy_scaleRev_orientDef_000.png","disgust",1,2,2,"RdGy","orientDef","scaleRev","000",NA,NA
"","","","","","html-slider-response",154,348386,"0.0-140.0","p60bn1u3qr",25,NA,"<div style=""width:500px;"">
                            <p style=""font-size:50px; font-weight:bold;""
                            >disgust</p>
                            <div style=""width:240px; margin: auto;"">
                                <img src=""images/map13_Oranges_scaleRev_orientMir_000.png"" style= ""width:200px""alt=""img"">
                            </div>
                        </div>",0.38,"",0,"",NA,"","images/map13_Oranges_scaleRev_orientMir_000.png","disgust",1,13,13,"Oranges","orientMir","scaleRev","000",NA,NA
"","","","","","html-slider-response",155,350730,"0.0-141.0","p60bn1u3qr",25,NA,"<div style=""width:500px;"">
                            <p style=""font-size:50px; font-weight:bold;""
                            >disgust</p>
                            <div style=""width:240px; margin: auto;"">
                                <img src=""images/map12_Blues_scaleDef_orientMir_270.png"" style= ""width:200px""alt=""img"">
                            </div>
                        </div>",0.3625,"",0,"",NA,"","images/map12_Blues_scaleDef_orientMir_270.png","disgust",1,12,12,"Blues","orientMir","scaleDef","270",NA,NA
"","","","","","html-slider-response",156,353968,"0.0-142.0","p60bn1u3qr",25,NA,"<div style=""width:500px;"">
                            <p style=""font-size:50px; font-weight:bold;""
                            >disgust</p>
                            <div style=""width:240px; margin: auto;"">
                                <img src=""images/map26_PiYG_scaleDef_orientMir_270.png"" style= ""width:200px""alt=""img"">
                            </div>
                        </div>",0.64,"",0,"",NA,"","images/map26_PiYG_scaleDef_orientMir_270.png","disgust",1,26,26,"PiYG","orientMir","scaleDef","270",NA,NA
"","","","","","html-slider-response",157,355476,"0.0-143.0","p60bn1u3qr",25,NA,"<div style=""width:500px;"">
                            <p style=""font-size:50px; font-weight:bold;""
                            >disgust</p>
                            <div style=""width:240px; margin: auto;"">
                                <img src=""images/map02_RdBu_scaleRev_orientDef_180.png"" style= ""width:200px""alt=""img"">
                            </div>
                        </div>",0.38,"",0,"",NA,"","images/map02_RdBu_scaleRev_orientDef_180.png","disgust",1,2,2,"RdBu","orientDef","scaleRev","180",NA,NA
"","","","","","html-slider-response",158,357443,"0.0-144.0","p60bn1u3qr",25,NA,"<div style=""width:500px;"">
                            <p style=""font-size:50px; font-weight:bold;""
                            >disgust</p>
                            <div style=""width:240px; margin: auto;"">
                                <img src=""images/map15_YlOrRd_scaleRev_orientDef_180.png"" style= ""width:200px""alt=""img"">
                            </div>
                        </div>",0.37,"",0,"",NA,"","images/map15_YlOrRd_scaleRev_orientDef_180.png","disgust",1,15,15,"YlOrRd","orientDef","scaleRev","180",NA,NA
"","","","","","html-slider-response",159,358939,"0.0-145.0","p60bn1u3qr",25,NA,"<div style=""width:500px;"">
                            <p style=""font-size:50px; font-weight:bold;""
                            >disgust</p>
                            <div style=""width:240px; margin: auto;"">
                                <img src=""images/map10_inferno_scaleRev_orientMir_180.png"" style= ""width:200px""alt=""img"">
                            </div>
                        </div>",0.27,"",0,"",NA,"","images/map10_inferno_scaleRev_orientMir_180.png","disgust",1,10,10,"inferno","orientMir","scaleRev","180",NA,NA
"","","","","","html-slider-response",160,360720,"0.0-146.0","p60bn1u3qr",25,NA,"<div style=""width:500px;"">
                            <p style=""font-size:50px; font-weight:bold;""
                            >disgust</p>
                            <div style=""width:240px; margin: auto;"">
                                <img src=""images/map05_seismic_scaleDef_orientMir_090.png"" style= ""width:200px""alt=""img"">
                            </div>
                        </div>",0.26,"",0,"",NA,"","images/map05_seismic_scaleDef_orientMir_090.png","disgust",1,5,5,"seismic","orientMir","scaleDef","090",NA,NA
"","","","","","html-slider-response",161,362336,"0.0-147.0","p60bn1u3qr",25,NA,"<div style=""width:500px;"">
                            <p style=""font-size:50px; font-weight:bold;""
                            >disgust</p>
                            <div style=""width:240px; margin: auto;"">
                                <img src=""images/map10_magma_scaleDef_orientMir_270.png"" style= ""width:200px""alt=""img"">
                            </div>
                        </div>",0.13,"",0,"",NA,"","images/map10_magma_scaleDef_orientMir_270.png","disgust",1,10,10,"magma","orientMir","scaleDef","270",NA,NA
"","","","","","html-slider-response",162,363827,"0.0-148.0","p60bn1u3qr",25,NA,"<div style=""width:500px;"">
                            <p style=""font-size:50px; font-weight:bold;""
                            >disgust</p>
                            <div style=""width:240px; margin: auto;"">
                                <img src=""images/map07_vanimo_scaleDef_orientDef_270.png"" style= ""width:200px""alt=""img"">
                            </div>
                        </div>",0.72,"",0,"",NA,"","images/map07_vanimo_scaleDef_orientDef_270.png","disgust",1,7,7,"vanimo","orientDef","scaleDef","270",NA,NA
"","","","","","html-slider-response",163,365197,"0.0-149.0","p60bn1u3qr",25,NA,"<div style=""width:500px;"">
                            <p style=""font-size:50px; font-weight:bold;""
                            >disgust</p>
                            <div style=""width:240px; margin: auto;"">
                                <img src=""images/map07_gist_earth_scaleDef_orientMir_090.png"" style= ""width:200px""alt=""img"">
                            </div>
                        </div>",0.74,"",0,"",NA,"","images/map07_gist_earth_scaleDef_orientMir_090.png","disgust",1,7,7,"gist","scaleDef","earth","orientMir",NA,NA
"","","","","","html-slider-response",164,367276,"0.0-150.0","p60bn1u3qr",25,NA,"<div style=""width:500px;"">
                            <p style=""font-size:50px; font-weight:bold;""
                            >disgust</p>
                            <div style=""width:240px; margin: auto;"">
                                <img src=""images/map12_Greys_scaleDef_orientDef_270.png"" style= ""width:200px""alt=""img"">
                            </div>
                        </div>",0.86,"",0,"",NA,"","images/map12_Greys_scaleDef_orientDef_270.png","disgust",1,12,12,"Greys","orientDef","scaleDef","270",NA,NA
"","","","","","html-slider-response",165,368803,"0.0-151.0","p60bn1u3qr",25,NA,"<div style=""width:500px;"">
                            <p style=""font-size:50px; font-weight:bold;""
                            >disgust</p>
                            <div style=""width:240px; margin: auto;"">
                                <img src=""images/map23_GnBu_scaleDef_orientDef_270.png"" style= ""width:200px""alt=""img"">
                            </div>
                        </div>",0.2875,"",0,"",NA,"","images/map23_GnBu_scaleDef_orientDef_270.png","disgust",1,23,23,"GnBu","orientDef","scaleDef","270",NA,NA
"","","","","","html-slider-response",166,370238,"0.0-152.0","p60bn1u3qr",25,NA,"<div style=""width:500px;"">
                            <p style=""font-size:50px; font-weight:bold;""
                            >disgust</p>
                            <div style=""width:240px; margin: auto;"">
