"success","timeout","failed_images","failed_audio","failed_video","trial_type","trial_index","time_elapsed","internal_node_id","subject_id","condition_num","rt","stimulus","response","question_order","slider_start","practiceTrial","practiceTrialNum","correct","image_path","concept","repetition","map_id","map_num","scale_name","orientation_code","mapping_code","rotation_code","ishihara_plate","correct_response"
"true","false","[]","[]","[]","preload",0,400,"0.0-0.0","kntv4xvd14",6,NA,"",NA,"",NA,"",NA,"","","",NA,NA,NA,"","","","",NA,NA
"","","","","","html-button-response",1,120125,"0.0-1.0","kntv4xvd14",6,119724,"Welcome to our experiment!<p>At the bottom of this screen, you will see a button that says ""Begin Experiment"".<br>Please only click that button when you are ready to complete the 30 minute experiment in one sitting.</p><p> Once you click that button, it will not be possible to restart the experiment.",0.5,"",NA,"",NA,"","","",NA,NA,NA,"","","","",NA,NA
"true","","","","","fullscreen",2,123137,"0.0-2.0","kntv4xvd14",6,2009,"",NA,"",NA,"",NA,"","","",NA,NA,NA,"","","","",NA,NA
"","","","","","survey-multi-select",3,215843,"0.0-3.0","kntv4xvd14",6,92702,"",NA,"[0]",NA,"",NA,"","","",NA,NA,NA,"","","","",NA,NA
"","","","","","html-button-response",4,220656,"0.0-4.0","kntv4xvd14",6,4812,"Welcome! <p> This experiment involves two parts: demographic information, followed by the experimental task.<p> It will take about 30 minutes to complete both parts.",0.5,"",NA,"",NA,"","","",NA,NA,NA,"","","","",NA,NA
"","","","","","survey-text",5,236797,"0.0-5.0","kntv4xvd14",6,16136,"",NA,"",NA,"",NA,"","","",NA,NA,NA,"","","","",NA,NA
"","","","","","html-slider-response",6,296926,"0.0-6.0","kntv4xvd14",6,60127,"<div style='text-align:left; font-size:20px; line-height:25px; width: 1000px;'>
                                During this experiment you will be asked to rate how much you associate maps with                    different concepts.<br> Below, you can see some examples of the maps you will be asked to rate. Above the maps
                    is the list of concepts.<br>You will be asked                    to rate how much you associate each map with each concept on a scale from 'not at all' to 'very much' like the
                    one below. <br><br>
                    Now, please look at the list of concepts and maps. For each concept, think about the map you associate 'very
                    much' with the concept.<br>                     When you see that map during the experiment, please rate it near the 'very much' endpoint of the
                    scale.<br>Now, please think about which map you associate 'not at all'                     with each concept. When you see that map during the experiment, please rate it near the 'not at all' endpoint
                    of the scale.<br>
                    Please use the full range of the scale. That is, if a map is somewhat associated with the concept, you would
                    click partway between the middle point and right side of the scale.                    You will be asked to rate each map for a given concept before moving on to the next concept.<br>Press the
                    'Continue' button for instructions on how to use the slider.                    <br>
                </div>

                <div style=""width: 500px; margin: 0 auto;"">
                    <!-- Centered text paragraphs -->
                    <div style=""text-align: center; width: 500px;"">
                        <p style=""font-size:25px; line-height:15px;"">
                            fearful&nbsp;&nbsp;&nbsp;&nbsp;
                            happy&nbsp;&nbsp;&nbsp;&nbsp;
                            angry&nbsp;&nbsp;&nbsp;&nbsp;
                            disgust&nbsp;&nbsp;&nbsp;&nbsp;
                            sad
                        </p>
                        <!-- <p style=""font-size:20px; line-height:15px;"">happy</p>
                        <p style=""font-size:20px;line-height:15px;"">angry</p>
                        <p style=""font-size:20px;line-height:15px;"">disgust</p>
                        <p style=""font-size:20px;line-height:15px;"">sad</p> -->
                    </div>
            

                    <!-- Grid section -->
                   <div style=""display: flex; justify-content: center; padding-top: 15px;"">
                    <div style=""display: grid; grid-template-columns: repeat(10, 55px); grid-gap: 5px; width: auto;"">
                        <img src=""images/map12_RdPu_scaleDef_orientMir_000.png"" alt=""map"" style=""width: 100%;""><img src=""images/map23_RdGy_scaleDef_orientMir_000.png"" alt=""map"" style=""width: 100%;""><img src=""images/map13_PuBuGn_scaleRev_orientMir_270.png"" alt=""map"" style=""width: 100%;""><img src=""images/map10_Reds_scaleRev_orientDef_270.png"" alt=""map"" style=""width: 100%;""><img src=""images/map12_BuPu_scaleRev_orientMir_270.png"" alt=""map"" style=""width: 100%;""><img src=""images/map27_berlin_scaleRev_orientMir_090.png"" alt=""map"" style=""width: 100%;""><img src=""images/map15_PiYG_scaleDef_orientMir_000.png"" alt=""map"" style=""width: 100%;""><img src=""images/map13_PuBu_scaleDef_orientDef_180.png"" alt=""map"" style=""width: 100%;""><img src=""images/map10_YlOrBr_scaleRev_orientMir_090.png"" alt=""map"" style=""width: 100%;""><img src=""images/map27_seismic_scaleRev_orientDef_270.png"" alt=""map"" style=""width: 100%;""><img src=""images/map23_PuOr_scaleRev_orientDef_270.png"" alt=""map"" style=""width: 100%;""><img src=""images/map15_YlGn_scaleRev_orientDef_270.png"" alt=""map"" style=""width: 100%;""><img src=""images/map07_Greys_scaleRev_orientDef_090.png"" alt=""map"" style=""width: 100%;""><img src=""images/map05_plasma_scaleRev_orientDef_090.png"" alt=""map"" style=""width: 100%;""><img src=""images/map12_PuRd_scaleDef_orientDef_180.png"" alt=""map"" style=""width: 100%;""><img src=""images/map26_coolwarm_scaleRev_orientMir_270.png"" alt=""map"" style=""width: 100%;""><img src=""images/map02_gist_earth_scaleRev_orientDef_270.png"" alt=""map"" style=""width: 100%;""><img src=""images/map05_inferno_scaleDef_orientDef_180.png"" alt=""map"" style=""width: 100%;""><img src=""images/map26_RdYlGn_scaleDef_orientDef_180.png"" alt=""map"" style=""width: 100%;""><img src=""images/map27_managua_scaleDef_orientMir_180.png"" alt=""map"" style=""width: 100%;""><img src=""images/map02_viridis_scaleRev_orientMir_270.png"" alt=""map"" style=""width: 100%;""><img src=""images/map23_BrBG_scaleDef_orientDef_000.png"" alt=""map"" style=""width: 100%;""><img src=""images/map07_Purples_scaleRev_orientDef_270.png"" alt=""map"" style=""width: 100%;""><img src=""images/map05_cividis_scaleRev_orientMir_270.png"" alt=""map"" style=""width: 100%;""><img src=""images/map07_Greens_scaleRev_orientMir_270.png"" alt=""map"" style=""width: 100%;""><img src=""images/map15_BuGn_scaleRev_orientDef_090.png"" alt=""map"" style=""width: 100%;""><img src=""images/map23_RdBu_scaleRev_orientMir_270.png"" alt=""map"" style=""width: 100%;""><img src=""images/map12_OrRd_scaleRev_orientDef_090.png"" alt=""map"" style=""width: 100%;""><img src=""images/map05_magma_scaleRev_orientMir_090.png"" alt=""map"" style=""width: 100%;""><img src=""images/map26_Spectral_scaleDef_orientMir_000.png"" alt=""map"" style=""width: 100%;""><img src=""images/map15_PRGn_scaleDef_orientMir_180.png"" alt=""map"" style=""width: 100%;""><img src=""images/map10_YlOrRd_scaleRev_orientMir_270.png"" alt=""map"" style=""width: 100%;""><img src=""images/map26_RdYlBu_scaleDef_orientDef_000.png"" alt=""map"" style=""width: 100%;""><img src=""images/map27_bwr_scaleDef_orientDef_000.png"" alt=""map"" style=""width: 100%;""><img src=""images/map13_YlGnBu_scaleRev_orientMir_090.png"" alt=""map"" style=""width: 100%;""><img src=""images/map02_vanimo_scaleDef_orientDef_000.png"" alt=""map"" style=""width: 100%;""><img src=""images/map13_GnBu_scaleDef_orientDef_000.png"" alt=""map"" style=""width: 100%;""><img src=""images/map02_turbo_scaleDef_orientMir_000.png"" alt=""map"" style=""width: 100%;""><img src=""images/map10_Oranges_scaleRev_orientDef_090.png"" alt=""map"" style=""width: 100%;""><img src=""images/map07_Blues_scaleRev_orientMir_090.png"" alt=""map"" style=""width: 100%;"">
                    </div>
                </div>

                    <!-- Clear floats -->
                    <div style=""clear: both;""></div>
                </div>
                            ",NA,"",0,"true",NA,"","","",NA,NA,NA,"","","","",NA,NA
"","","","","","html-button-response",7,315845,"0.0-7.0","kntv4xvd14",6,18918,"<div style=""width:800px;""><p style=""text-align:left"">To move the slider, click and drag your cursor to the location of the scale where you would like to make your rating and then let go. When you let go of the slider, your response will be recorded and the next trial will begin. <br>
                    We are interested in your initial impressions of each map for the given concept, so please go with your first intuition. <br>
                    Before you begin the experiment, there will be four training trials for you to practice using the scale. <br>
                     When you are ready to start the training trials, please click ""Continue"".</p><br></div>",0.5,"",NA,"",NA,"","","",NA,NA,NA,"","","","",NA,NA
"","","","","","html-slider-response",8,319622,"0.0-8.0-0.0","kntv4xvd14",6,NA,"<div style=""width:500px;"">
                                    <p style=""font-size:25px;"">Please move the slider all the way to the <br> right endpoint of the scale</p>

                                    </div>
                                </div>",1,"",0,"true",0,"true","","",NA,NA,NA,"","","","",NA,NA
"","","","","","html-button-response",9,321121,"0.0-8.0-1.0","kntv4xvd14",6,996,"<p align='center'><b>Good job!</b> Click on 'Continue' to proceed.</p>",0.5,"",NA,"",NA,"","","",NA,NA,NA,"","","","",NA,NA
"","","","","","html-slider-response",10,323447,"0.0-9.0-0.0","kntv4xvd14",6,NA,"<div style=""width:500px;"">
                                    <p style=""font-size:25px;"">Please move the slider all the way to the <br> left endpoint of the scale</p>

                                    </div>
                                </div>",0,"",0,"true",1,"true","","",NA,NA,NA,"","","","",NA,NA
"","","","","","html-button-response",11,324854,"0.0-9.0-1.0","kntv4xvd14",6,906,"<p align='center'><b>Good job!</b> Click on 'Continue' to proceed.</p>",0.5,"",NA,"",NA,"","","",NA,NA,NA,"","","","",NA,NA
"","","","","","html-slider-response",12,329487,"0.0-10.0-0.0","kntv4xvd14",6,NA,"<div style=""width:500px;"">
                                    <p style=""font-size:25px;"">Please move the slider halfway between the center and right endpoint of the scale</p>

                                    </div>
                                </div>",0.755,"",0,"true",2,"true","","",NA,NA,NA,"","","","",NA,NA
"","","","","","html-button-response",13,330862,"0.0-10.0-1.0","kntv4xvd14",6,872,"<p align='center'><b>Good job!</b> Click on 'Continue' to proceed.</p>",0.5,"",NA,"",NA,"","","",NA,NA,NA,"","","","",NA,NA
"","","","","","html-slider-response",14,334056,"0.0-11.0-0.0","kntv4xvd14",6,NA,"<div style=""width:500px;"">
                                    <p style=""font-size:25px;"">Please move the slider halfway between the center and left endpoint of the scale</p>

                                    </div>
                                </div>",0.2325,"",0,"true",3,"true","","",NA,NA,NA,"","","","",NA,NA
"","","","","","html-button-response",15,335446,"0.0-11.0-1.0","kntv4xvd14",6,887,"<p align='center'><b>Good job!</b> Click on 'Continue' to proceed.</p>",0.5,"",NA,"",NA,"","","",NA,NA,NA,"","","","",NA,NA
"","","","","","html-button-response",16,336939,"0.0-12.0","kntv4xvd14",6,1493,"<p>Great job! You've completed the practice trials. Now you will begin the main task.</p>",0.5,"",NA,"",NA,"","","",NA,NA,NA,"","","","",NA,NA
"","","","","","html-button-response",17,339935,"0.0-13.0","kntv4xvd14",6,2995,"<p>In this block of trials, you will be asked to rate how much you associate each map with:</p > <p style = 'font-size:150%; font-weight: bold'>fearful</p><br></br>",0.5,"",NA,"",NA,"","","",NA,NA,NA,"","","","",NA,NA
"","","","","","html-slider-response",18,341991,"0.0-14.0","kntv4xvd14",6,NA,"<div style=""width:500px;"">
                            <p style=""font-size:50px; font-weight:bold;""
                            >fearful</p>
                            <div style=""width:240px; margin: auto;"">
                                <img src=""images/map27_managua_scaleRev_orientMir_270.png"" style= ""width:200px""alt=""img"">
                            </div>
                        </div>",1,"",0,"",NA,"","images/map27_managua_scaleRev_orientMir_270.png","fearful",1,27,27,"managua","orientMir","scaleRev","270",NA,NA
"","","","","","html-slider-response",19,344906,"0.0-15.0","kntv4xvd14",6,NA,"<div style=""width:500px;"">
                            <p style=""font-size:50px; font-weight:bold;""
                            >fearful</p>
                            <div style=""width:240px; margin: auto;"">
                                <img src=""images/map02_turbo_scaleDef_orientMir_000.png"" style= ""width:200px""alt=""img"">
                            </div>
                        </div>",1,"",0,"",NA,"","images/map02_turbo_scaleDef_orientMir_000.png","fearful",1,2,2,"turbo","orientMir","scaleDef","000",NA,NA
"","","","","","html-slider-response",20,348090,"0.0-16.0","kntv4xvd14",6,NA,"<div style=""width:500px;"">
                            <p style=""font-size:50px; font-weight:bold;""
                            >fearful</p>
                            <div style=""width:240px; margin: auto;"">
                                <img src=""images/map13_YlGnBu_scaleDef_orientMir_000.png"" style= ""width:200px""alt=""img"">
                            </div>
                        </div>",0.2475,"",0,"",NA,"","images/map13_YlGnBu_scaleDef_orientMir_000.png","fearful",1,13,13,"YlGnBu","orientMir","scaleDef","000",NA,NA
"","","","","","html-slider-response",21,351132,"0.0-17.0","kntv4xvd14",6,NA,"<div style=""width:500px;"">
                            <p style=""font-size:50px; font-weight:bold;""
                            >fearful</p>
                            <div style=""width:240px; margin: auto;"">
                                <img src=""images/map10_YlOrRd_scaleRev_orientMir_270.png"" style= ""width:200px""alt=""img"">
                            </div>
                        </div>",0.765,"",0,"",NA,"","images/map10_YlOrRd_scaleRev_orientMir_270.png","fearful",1,10,10,"YlOrRd","orientMir","scaleRev","270",NA,NA
"","","","","","html-slider-response",22,354038,"0.0-18.0","kntv4xvd14",6,NA,"<div style=""width:500px;"">
                            <p style=""font-size:50px; font-weight:bold;""
                            >fearful</p>
                            <div style=""width:240px; margin: auto;"">
                                <img src=""images/map10_Reds_scaleRev_orientDef_270.png"" style= ""width:200px""alt=""img"">
                            </div>
                        </div>",0.78,"",0,"",NA,"","images/map10_Reds_scaleRev_orientDef_270.png","fearful",1,10,10,"Reds","orientDef","scaleRev","270",NA,NA
"","","","","","html-slider-response",23,356859,"0.0-19.0","kntv4xvd14",6,NA,"<div style=""width:500px;"">
                            <p style=""font-size:50px; font-weight:bold;""
                            >fearful</p>
                            <div style=""width:240px; margin: auto;"">
                                <img src=""images/map23_PuOr_scaleRev_orientDef_270.png"" style= ""width:200px""alt=""img"">
                            </div>
                        </div>",0.24,"",0,"",NA,"","images/map23_PuOr_scaleRev_orientDef_270.png","fearful",1,23,23,"PuOr","orientDef","scaleRev","270",NA,NA
"","","","","","html-slider-response",24,359776,"0.0-20.0","kntv4xvd14",6,NA,"<div style=""width:500px;"">
                            <p style=""font-size:50px; font-weight:bold;""
                            >fearful</p>
                            <div style=""width:240px; margin: auto;"">
                                <img src=""images/map23_RdGy_scaleRev_orientMir_090.png"" style= ""width:200px""alt=""img"">
                            </div>
                        </div>",0.77,"",0,"",NA,"","images/map23_RdGy_scaleRev_orientMir_090.png","fearful",1,23,23,"RdGy","orientMir","scaleRev","090",NA,NA
"","","","","","html-slider-response",25,363494,"0.0-21.0","kntv4xvd14",6,NA,"<div style=""width:500px;"">
                            <p style=""font-size:50px; font-weight:bold;""
                            >fearful</p>
                            <div style=""width:240px; margin: auto;"">
                                <img src=""images/map13_PuBuGn_scaleRev_orientMir_270.png"" style= ""width:200px""alt=""img"">
                            </div>
                        </div>",0,"",0,"",NA,"","images/map13_PuBuGn_scaleRev_orientMir_270.png","fearful",1,13,13,"PuBuGn","orientMir","scaleRev","270",NA,NA
"","","","","","html-slider-response",26,365556,"0.0-22.0","kntv4xvd14",6,NA,"<div style=""width:500px;"">
                            <p style=""font-size:50px; font-weight:bold;""
                            >fearful</p>
                            <div style=""width:240px; margin: auto;"">
                                <img src=""images/map26_Spectral_scaleRev_orientMir_090.png"" style= ""width:200px""alt=""img"">
                            </div>
                        </div>",1,"",0,"",NA,"","images/map26_Spectral_scaleRev_orientMir_090.png","fearful",1,26,26,"Spectral","orientMir","scaleRev","090",NA,NA
"","","","","","html-slider-response",27,368511,"0.0-23.0","kntv4xvd14",6,NA,"<div style=""width:500px;"">
                            <p style=""font-size:50px; font-weight:bold;""
                            >fearful</p>
                            <div style=""width:240px; margin: auto;"">
                                <img src=""images/map13_GnBu_scaleRev_orientDef_090.png"" style= ""width:200px""alt=""img"">
                            </div>
                        </div>",0,"",0,"",NA,"","images/map13_GnBu_scaleRev_orientDef_090.png","fearful",1,13,13,"GnBu","orientDef","scaleRev","090",NA,NA
"","","","","","html-slider-response",28,370786,"0.0-24.0","kntv4xvd14",6,NA,"<div style=""width:500px;"">
                            <p style=""font-size:50px; font-weight:bold;""
                            >fearful</p>
                            <div style=""width:240px; margin: auto;"">
                                <img src=""images/map26_RdYlGn_scaleRev_orientDef_270.png"" style= ""width:200px""alt=""img"">
                            </div>
                        </div>",0.7675,"",0,"",NA,"","images/map26_RdYlGn_scaleRev_orientDef_270.png","fearful",1,26,26,"RdYlGn","orientDef","scaleRev","270",NA,NA
"","","","","","html-slider-response",29,372881,"0.0-25.0","kntv4xvd14",6,NA,"<div style=""width:500px;"">
                            <p style=""font-size:50px; font-weight:bold;""
                            >fearful</p>
                            <div style=""width:240px; margin: auto;"">
                                <img src=""images/map26_RdYlGn_scaleDef_orientDef_180.png"" style= ""width:200px""alt=""img"">
                            </div>
                        </div>",0.775,"",0,"",NA,"","images/map26_RdYlGn_scaleDef_orientDef_180.png","fearful",1,26,26,"RdYlGn","orientDef","scaleDef","180",NA,NA
"","","","","","html-slider-response",30,375079,"0.0-26.0","kntv4xvd14",6,NA,"<div style=""width:500px;"">
                            <p style=""font-size:50px; font-weight:bold;""
                            >fearful</p>
                            <div style=""width:240px; margin: auto;"">
                                <img src=""images/map13_PuBuGn_scaleDef_orientMir_180.png"" style= ""width:200px""alt=""img"">
                            </div>
                        </div>",0,"",0,"",NA,"","images/map13_PuBuGn_scaleDef_orientMir_180.png","fearful",1,13,13,"PuBuGn","orientMir","scaleDef","180",NA,NA
"","","","","","html-slider-response",31,377230,"0.0-27.0","kntv4xvd14",6,NA,"<div style=""width:500px;"">
                            <p style=""font-size:50px; font-weight:bold;""
                            >fearful</p>
                            <div style=""width:240px; margin: auto;"">
                                <img src=""images/map10_YlOrRd_scaleDef_orientMir_180.png"" style= ""width:200px""alt=""img"">
                            </div>
                        </div>",0.775,"",0,"",NA,"","images/map10_YlOrRd_scaleDef_orientMir_180.png","fearful",1,10,10,"YlOrRd","orientMir","scaleDef","180",NA,NA
"","","","","","html-slider-response",32,379032,"0.0-28.0","kntv4xvd14",6,NA,"<div style=""width:500px;"">
                            <p style=""font-size:50px; font-weight:bold;""
                            >fearful</p>
                            <div style=""width:240px; margin: auto;"">
                                <img src=""images/map07_Purples_scaleDef_orientDef_180.png"" style= ""width:200px""alt=""img"">
                            </div>
                        </div>",0,"",0,"",NA,"","images/map07_Purples_scaleDef_orientDef_180.png","fearful",1,7,7,"Purples","orientDef","scaleDef","180",NA,NA
"","","","","","html-slider-response",33,381810,"0.0-29.0","kntv4xvd14",6,NA,"<div style=""width:500px;"">
                            <p style=""font-size:50px; font-weight:bold;""
                            >fearful</p>
                            <div style=""width:240px; margin: auto;"">
                                <img src=""images/map26_coolwarm_scaleRev_orientMir_270.png"" style= ""width:200px""alt=""img"">
                            </div>
                        </div>",1,"",0,"",NA,"","images/map26_coolwarm_scaleRev_orientMir_270.png","fearful",1,26,26,"coolwarm","orientMir","scaleRev","270",NA,NA
"","","","","","html-slider-response",34,384172,"0.0-30.0","kntv4xvd14",6,NA,"<div style=""width:500px;"">
                            <p style=""font-size:50px; font-weight:bold;""
                            >fearful</p>
                            <div style=""width:240px; margin: auto;"">
                                <img src=""images/map15_PiYG_scaleDef_orientMir_000.png"" style= ""width:200px""alt=""img"">
                            </div>
                        </div>",0.2275,"",0,"",NA,"","images/map15_PiYG_scaleDef_orientMir_000.png","fearful",1,15,15,"PiYG","orientMir","scaleDef","000",NA,NA
"","","","","","html-slider-response",35,387588,"0.0-31.0","kntv4xvd14",6,NA,"<div style=""width:500px;"">
                            <p style=""font-size:50px; font-weight:bold;""
                            >fearful</p>
                            <div style=""width:240px; margin: auto;"">
                                <img src=""images/map02_gist_earth_scaleDef_orientDef_180.png"" style= ""width:200px""alt=""img"">
                            </div>
                        </div>",0.2375,"",0,"",NA,"","images/map02_gist_earth_scaleDef_orientDef_180.png","fearful",1,2,2,"gist","scaleDef","earth","orientDef",NA,NA
"","","","","","html-slider-response",36,393346,"0.0-32.0","kntv4xvd14",6,NA,"<div style=""width:500px;"">
                            <p style=""font-size:50px; font-weight:bold;""
                            >fearful</p>
                            <div style=""width:240px; margin: auto;"">
                                <img src=""images/map05_plasma_scaleDef_orientDef_000.png"" style= ""width:200px""alt=""img"">
                            </div>
                        </div>",0.7325,"",0,"",NA,"","images/map05_plasma_scaleDef_orientDef_000.png","fearful",1,5,5,"plasma","orientDef","scaleDef","000",NA,NA
"","","","","","html-slider-response",37,395440,"0.0-33.0","kntv4xvd14",6,NA,"<div style=""width:500px;"">
                            <p style=""font-size:50px; font-weight:bold;""
                            >fearful</p>
                            <div style=""width:240px; margin: auto;"">
                                <img src=""images/map07_Greys_scaleDef_orientDef_000.png"" style= ""width:200px""alt=""img"">
                            </div>
                        </div>",0,"",0,"",NA,"","images/map07_Greys_scaleDef_orientDef_000.png","fearful",1,7,7,"Greys","orientDef","scaleDef","000",NA,NA
"","","","","","html-slider-response",38,398006,"0.0-34.0","kntv4xvd14",6,NA,"<div style=""width:500px;"">
                            <p style=""font-size:50px; font-weight:bold;""
                            >fearful</p>
                            <div style=""width:240px; margin: auto;"">
                                <img src=""images/map26_coolwarm_scaleDef_orientMir_180.png"" style= ""width:200px""alt=""img"">
                            </div>
                        </div>",0.2575,"",0,"",NA,"","images/map26_coolwarm_scaleDef_orientMir_180.png","fearful",1,26,26,"coolwarm","orientMir","scaleDef","180",NA,NA
"","","","","","html-slider-response",39,400236,"0.0-35.0","kntv4xvd14",6,NA,"<div style=""width:500px;"">
                            <p style=""font-size:50px; font-weight:bold;""
                            >fearful</p>
                            <div style=""width:240px; margin: auto;"">
                                <img src=""images/map27_seismic_scaleRev_orientDef_270.png"" style= ""width:200px""alt=""img"">
                            </div>
                        </div>",0.775,"",0,"",NA,"","images/map27_seismic_scaleRev_orientDef_270.png","fearful",1,27,27,"seismic","orientDef","scaleRev","270",NA,NA
"","","","","","html-slider-response",40,402444,"0.0-36.0","kntv4xvd14",6,NA,"<div style=""width:500px;"">
                            <p style=""font-size:50px; font-weight:bold;""
                            >fearful</p>
                            <div style=""width:240px; margin: auto;"">
                                <img src=""images/map05_inferno_scaleRev_orientDef_270.png"" style= ""width:200px""alt=""img"">
                            </div>
                        </div>",0.765,"",0,"",NA,"","images/map05_inferno_scaleRev_orientDef_270.png","fearful",1,5,5,"inferno","orientDef","scaleRev","270",NA,NA
"","","","","","html-slider-response",41,405642,"0.0-37.0","kntv4xvd14",6,NA,"<div style=""width:500px;"">
                            <p style=""font-size:50px; font-weight:bold;""
                            >fearful</p>
                            <div style=""width:240px; margin: auto;"">
                                <img src=""images/map15_BuGn_scaleDef_orientDef_000.png"" style= ""width:200px""alt=""img"">
                            </div>
                        </div>",0,"",0,"",NA,"","images/map15_BuGn_scaleDef_orientDef_000.png","fearful",1,15,15,"BuGn","orientDef","scaleDef","000",NA,NA
"","","","","","html-slider-response",42,407705,"0.0-38.0","kntv4xvd14",6,NA,"<div style=""width:500px;"">
                            <p style=""font-size:50px; font-weight:bold;""
                            >fearful</p>
                            <div style=""width:240px; margin: auto;"">
                                <img src=""images/map26_RdYlBu_scaleRev_orientDef_090.png"" style= ""width:200px""alt=""img"">
                            </div>
                        </div>",0.76,"",0,"",NA,"","images/map26_RdYlBu_scaleRev_orientDef_090.png","fearful",1,26,26,"RdYlBu","orientDef","scaleRev","090",NA,NA
"","","","","","html-slider-response",43,409936,"0.0-39.0","kntv4xvd14",6,NA,"<div style=""width:500px;"">
                            <p style=""font-size:50px; font-weight:bold;""
                            >fearful</p>
                            <div style=""width:240px; margin: auto;"">
                                <img src=""images/map27_bwr_scaleRev_orientDef_090.png"" style= ""width:200px""alt=""img"">
                            </div>
                        </div>",0.7475,"",0,"",NA,"","images/map27_bwr_scaleRev_orientDef_090.png","fearful",1,27,27,"bwr","orientDef","scaleRev","090",NA,NA
"","","","","","html-slider-response",44,411982,"0.0-40.0","kntv4xvd14",6,NA,"<div style=""width:500px;"">
                            <p style=""font-size:50px; font-weight:bold;""
                            >fearful</p>
                            <div style=""width:240px; margin: auto;"">
                                <img src=""images/map02_vanimo_scaleDef_orientDef_000.png"" style= ""width:200px""alt=""img"">
                            </div>
                        </div>",0,"",0,"",NA,"","images/map02_vanimo_scaleDef_orientDef_000.png","fearful",1,2,2,"vanimo","orientDef","scaleDef","000",NA,NA
"","","","","","html-slider-response",45,414020,"0.0-41.0","kntv4xvd14",6,NA,"<div style=""width:500px;"">
                            <p style=""font-size:50px; font-weight:bold;""
                            >fearful</p>
                            <div style=""width:240px; margin: auto;"">
                                <img src=""images/map07_Blues_scaleDef_orientMir_000.png"" style= ""width:200px""alt=""img"">
                            </div>
                        </div>",0,"",0,"",NA,"","images/map07_Blues_scaleDef_orientMir_000.png","fearful",1,7,7,"Blues","orientMir","scaleDef","000",NA,NA
"","","","","","html-slider-response",46,416456,"0.0-42.0","kntv4xvd14",6,NA,"<div style=""width:500px;"">
                            <p style=""font-size:50px; font-weight:bold;""
                            >fearful</p>
                            <div style=""width:240px; margin: auto;"">
                                <img src=""images/map05_magma_scaleDef_orientMir_000.png"" style= ""width:200px""alt=""img"">
                            </div>
                        </div>",0.765,"",0,"",NA,"","images/map05_magma_scaleDef_orientMir_000.png","fearful",1,5,5,"magma","orientMir","scaleDef","000",NA,NA
"","","","","","html-slider-response",47,418339,"0.0-43.0","kntv4xvd14",6,NA,"<div style=""width:500px;"">
                            <p style=""font-size:50px; font-weight:bold;""
                            >fearful</p>
                            <div style=""width:240px; margin: auto;"">
                                <img src=""images/map15_BuGn_scaleRev_orientDef_090.png"" style= ""width:200px""alt=""img"">
                            </div>
                        </div>",0,"",0,"",NA,"","images/map15_BuGn_scaleRev_orientDef_090.png","fearful",1,15,15,"BuGn","orientDef","scaleRev","090",NA,NA
"","","","","","html-slider-response",48,420093,"0.0-44.0","kntv4xvd14",6,NA,"<div style=""width:500px;"">
                            <p style=""font-size:50px; font-weight:bold;""
                            >fearful</p>
                            <div style=""width:240px; margin: auto;"">
                                <img src=""images/map13_PuBu_scaleDef_orientDef_180.png"" style= ""width:200px""alt=""img"">
                            </div>
                        </div>",0,"",0,"",NA,"","images/map13_PuBu_scaleDef_orientDef_180.png","fearful",1,13,13,"PuBu","orientDef","scaleDef","180",NA,NA
"","","","","","html-slider-response",49,422772,"0.0-45.0","kntv4xvd14",6,NA,"<div style=""width:500px;"">
                            <p style=""font-size:50px; font-weight:bold;""
                            >fearful</p>
                            <div style=""width:240px; margin: auto;"">
                                <img src=""images/map15_PRGn_scaleDef_orientMir_180.png"" style= ""width:200px""alt=""img"">
                            </div>
                        </div>",0.2575,"",0,"",NA,"","images/map15_PRGn_scaleDef_orientMir_180.png","fearful",1,15,15,"PRGn","orientMir","scaleDef","180",NA,NA
"","","","","","html-slider-response",50,426832,"0.0-46.0","kntv4xvd14",6,NA,"<div style=""width:500px;"">
                            <p style=""font-size:50px; font-weight:bold;""
                            >fearful</p>
                            <div style=""width:240px; margin: auto;"">
                                <img src=""images/map10_YlOrBr_scaleDef_orientMir_000.png"" style= ""width:200px""alt=""img"">
                            </div>
                        </div>",0.755,"",0,"",NA,"","images/map10_YlOrBr_scaleDef_orientMir_000.png","fearful",1,10,10,"YlOrBr","orientMir","scaleDef","000",NA,NA
"","","","","","html-slider-response",51,428845,"0.0-47.0","kntv4xvd14",6,NA,"<div style=""width:500px;"">
                            <p style=""font-size:50px; font-weight:bold;""
                            >fearful</p>
                            <div style=""width:240px; margin: auto;"">
                                <img src=""images/map02_gist_earth_scaleRev_orientDef_270.png"" style= ""width:200px""alt=""img"">
                            </div>
                        </div>",0.2275,"",0,"",NA,"","images/map02_gist_earth_scaleRev_orientDef_270.png","fearful",1,2,2,"gist","scaleRev","earth","orientDef",NA,NA
"","","","","","html-slider-response",52,430826,"0.0-48.0","kntv4xvd14",6,NA,"<div style=""width:500px;"">
                            <p style=""font-size:50px; font-weight:bold;""
                            >fearful</p>
                            <div style=""width:240px; margin: auto;"">
                                <img src=""images/map12_OrRd_scaleRev_orientDef_090.png"" style= ""width:200px""alt=""img"">
                            </div>
                        </div>",0.7725,"",0,"",NA,"","images/map12_OrRd_scaleRev_orientDef_090.png","fearful",1,12,12,"OrRd","orientDef","scaleRev","090",NA,NA
"","","","","","html-slider-response",53,434544,"0.0-49.0","kntv4xvd14",6,NA,"<div style=""width:500px;"">
                            <p style=""font-size:50px; font-weight:bold;""
                            >fearful</p>
                            <div style=""width:240px; margin: auto;"">
                                <img src=""images/map12_PuRd_scaleRev_orientDef_270.png"" style= ""width:200px""alt=""img"">
                            </div>
                        </div>",0.205,"",0,"",NA,"","images/map12_PuRd_scaleRev_orientDef_270.png","fearful",1,12,12,"PuRd","orientDef","scaleRev","270",NA,NA
"","","","","","html-slider-response",54,436581,"0.0-50.0","kntv4xvd14",6,NA,"<div style=""width:500px;"">
                            <p style=""font-size:50px; font-weight:bold;""
                            >fearful</p>
                            <div style=""width:240px; margin: auto;"">
                                <img src=""images/map12_RdPu_scaleDef_orientMir_000.png"" style= ""width:200px""alt=""img"">
                            </div>
                        </div>",0.2425,"",0,"",NA,"","images/map12_RdPu_scaleDef_orientMir_000.png","fearful",1,12,12,"RdPu","orientMir","scaleDef","000",NA,NA
"","","","","","html-slider-response",55,438830,"0.0-51.0","kntv4xvd14",6,NA,"<div style=""width:500px;"">
                            <p style=""font-size:50px; font-weight:bold;""
                            >fearful</p>
                            <div style=""width:240px; margin: auto;"">
                                <img src=""images/map05_plasma_scaleRev_orientDef_090.png"" style= ""width:200px""alt=""img"">
                            </div>
                        </div>",0.755,"",0,"",NA,"","images/map05_plasma_scaleRev_orientDef_090.png","fearful",1,5,5,"plasma","orientDef","scaleRev","090",NA,NA
"","","","","","html-slider-response",56,440600,"0.0-52.0","kntv4xvd14",6,NA,"<div style=""width:500px;"">
                            <p style=""font-size:50px; font-weight:bold;""
                            >fearful</p>
                            <div style=""width:240px; margin: auto;"">
                                <img src=""images/map07_Purples_scaleRev_orientDef_270.png"" style= ""width:200px""alt=""img"">
                            </div>
                        </div>",0,"",0,"",NA,"","images/map07_Purples_scaleRev_orientDef_270.png","fearful",1,7,7,"Purples","orientDef","scaleRev","270",NA,NA
"","","","","","html-slider-response",57,443597,"0.0-53.0","kntv4xvd14",6,NA,"<div style=""width:500px;"">
                            <p style=""font-size:50px; font-weight:bold;""
                            >fearful</p>
                            <div style=""width:240px; margin: auto;"">
                                <img src=""images/map02_viridis_scaleRev_orientMir_270.png"" style= ""width:200px""alt=""img"">
                            </div>
                        </div>",0.7625,"",0,"",NA,"","images/map02_viridis_scaleRev_orientMir_270.png","fearful",1,2,2,"viridis","orientMir","scaleRev","270",NA,NA
"","","","","","html-button-response",58,446955,"0.0-54.0","kntv4xvd14",6,2856,"<p>You are doing great!<br></br> You are halway done with the current block. When you are ready to continue, click the 'Continue' button.</p>",0.5,"",NA,"",NA,"","","",NA,NA,NA,"","","","",NA,NA
"","","","","","html-slider-response",59,449655,"0.0-55.0","kntv4xvd14",6,NA,"<div style=""width:500px;"">
                            <p style=""font-size:50px; font-weight:bold;""
                            >fearful</p>
                            <div style=""width:240px; margin: auto;"">
                                <img src=""images/map23_PuOr_scaleDef_orientDef_180.png"" style= ""width:200px""alt=""img"">
                            </div>
                        </div>",0.745,"",0,"",NA,"","images/map23_PuOr_scaleDef_orientDef_180.png","fearful",1,23,23,"PuOr","orientDef","scaleDef","180",NA,NA
"","","","","","html-slider-response",60,452096,"0.0-56.0","kntv4xvd14",6,NA,"<div style=""width:500px;"">
                            <p style=""font-size:50px; font-weight:bold;""
                            >fearful</p>
                            <div style=""width:240px; margin: auto;"">
                                <img src=""images/map27_berlin_scaleRev_orientMir_090.png"" style= ""width:200px""alt=""img"">
                            </div>
                        </div>",0.235,"",0,"",NA,"","images/map27_berlin_scaleRev_orientMir_090.png","fearful",1,27,27,"berlin","orientMir","scaleRev","090",NA,NA
"","","","","","html-slider-response",61,454224,"0.0-57.0","kntv4xvd14",6,NA,"<div style=""width:500px;"">
                            <p style=""font-size:50px; font-weight:bold;""
                            >fearful</p>
                            <div style=""width:240px; margin: auto;"">
                                <img src=""images/map07_Blues_scaleRev_orientMir_090.png"" style= ""width:200px""alt=""img"">
                            </div>
                        </div>",0,"",0,"",NA,"","images/map07_Blues_scaleRev_orientMir_090.png","fearful",1,7,7,"Blues","orientMir","scaleRev","090",NA,NA
"","","","","","html-slider-response",62,456442,"0.0-58.0","kntv4xvd14",6,NA,"<div style=""width:500px;"">
                            <p style=""font-size:50px; font-weight:bold;""
                            >fearful</p>
                            <div style=""width:240px; margin: auto;"">
                                <img src=""images/map05_magma_scaleRev_orientMir_090.png"" style= ""width:200px""alt=""img"">
                            </div>
                        </div>",0.78,"",0,"",NA,"","images/map05_magma_scaleRev_orientMir_090.png","fearful",1,5,5,"magma","orientMir","scaleRev","090",NA,NA
"","","","","","html-slider-response",63,459274,"0.0-59.0","kntv4xvd14",6,NA,"<div style=""width:500px;"">
                            <p style=""font-size:50px; font-weight:bold;""
                            >fearful</p>
                            <div style=""width:240px; margin: auto;"">
                                <img src=""images/map12_RdPu_scaleRev_orientMir_090.png"" style= ""width:200px""alt=""img"">
                            </div>
                        </div>",0.225,"",0,"",NA,"","images/map12_RdPu_scaleRev_orientMir_090.png","fearful",1,12,12,"RdPu","orientMir","scaleRev","090",NA,NA
"","","","","","html-slider-response",64,461352,"0.0-60.0","kntv4xvd14",6,NA,"<div style=""width:500px;"">
                            <p style=""font-size:50px; font-weight:bold;""
                            >fearful</p>
                            <div style=""width:240px; margin: auto;"">
                                <img src=""images/map10_Oranges_scaleRev_orientDef_090.png"" style= ""width:200px""alt=""img"">
                            </div>
                        </div>",0,"",0,"",NA,"","images/map10_Oranges_scaleRev_orientDef_090.png","fearful",1,10,10,"Oranges","orientDef","scaleRev","090",NA,NA
"","","","","","html-slider-response",65,463910,"0.0-61.0","kntv4xvd14",6,NA,"<div style=""width:500px;"">
                            <p style=""font-size:50px; font-weight:bold;""
                            >fearful</p>
                            <div style=""width:240px; margin: auto;"">
                                <img src=""images/map23_BrBG_scaleRev_orientDef_090.png"" style= ""width:200px""alt=""img"">
                            </div>
                        </div>",0.225,"",0,"",NA,"","images/map23_BrBG_scaleRev_orientDef_090.png","fearful",1,23,23,"BrBG","orientDef","scaleRev","090",NA,NA
"","","","","","html-slider-response",66,465988,"0.0-62.0","kntv4xvd14",6,NA,"<div style=""width:500px;"">
                            <p style=""font-size:50px; font-weight:bold;""
                            >fearful</p>
                            <div style=""width:240px; margin: auto;"">
                                <img src=""images/map27_managua_scaleDef_orientMir_180.png"" style= ""width:200px""alt=""img"">
                            </div>
                        </div>",1,"",0,"",NA,"","images/map27_managua_scaleDef_orientMir_180.png","fearful",1,27,27,"managua","orientMir","scaleDef","180",NA,NA
"","","","","","html-slider-response",67,469417,"0.0-63.0","kntv4xvd14",6,NA,"<div style=""width:500px;"">
                            <p style=""font-size:50px; font-weight:bold;""
                            >fearful</p>
                            <div style=""width:240px; margin: auto;"">
                                <img src=""images/map10_Oranges_scaleDef_orientDef_000.png"" style= ""width:200px""alt=""img"">
                            </div>
                        </div>",0,"",0,"",NA,"","images/map10_Oranges_scaleDef_orientDef_000.png","fearful",1,10,10,"Oranges","orientDef","scaleDef","000",NA,NA
"","","","","","html-slider-response",68,471192,"0.0-64.0","kntv4xvd14",6,NA,"<div style=""width:500px;"">
                            <p style=""font-size:50px; font-weight:bold;""
                            >fearful</p>
                            <div style=""width:240px; margin: auto;"">
                                <img src=""images/map07_Greys_scaleRev_orientDef_090.png"" style= ""width:200px""alt=""img"">
                            </div>
                        </div>",0,"",0,"",NA,"","images/map07_Greys_scaleRev_orientDef_090.png","fearful",1,7,7,"Greys","orientDef","scaleRev","090",NA,NA
"","","","","","html-slider-response",69,473368,"0.0-65.0","kntv4xvd14",6,NA,"<div style=""width:500px;"">
                            <p style=""font-size:50px; font-weight:bold;""
                            >fearful</p>
                            <div style=""width:240px; margin: auto;"">
                                <img src=""images/map05_cividis_scaleRev_orientMir_270.png"" style= ""width:200px""alt=""img"">
                            </div>
                        </div>",0.2275,"",0,"",NA,"","images/map05_cividis_scaleRev_orientMir_270.png","fearful",1,5,5,"cividis","orientMir","scaleRev","270",NA,NA
"","","","","","html-slider-response",70,475538,"0.0-66.0","kntv4xvd14",6,NA,"<div style=""width:500px;"">
                            <p style=""font-size:50px; font-weight:bold;""
                            >fearful</p>
                            <div style=""width:240px; margin: auto;"">
                                <img src=""images/map23_RdBu_scaleDef_orientMir_180.png"" style= ""width:200px""alt=""img"">
                            </div>
                        </div>",0.235,"",0,"",NA,"","images/map23_RdBu_scaleDef_orientMir_180.png","fearful",1,23,23,"RdBu","orientMir","scaleDef","180",NA,NA
"","","","","","html-slider-response",71,477329,"0.0-67.0","kntv4xvd14",6,NA,"<div style=""width:500px;"">
                            <p style=""font-size:50px; font-weight:bold;""
                            >fearful</p>
                            <div style=""width:240px; margin: auto;"">
                                <img src=""images/map07_Greens_scaleRev_orientMir_270.png"" style= ""width:200px""alt=""img"">
                            </div>
                        </div>",0,"",0,"",NA,"","images/map07_Greens_scaleRev_orientMir_270.png","fearful",1,7,7,"Greens","orientMir","scaleRev","270",NA,NA
"","","","","","html-slider-response",72,479206,"0.0-68.0","kntv4xvd14",6,NA,"<div style=""width:500px;"">
                            <p style=""font-size:50px; font-weight:bold;""
                            >fearful</p>
                            <div style=""width:240px; margin: auto;"">
                                <img src=""images/map12_PuRd_scaleDef_orientDef_180.png"" style= ""width:200px""alt=""img"">
                            </div>
                        </div>",0.235,"",0,"",NA,"","images/map12_PuRd_scaleDef_orientDef_180.png","fearful",1,12,12,"PuRd","orientDef","scaleDef","180",NA,NA
"","","","","","html-slider-response",73,481397,"0.0-69.0","kntv4xvd14",6,NA,"<div style=""width:500px;"">
                            <p style=""font-size:50px; font-weight:bold;""
                            >fearful</p>
                            <div style=""width:240px; margin: auto;"">
                                <img src=""images/map26_RdYlBu_scaleDef_orientDef_000.png"" style= ""width:200px""alt=""img"">
                            </div>
                        </div>",1,"",0,"",NA,"","images/map26_RdYlBu_scaleDef_orientDef_000.png","fearful",1,26,26,"RdYlBu","orientDef","scaleDef","000",NA,NA
"","","","","","html-slider-response",74,484393,"0.0-70.0","kntv4xvd14",6,NA,"<div style=""width:500px;"">
                            <p style=""font-size:50px; font-weight:bold;""
                            >fearful</p>
                            <div style=""width:240px; margin: auto;"">
                                <img src=""images/map10_Reds_scaleDef_orientDef_180.png"" style= ""width:200px""alt=""img"">
                            </div>
                        </div>",0,"",0,"",NA,"","images/map10_Reds_scaleDef_orientDef_180.png","fearful",1,10,10,"Reds","orientDef","scaleDef","180",NA,NA
"","","","","","html-slider-response",75,486358,"0.0-71.0","kntv4xvd14",6,NA,"<div style=""width:500px;"">
                            <p style=""font-size:50px; font-weight:bold;""
                            >fearful</p>
                            <div style=""width:240px; margin: auto;"">
                                <img src=""images/map07_Greens_scaleDef_orientMir_180.png"" style= ""width:200px""alt=""img"">
                            </div>
                        </div>",0,"",0,"",NA,"","images/map07_Greens_scaleDef_orientMir_180.png","fearful",1,7,7,"Greens","orientMir","scaleDef","180",NA,NA
"","","","","","html-slider-response",76,489488,"0.0-72.0","kntv4xvd14",6,NA,"<div style=""width:500px;"">
                            <p style=""font-size:50px; font-weight:bold;""
                            >fearful</p>
                            <div style=""width:240px; margin: auto;"">
                                <img src=""images/map12_OrRd_scaleDef_orientDef_000.png"" style= ""width:200px""alt=""img"">
                            </div>
                        </div>",0,"",0,"",NA,"","images/map12_OrRd_scaleDef_orientDef_000.png","fearful",1,12,12,"OrRd","orientDef","scaleDef","000",NA,NA
"","","","","","html-slider-response",77,491683,"0.0-73.0","kntv4xvd14",6,NA,"<div style=""width:500px;"">
                            <p style=""font-size:50px; font-weight:bold;""
                            >fearful</p>
                            <div style=""width:240px; margin: auto;"">
                                <img src=""images/map02_viridis_scaleDef_orientMir_180.png"" style= ""width:200px""alt=""img"">
                            </div>
                        </div>",0.2375,"",0,"",NA,"","images/map02_viridis_scaleDef_orientMir_180.png","fearful",1,2,2,"viridis","orientMir","scaleDef","180",NA,NA
"","","","","","html-slider-response",78,493769,"0.0-74.0","kntv4xvd14",6,NA,"<div style=""width:500px;"">
                            <p style=""font-size:50px; font-weight:bold;""
                            >fearful</p>
                            <div style=""width:240px; margin: auto;"">
                                <img src=""images/map15_YlGn_scaleDef_orientDef_180.png"" style= ""width:200px""alt=""img"">
                            </div>
                        </div>",0,"",0,"",NA,"","images/map15_YlGn_scaleDef_orientDef_180.png","fearful",1,15,15,"YlGn","orientDef","scaleDef","180",NA,NA
"","","","","","html-slider-response",79,496361,"0.0-75.0","kntv4xvd14",6,NA,"<div style=""width:500px;"">
                            <p style=""font-size:50px; font-weight:bold;""
                            >fearful</p>
                            <div style=""width:240px; margin: auto;"">
                                <img src=""images/map27_berlin_scaleDef_orientMir_000.png"" style= ""width:200px""alt=""img"">
                            </div>
                        </div>",0.755,"",0,"",NA,"","images/map27_berlin_scaleDef_orientMir_000.png","fearful",1,27,27,"berlin","orientMir","scaleDef","000",NA,NA
"","","","","","html-slider-response",80,498487,"0.0-76.0","kntv4xvd14",6,NA,"<div style=""width:500px;"">
                            <p style=""font-size:50px; font-weight:bold;""
                            >fearful</p>
                            <div style=""width:240px; margin: auto;"">
                                <img src=""images/map12_BuPu_scaleRev_orientMir_270.png"" style= ""width:200px""alt=""img"">
                            </div>
                        </div>",0.23,"",0,"",NA,"","images/map12_BuPu_scaleRev_orientMir_270.png","fearful",1,12,12,"BuPu","orientMir","scaleRev","270",NA,NA
"","","","","","html-slider-response",81,501088,"0.0-77.0","kntv4xvd14",6,NA,"<div style=""width:500px;"">
                            <p style=""font-size:50px; font-weight:bold;""
                            >fearful</p>
                            <div style=""width:240px; margin: auto;"">
                                <img src=""images/map23_RdBu_scaleRev_orientMir_270.png"" style= ""width:200px""alt=""img"">
                            </div>
                        </div>",0.765,"",0,"",NA,"","images/map23_RdBu_scaleRev_orientMir_270.png","fearful",1,23,23,"RdBu","orientMir","scaleRev","270",NA,NA
"","","","","","html-slider-response",82,502928,"0.0-78.0","kntv4xvd14",6,NA,"<div style=""width:500px;"">
                            <p style=""font-size:50px; font-weight:bold;""
                            >fearful</p>
                            <div style=""width:240px; margin: auto;"">
                                <img src=""images/map13_PuBu_scaleRev_orientDef_270.png"" style= ""width:200px""alt=""img"">
                            </div>
                        </div>",0,"",0,"",NA,"","images/map13_PuBu_scaleRev_orientDef_270.png","fearful",1,13,13,"PuBu","orientDef","scaleRev","270",NA,NA
"","","","","","html-slider-response",83,504827,"0.0-79.0","kntv4xvd14",6,NA,"<div style=""width:500px;"">
                            <p style=""font-size:50px; font-weight:bold;""
                            >fearful</p>
                            <div style=""width:240px; margin: auto;"">
                                <img src=""images/map15_YlGn_scaleRev_orientDef_270.png"" style= ""width:200px""alt=""img"">
                            </div>
                        </div>",0,"",0,"",NA,"","images/map15_YlGn_scaleRev_orientDef_270.png","fearful",1,15,15,"YlGn","orientDef","scaleRev","270",NA,NA
"","","","","","html-slider-response",84,507403,"0.0-80.0","kntv4xvd14",6,NA,"<div style=""width:500px;"">
                            <p style=""font-size:50px; font-weight:bold;""
                            >fearful</p>
                            <div style=""width:240px; margin: auto;"">
                                <img src=""images/map23_RdGy_scaleDef_orientMir_000.png"" style= ""width:200px""alt=""img"">
                            </div>
                        </div>",0.75,"",0,"",NA,"","images/map23_RdGy_scaleDef_orientMir_000.png","fearful",1,23,23,"RdGy","orientMir","scaleDef","000",NA,NA
"","","","","","html-slider-response",85,510708,"0.0-81.0","kntv4xvd14",6,NA,"<div style=""width:500px;"">
                            <p style=""font-size:50px; font-weight:bold;""
                            >fearful</p>
                            <div style=""width:240px; margin: auto;"">
                                <img src=""images/map10_YlOrBr_scaleRev_orientMir_090.png"" style= ""width:200px""alt=""img"">
                            </div>
                        </div>",0.2175,"",0,"",NA,"","images/map10_YlOrBr_scaleRev_orientMir_090.png","fearful",1,10,10,"YlOrBr","orientMir","scaleRev","090",NA,NA
"","","","","","html-slider-response",86,512703,"0.0-82.0","kntv4xvd14",6,NA,"<div style=""width:500px;"">
                            <p style=""font-size:50px; font-weight:bold;""
                            >fearful</p>
                            <div style=""width:240px; margin: auto;"">
                                <img src=""images/map05_cividis_scaleDef_orientMir_180.png"" style= ""width:200px""alt=""img"">
                            </div>
                        </div>",0.2175,"",0,"",NA,"","images/map05_cividis_scaleDef_orientMir_180.png","fearful",1,5,5,"cividis","orientMir","scaleDef","180",NA,NA
"","","","","","html-slider-response",87,517268,"0.0-83.0","kntv4xvd14",6,NA,"<div style=""width:500px;"">
                            <p style=""font-size:50px; font-weight:bold;""
                            >fearful</p>
                            <div style=""width:240px; margin: auto;"">
                                <img src=""images/map27_bwr_scaleDef_orientDef_000.png"" style= ""width:200px""alt=""img"">
                            </div>
                        </div>",0.7525,"",0,"",NA,"","images/map27_bwr_scaleDef_orientDef_000.png","fearful",1,27,27,"bwr","orientDef","scaleDef","000",NA,NA
"","","","","","html-slider-response",88,519603,"0.0-84.0","kntv4xvd14",6,NA,"<div style=""width:500px;"">
                            <p style=""font-size:50px; font-weight:bold;""
                            >fearful</p>
                            <div style=""width:240px; margin: auto;"">
                                <img src=""images/map12_BuPu_scaleDef_orientMir_180.png"" style= ""width:200px""alt=""img"">
                            </div>
                        </div>",0.215,"",0,"",NA,"","images/map12_BuPu_scaleDef_orientMir_180.png","fearful",1,12,12,"BuPu","orientMir","scaleDef","180",NA,NA
"","","","","","html-slider-response",89,521284,"0.0-85.0","kntv4xvd14",6,NA,"<div style=""width:500px;"">
                            <p style=""font-size:50px; font-weight:bold;""
                            >fearful</p>
                            <div style=""width:240px; margin: auto;"">
                                <img src=""images/map02_turbo_scaleRev_orientMir_090.png"" style= ""width:200px""alt=""img"">
                            </div>
                        </div>",1,"",0,"",NA,"","images/map02_turbo_scaleRev_orientMir_090.png","fearful",1,2,2,"turbo","orientMir","scaleRev","090",NA,NA
"","","","","","html-slider-response",90,523070,"0.0-86.0","kntv4xvd14",6,NA,"<div style=""width:500px;"">
                            <p style=""font-size:50px; font-weight:bold;""
                            >fearful</p>
                            <div style=""width:240px; margin: auto;"">
                                <img src=""images/map13_YlGnBu_scaleRev_orientMir_090.png"" style= ""width:200px""alt=""img"">
                            </div>
                        </div>",0,"",0,"",NA,"","images/map13_YlGnBu_scaleRev_orientMir_090.png","fearful",1,13,13,"YlGnBu","orientMir","scaleRev","090",NA,NA
"","","","","","html-slider-response",91,524865,"0.0-87.0","kntv4xvd14",6,NA,"<div style=""width:500px;"">
                            <p style=""font-size:50px; font-weight:bold;""
                            >fearful</p>
                            <div style=""width:240px; margin: auto;"">
                                <img src=""images/map27_seismic_scaleDef_orientDef_180.png"" style= ""width:200px""alt=""img"">
                            </div>
                        </div>",1,"",0,"",NA,"","images/map27_seismic_scaleDef_orientDef_180.png","fearful",1,27,27,"seismic","orientDef","scaleDef","180",NA,NA
"","","","","","html-slider-response",92,526910,"0.0-88.0","kntv4xvd14",6,NA,"<div style=""width:500px;"">
                            <p style=""font-size:50px; font-weight:bold;""
                            >fearful</p>
                            <div style=""width:240px; margin: auto;"">
                                <img src=""images/map15_PiYG_scaleRev_orientMir_090.png"" style= ""width:200px""alt=""img"">
                            </div>
                        </div>",0.205,"",0,"",NA,"","images/map15_PiYG_scaleRev_orientMir_090.png","fearful",1,15,15,"PiYG","orientMir","scaleRev","090",NA,NA
"","","","","","html-slider-response",93,529037,"0.0-89.0","kntv4xvd14",6,NA,"<div style=""width:500px;"">
                            <p style=""font-size:50px; font-weight:bold;""
                            >fearful</p>
                            <div style=""width:240px; margin: auto;"">
                                <img src=""images/map13_GnBu_scaleDef_orientDef_000.png"" style= ""width:200px""alt=""img"">
                            </div>
                        </div>",0,"",0,"",NA,"","images/map13_GnBu_scaleDef_orientDef_000.png","fearful",1,13,13,"GnBu","orientDef","scaleDef","000",NA,NA
"","","","","","html-slider-response",94,531256,"0.0-90.0","kntv4xvd14",6,NA,"<div style=""width:500px;"">
                            <p style=""font-size:50px; font-weight:bold;""
                            >fearful</p>
                            <div style=""width:240px; margin: auto;"">
                                <img src=""images/map23_BrBG_scaleDef_orientDef_000.png"" style= ""width:200px""alt=""img"">
                            </div>
                        </div>",0.7525,"",0,"",NA,"","images/map23_BrBG_scaleDef_orientDef_000.png","fearful",1,23,23,"BrBG","orientDef","scaleDef","000",NA,NA
"","","","","","html-slider-response",95,533429,"0.0-91.0","kntv4xvd14",6,NA,"<div style=""width:500px;"">
                            <p style=""font-size:50px; font-weight:bold;""
                            >fearful</p>
                            <div style=""width:240px; margin: auto;"">
                                <img src=""images/map02_vanimo_scaleRev_orientDef_090.png"" style= ""width:200px""alt=""img"">
                            </div>
                        </div>",0.755,"",0,"",NA,"","images/map02_vanimo_scaleRev_orientDef_090.png","fearful",1,2,2,"vanimo","orientDef","scaleRev","090",NA,NA
"","","","","","html-slider-response",96,535428,"0.0-92.0","kntv4xvd14",6,NA,"<div style=""width:500px;"">
                            <p style=""font-size:50px; font-weight:bold;""
                            >fearful</p>
                            <div style=""width:240px; margin: auto;"">
                                <img src=""images/map05_inferno_scaleDef_orientDef_180.png"" style= ""width:200px""alt=""img"">
                            </div>
                        </div>",1,"",0,"",NA,"","images/map05_inferno_scaleDef_orientDef_180.png","fearful",1,5,5,"inferno","orientDef","scaleDef","180",NA,NA
"","","","","","html-slider-response",97,537578,"0.0-93.0","kntv4xvd14",6,NA,"<div style=""width:500px;"">
                            <p style=""font-size:50px; font-weight:bold;""
                            >fearful</p>
                            <div style=""width:240px; margin: auto;"">
                                <img src=""images/map26_Spectral_scaleDef_orientMir_000.png"" style= ""width:200px""alt=""img"">
                            </div>
                        </div>",1,"",0,"",NA,"","images/map26_Spectral_scaleDef_orientMir_000.png","fearful",1,26,26,"Spectral","orientMir","scaleDef","000",NA,NA
"","","","","","html-slider-response",98,539543,"0.0-94.0","kntv4xvd14",6,NA,"<div style=""width:500px;"">
                            <p style=""font-size:50px; font-weight:bold;""
                            >fearful</p>
                            <div style=""width:240px; margin: auto;"">
                                <img src=""images/map15_PRGn_scaleRev_orientMir_270.png"" style= ""width:200px""alt=""img"">
                            </div>
                        </div>",0.2075,"",0,"",NA,"","images/map15_PRGn_scaleRev_orientMir_270.png","fearful",1,15,15,"PRGn","orientMir","scaleRev","270",NA,NA
"","","","","","html-button-response",99,541775,"0.0-95.0","kntv4xvd14",6,1730,"<p>Great Job! You've finished block 1.<br></br> You have 4 block(s) left to go.<br></br></p>",0.5,"",NA,"",NA,"","","",NA,NA,NA,"","","","",NA,NA
"","","","","","html-button-response",100,545736,"0.0-96.0","kntv4xvd14",6,3961,"<p>In this block of trials, you will be asked to rate how much you associate each map with:</p > <p style = 'font-size:150%; font-weight: bold'>happy</p><br></br>",0.5,"",NA,"",NA,"","","",NA,NA,NA,"","","","",NA,NA
"","","","","","html-slider-response",101,550940,"0.0-97.0","kntv4xvd14",6,NA,"<div style=""width:500px;"">
                            <p style=""font-size:50px; font-weight:bold;""
                            >happy</p>
                            <div style=""width:240px; margin: auto;"">
                                <img src=""images/map02_turbo_scaleRev_orientMir_090.png"" style= ""width:200px""alt=""img"">
                            </div>
                        </div>",1,"",0,"",NA,"","images/map02_turbo_scaleRev_orientMir_090.png","happy",1,2,2,"turbo","orientMir","scaleRev","090",NA,NA
"","","","","","html-slider-response",102,554016,"0.0-98.0","kntv4xvd14",6,NA,"<div style=""width:500px;"">
                            <p style=""font-size:50px; font-weight:bold;""
                            >happy</p>
                            <div style=""width:240px; margin: auto;"">
                                <img src=""images/map27_bwr_scaleDef_orientDef_000.png"" style= ""width:200px""alt=""img"">
                            </div>
                        </div>",1,"",0,"",NA,"","images/map27_bwr_scaleDef_orientDef_000.png","happy",1,27,27,"bwr","orientDef","scaleDef","000",NA,NA
"","","","","","html-slider-response",103,556541,"0.0-99.0","kntv4xvd14",6,NA,"<div style=""width:500px;"">
                            <p style=""font-size:50px; font-weight:bold;""
                            >happy</p>
                            <div style=""width:240px; margin: auto;"">
                                <img src=""images/map15_YlGn_scaleDef_orientDef_180.png"" style= ""width:200px""alt=""img"">
                            </div>
                        </div>",0.235,"",0,"",NA,"","images/map15_YlGn_scaleDef_orientDef_180.png","happy",1,15,15,"YlGn","orientDef","scaleDef","180",NA,NA
"","","","","","html-slider-response",104,558636,"0.0-100.0","kntv4xvd14",6,NA,"<div style=""width:500px;"">
                            <p style=""font-size:50px; font-weight:bold;""
                            >happy</p>
                            <div style=""width:240px; margin: auto;"">
                                <img src=""images/map27_managua_scaleDef_orientMir_180.png"" style= ""width:200px""alt=""img"">
                            </div>
                        </div>",0,"",0,"",NA,"","images/map27_managua_scaleDef_orientMir_180.png","happy",1,27,27,"managua","orientMir","scaleDef","180",NA,NA
"","","","","","html-slider-response",105,560462,"0.0-101.0","kntv4xvd14",6,NA,"<div style=""width:500px;"">
                            <p style=""font-size:50px; font-weight:bold;""
                            >happy</p>
                            <div style=""width:240px; margin: auto;"">
                                <img src=""images/map05_cividis_scaleDef_orientMir_180.png"" style= ""width:200px""alt=""img"">
                            </div>
                        </div>",0,"",0,"",NA,"","images/map05_cividis_scaleDef_orientMir_180.png","happy",1,5,5,"cividis","orientMir","scaleDef","180",NA,NA
"","","","","","html-slider-response",106,562711,"0.0-102.0","kntv4xvd14",6,NA,"<div style=""width:500px;"">
                            <p style=""font-size:50px; font-weight:bold;""
                            >happy</p>
                            <div style=""width:240px; margin: auto;"">
                                <img src=""images/map26_RdYlBu_scaleDef_orientDef_000.png"" style= ""width:200px""alt=""img"">
                            </div>
                        </div>",0.75,"",0,"",NA,"","images/map26_RdYlBu_scaleDef_orientDef_000.png","happy",1,26,26,"RdYlBu","orientDef","scaleDef","000",NA,NA
"","","","","","html-slider-response",107,564838,"0.0-103.0","kntv4xvd14",6,NA,"<div style=""width:500px;"">
                            <p style=""font-size:50px; font-weight:bold;""
                            >happy</p>
                            <div style=""width:240px; margin: auto;"">
                                <img src=""images/map23_PuOr_scaleRev_orientDef_270.png"" style= ""width:200px""alt=""img"">
                            </div>
                        </div>",0.775,"",0,"",NA,"","images/map23_PuOr_scaleRev_orientDef_270.png","happy",1,23,23,"PuOr","orientDef","scaleRev","270",NA,NA
"","","","","","html-slider-response",108,567090,"0.0-104.0","kntv4xvd14",6,NA,"<div style=""width:500px;"">
                            <p style=""font-size:50px; font-weight:bold;""
                            >happy</p>
                            <div style=""width:240px; margin: auto;"">
                                <img src=""images/map02_vanimo_scaleDef_orientDef_000.png"" style= ""width:200px""alt=""img"">
                            </div>
                        </div>",0,"",0,"",NA,"","images/map02_vanimo_scaleDef_orientDef_000.png","happy",1,2,2,"vanimo","orientDef","scaleDef","000",NA,NA
"","","","","","html-slider-response",109,569612,"0.0-105.0","kntv4xvd14",6,NA,"<div style=""width:500px;"">
                            <p style=""font-size:50px; font-weight:bold;""
                            >happy</p>
                            <div style=""width:240px; margin: auto;"">
                                <img src=""images/map07_Blues_scaleRev_orientMir_090.png"" style= ""width:200px""alt=""img"">
                            </div>
                        </div>",0.245,"",0,"",NA,"","images/map07_Blues_scaleRev_orientMir_090.png","happy",1,7,7,"Blues","orientMir","scaleRev","090",NA,NA
"","","","","","html-slider-response",110,572219,"0.0-106.0","kntv4xvd14",6,NA,"<div style=""width:500px;"">
                            <p style=""font-size:50px; font-weight:bold;""
                            >happy</p>
                            <div style=""width:240px; margin: auto;"">
                                <img src=""images/map07_Greens_scaleRev_orientMir_270.png"" style= ""width:200px""alt=""img"">
                            </div>
                        </div>",0.2325,"",0,"",NA,"","images/map07_Greens_scaleRev_orientMir_270.png","happy",1,7,7,"Greens","orientMir","scaleRev","270",NA,NA
"","","","","","html-slider-response",111,576221,"0.0-107.0","kntv4xvd14",6,NA,"<div style=""width:500px;"">
                            <p style=""font-size:50px; font-weight:bold;""
                            >happy</p>
                            <div style=""width:240px; margin: auto;"">
                                <img src=""images/map12_BuPu_scaleRev_orientMir_270.png"" style= ""width:200px""alt=""img"">
                            </div>
                        </div>",0.745,"",0,"",NA,"","images/map12_BuPu_scaleRev_orientMir_270.png","happy",1,12,12,"BuPu","orientMir","scaleRev","270",NA,NA
"","","","","","html-slider-response",112,578169,"0.0-108.0","kntv4xvd14",6,NA,"<div style=""width:500px;"">
                            <p style=""font-size:50px; font-weight:bold;""
                            >happy</p>
                            <div style=""width:240px; margin: auto;"">
                                <img src=""images/map23_RdGy_scaleRev_orientMir_090.png"" style= ""width:200px""alt=""img"">
                            </div>
                        </div>",0,"",0,"",NA,"","images/map23_RdGy_scaleRev_orientMir_090.png","happy",1,23,23,"RdGy","orientMir","scaleRev","090",NA,NA
"","","","","","html-slider-response",113,579931,"0.0-109.0","kntv4xvd14",6,NA,"<div style=""width:500px;"">
                            <p style=""font-size:50px; font-weight:bold;""
                            >happy</p>
                            <div style=""width:240px; margin: auto;"">
                                <img src=""images/map27_managua_scaleRev_orientMir_270.png"" style= ""width:200px""alt=""img"">
                            </div>
                        </div>",0,"",0,"",NA,"","images/map27_managua_scaleRev_orientMir_270.png","happy",1,27,27,"managua","orientMir","scaleRev","270",NA,NA
"","","","","","html-slider-response",114,583942,"0.0-110.0","kntv4xvd14",6,NA,"<div style=""width:500px;"">
                            <p style=""font-size:50px; font-weight:bold;""
                            >happy</p>
                            <div style=""width:240px; margin: auto;"">
                                <img src=""images/map05_inferno_scaleDef_orientDef_180.png"" style= ""width:200px""alt=""img"">
                            </div>
                        </div>",0,"",0,"",NA,"","images/map05_inferno_scaleDef_orientDef_180.png","happy",1,5,5,"inferno","orientDef","scaleDef","180",NA,NA
"","","","","","html-slider-response",115,588124,"0.0-111.0","kntv4xvd14",6,NA,"<div style=""width:500px;"">
                            <p style=""font-size:50px; font-weight:bold;""
                            >happy</p>
                            <div style=""width:240px; margin: auto;"">
                                <img src=""images/map27_berlin_scaleRev_orientMir_090.png"" style= ""width:200px""alt=""img"">
                            </div>
                        </div>",0,"",0,"",NA,"","images/map27_berlin_scaleRev_orientMir_090.png","happy",1,27,27,"berlin","orientMir","scaleRev","090",NA,NA
"","","","","","html-slider-response",116,590074,"0.0-112.0","kntv4xvd14",6,NA,"<div style=""width:500px;"">
                            <p style=""font-size:50px; font-weight:bold;""
                            >happy</p>
                            <div style=""width:240px; margin: auto;"">
                                <img src=""images/map13_PuBuGn_scaleRev_orientMir_270.png"" style= ""width:200px""alt=""img"">
                            </div>
                        </div>",0.76,"",0,"",NA,"","images/map13_PuBuGn_scaleRev_orientMir_270.png","happy",1,13,13,"PuBuGn","orientMir","scaleRev","270",NA,NA
"","","","","","html-slider-response",117,591858,"0.0-113.0","kntv4xvd14",6,NA,"<div style=""width:500px;"">
                            <p style=""font-size:50px; font-weight:bold;""
                            >happy</p>
                            <div style=""width:240px; margin: auto;"">
                                <img src=""images/map13_PuBu_scaleDef_orientDef_180.png"" style= ""width:200px""alt=""img"">
                            </div>
                        </div>",0.785,"",0,"",NA,"","images/map13_PuBu_scaleDef_orientDef_180.png","happy",1,13,13,"PuBu","orientDef","scaleDef","180",NA,NA
"","","","","","html-slider-response",118,593572,"0.0-114.0","kntv4xvd14",6,NA,"<div style=""width:500px;"">
                            <p style=""font-size:50px; font-weight:bold;""
                            >happy</p>
                            <div style=""width:240px; margin: auto;"">
                                <img src=""images/map05_inferno_scaleRev_orientDef_270.png"" style= ""width:200px""alt=""img"">
                            </div>
                        </div>",0,"",0,"",NA,"","images/map05_inferno_scaleRev_orientDef_270.png","happy",1,5,5,"inferno","orientDef","scaleRev","270",NA,NA
"","","","","","html-slider-response",119,597237,"0.0-115.0","kntv4xvd14",6,NA,"<div style=""width:500px;"">
                            <p style=""font-size:50px; font-weight:bold;""
                            >happy</p>
                            <div style=""width:240px; margin: auto;"">
                                <img src=""images/map23_RdBu_scaleRev_orientMir_270.png"" style= ""width:200px""alt=""img"">
                            </div>
                        </div>",0,"",0,"",NA,"","images/map23_RdBu_scaleRev_orientMir_270.png","happy",1,23,23,"RdBu","orientMir","scaleRev","270",NA,NA
"","","","","","html-slider-response",120,599084,"0.0-116.0","kntv4xvd14",6,NA,"<div style=""width:500px;"">
                            <p style=""font-size:50px; font-weight:bold;""
                            >happy</p>
                            <div style=""width:240px; margin: auto;"">
                                <img src=""images/map05_plasma_scaleRev_orientDef_090.png"" style= ""width:200px""alt=""img"">
                            </div>
                        </div>",0,"",0,"",NA,"","images/map05_plasma_scaleRev_orientDef_090.png","happy",1,5,5,"plasma","orientDef","scaleRev","090",NA,NA
"","","","","","html-slider-response",121,601998,"0.0-117.0","kntv4xvd14",6,NA,"<div style=""width:500px;"">
                            <p style=""font-size:50px; font-weight:bold;""
                            >happy</p>
                            <div style=""width:240px; margin: auto;"">
                                <img src=""images/map02_vanimo_scaleRev_orientDef_090.png"" style= ""width:200px""alt=""img"">
                            </div>
                        </div>",0,"",0,"",NA,"","images/map02_vanimo_scaleRev_orientDef_090.png","happy",1,2,2,"vanimo","orientDef","scaleRev","090",NA,NA
"","","","","","html-slider-response",122,603875,"0.0-118.0","kntv4xvd14",6,NA,"<div style=""width:500px;"">
                            <p style=""font-size:50px; font-weight:bold;""
                            >happy</p>
                            <div style=""width:240px; margin: auto;"">
                                <img src=""images/map07_Greens_scaleDef_orientMir_180.png"" style= ""width:200px""alt=""img"">
                            </div>
                        </div>",0.7725,"",0,"",NA,"","images/map07_Greens_scaleDef_orientMir_180.png","happy",1,7,7,"Greens","orientMir","scaleDef","180",NA,NA
"","","","","","html-slider-response",123,605653,"0.0-119.0","kntv4xvd14",6,NA,"<div style=""width:500px;"">
                            <p style=""font-size:50px; font-weight:bold;""
                            >happy</p>
                            <div style=""width:240px; margin: auto;"">
                                <img src=""images/map26_RdYlGn_scaleDef_orientDef_180.png"" style= ""width:200px""alt=""img"">
                            </div>
                        </div>",1,"",0,"",NA,"","images/map26_RdYlGn_scaleDef_orientDef_180.png","happy",1,26,26,"RdYlGn","orientDef","scaleDef","180",NA,NA
"","","","","","html-slider-response",124,607494,"0.0-120.0","kntv4xvd14",6,NA,"<div style=""width:500px;"">
                            <p style=""font-size:50px; font-weight:bold;""
                            >happy</p>
                            <div style=""width:240px; margin: auto;"">
                                <img src=""images/map10_YlOrRd_scaleRev_orientMir_270.png"" style= ""width:200px""alt=""img"">
                            </div>
                        </div>",1,"",0,"",NA,"","images/map10_YlOrRd_scaleRev_orientMir_270.png","happy",1,10,10,"YlOrRd","orientMir","scaleRev","270",NA,NA
"","","","","","html-slider-response",125,610021,"0.0-121.0","kntv4xvd14",6,NA,"<div style=""width:500px;"">
                            <p style=""font-size:50px; font-weight:bold;""
                            >happy</p>
                            <div style=""width:240px; margin: auto;"">
                                <img src=""images/map26_Spectral_scaleRev_orientMir_090.png"" style= ""width:200px""alt=""img"">
                            </div>
                        </div>",1,"",0,"",NA,"","images/map26_Spectral_scaleRev_orientMir_090.png","happy",1,26,26,"Spectral","orientMir","scaleRev","090",NA,NA
"","","","","","html-slider-response",126,612239,"0.0-122.0","kntv4xvd14",6,NA,"<div style=""width:500px;"">
                            <p style=""font-size:50px; font-weight:bold;""
                            >happy</p>
                            <div style=""width:240px; margin: auto;"">
                                <img src=""images/map26_RdYlBu_scaleRev_orientDef_090.png"" style= ""width:200px""alt=""img"">
                            </div>
                        </div>",1,"",0,"",NA,"","images/map26_RdYlBu_scaleRev_orientDef_090.png","happy",1,26,26,"RdYlBu","orientDef","scaleRev","090",NA,NA
"","","","","","html-slider-response",127,614477,"0.0-123.0","kntv4xvd14",6,NA,"<div style=""width:500px;"">
                            <p style=""font-size:50px; font-weight:bold;""
                            >happy</p>
                            <div style=""width:240px; margin: auto;"">
                                <img src=""images/map27_berlin_scaleDef_orientMir_000.png"" style= ""width:200px""alt=""img"">
                            </div>
                        </div>",0,"",0,"",NA,"","images/map27_berlin_scaleDef_orientMir_000.png","happy",1,27,27,"berlin","orientMir","scaleDef","000",NA,NA
"","","","","","html-slider-response",128,616190,"0.0-124.0","kntv4xvd14",6,NA,"<div style=""width:500px;"">
                            <p style=""font-size:50px; font-weight:bold;""
                            >happy</p>
                            <div style=""width:240px; margin: auto;"">
                                <img src=""images/map12_OrRd_scaleDef_orientDef_000.png"" style= ""width:200px""alt=""img"">
                            </div>
                        </div>",1,"",0,"",NA,"","images/map12_OrRd_scaleDef_orientDef_000.png","happy",1,12,12,"OrRd","orientDef","scaleDef","000",NA,NA
"","","","","","html-slider-response",129,617976,"0.0-125.0","kntv4xvd14",6,NA,"<div style=""width:500px;"">
                            <p style=""font-size:50px; font-weight:bold;""
                            >happy</p>
                            <div style=""width:240px; margin: auto;"">
                                <img src=""images/map15_BuGn_scaleDef_orientDef_000.png"" style= ""width:200px""alt=""img"">
                            </div>
                        </div>",1,"",0,"",NA,"","images/map15_BuGn_scaleDef_orientDef_000.png","happy",1,15,15,"BuGn","orientDef","scaleDef","000",NA,NA
"","","","","","html-slider-response",130,619657,"0.0-126.0","kntv4xvd14",6,NA,"<div style=""width:500px;"">
                            <p style=""font-size:50px; font-weight:bold;""
                            >happy</p>
                            <div style=""width:240px; margin: auto;"">
                                <img src=""images/map07_Purples_scaleRev_orientDef_270.png"" style= ""width:200px""alt=""img"">
                            </div>
                        </div>",1,"",0,"",NA,"","images/map07_Purples_scaleRev_orientDef_270.png","happy",1,7,7,"Purples","orientDef","scaleRev","270",NA,NA
"","","","","","html-slider-response",131,621337,"0.0-127.0","kntv4xvd14",6,NA,"<div style=""width:500px;"">
                            <p style=""font-size:50px; font-weight:bold;""
                            >happy</p>
                            <div style=""width:240px; margin: auto;"">
                                <img src=""images/map13_PuBuGn_scaleDef_orientMir_180.png"" style= ""width:200px""alt=""img"">
                            </div>
                        </div>",1,"",0,"",NA,"","images/map13_PuBuGn_scaleDef_orientMir_180.png","happy",1,13,13,"PuBuGn","orientMir","scaleDef","180",NA,NA
"","","","","","html-slider-response",132,622953,"0.0-128.0","kntv4xvd14",6,NA,"<div style=""width:500px;"">
                            <p style=""font-size:50px; font-weight:bold;""
                            >happy</p>
                            <div style=""width:240px; margin: auto;"">
                                <img src=""images/map13_YlGnBu_scaleDef_orientMir_000.png"" style= ""width:200px""alt=""img"">
                            </div>
                        </div>",1,"",0,"",NA,"","images/map13_YlGnBu_scaleDef_orientMir_000.png","happy",1,13,13,"YlGnBu","orientMir","scaleDef","000",NA,NA
"","","","","","html-slider-response",133,624513,"0.0-129.0","kntv4xvd14",6,NA,"<div style=""width:500px;"">
                            <p style=""font-size:50px; font-weight:bold;""
                            >happy</p>
                            <div style=""width:240px; margin: auto;"">
                                <img src=""images/map13_GnBu_scaleDef_orientDef_000.png"" style= ""width:200px""alt=""img"">
                            </div>
                        </div>",0.52,"",0,"",NA,"","images/map13_GnBu_scaleDef_orientDef_000.png","happy",1,13,13,"GnBu","orientDef","scaleDef","000",NA,NA
"","","","","","html-slider-response",134,628149,"0.0-130.0","kntv4xvd14",6,NA,"<div style=""width:500px;"">
                            <p style=""font-size:50px; font-weight:bold;""
                            >happy</p>
                            <div style=""width:240px; margin: auto;"">
                                <img src=""images/map05_plasma_scaleDef_orientDef_000.png"" style= ""width:200px""alt=""img"">
                            </div>
                        </div>",0.22,"",0,"",NA,"","images/map05_plasma_scaleDef_orientDef_000.png","happy",1,5,5,"plasma","orientDef","scaleDef","000",NA,NA
"","","","","","html-slider-response",135,630561,"0.0-131.0","kntv4xvd14",6,NA,"<div style=""width:500px;"">
                            <p style=""font-size:50px; font-weight:bold;""
                            >happy</p>
                            <div style=""width:240px; margin: auto;"">
                                <img src=""images/map02_gist_earth_scaleDef_orientDef_180.png"" style= ""width:200px""alt=""img"">
                            </div>
                        </div>",0.19,"",0,"",NA,"","images/map02_gist_earth_scaleDef_orientDef_180.png","happy",1,2,2,"gist","scaleDef","earth","orientDef",NA,NA
"","","","","","html-slider-response",136,632412,"0.0-132.0","kntv4xvd14",6,NA,"<div style=""width:500px;"">
                            <p style=""font-size:50px; font-weight:bold;""
                            >happy</p>
                            <div style=""width:240px; margin: auto;"">
                                <img src=""images/map07_Greys_scaleRev_orientDef_090.png"" style= ""width:200px""alt=""img"">
                            </div>
                        </div>",0,"",0,"",NA,"","images/map07_Greys_scaleRev_orientDef_090.png","happy",1,7,7,"Greys","orientDef","scaleRev","090",NA,NA
"","","","","","html-slider-response",137,635589,"0.0-133.0","kntv4xvd14",6,NA,"<div style=""width:500px;"">
                            <p style=""font-size:50px; font-weight:bold;""
                            >happy</p>
                            <div style=""width:240px; margin: auto;"">
                                <img src=""images/map12_OrRd_scaleRev_orientDef_090.png"" style= ""width:200px""alt=""img"">
                            </div>
                        </div>",0.7525,"",0,"",NA,"","images/map12_OrRd_scaleRev_orientDef_090.png","happy",1,12,12,"OrRd","orientDef","scaleRev","090",NA,NA
"","","","","","html-slider-response",138,637291,"0.0-134.0","kntv4xvd14",6,NA,"<div style=""width:500px;"">
                            <p style=""font-size:50px; font-weight:bold;""
                            >happy</p>
                            <div style=""width:240px; margin: auto;"">
                                <img src=""images/map12_RdPu_scaleRev_orientMir_090.png"" style= ""width:200px""alt=""img"">
                            </div>
                        </div>",1,"",0,"",NA,"","images/map12_RdPu_scaleRev_orientMir_090.png","happy",1,12,12,"RdPu","orientMir","scaleRev","090",NA,NA
"","","","","","html-slider-response",139,638980,"0.0-135.0","kntv4xvd14",6,NA,"<div style=""width:500px;"">
                            <p style=""font-size:50px; font-weight:bold;""
                            >happy</p>
                            <div style=""width:240px; margin: auto;"">
                                <img src=""images/map12_BuPu_scaleDef_orientMir_180.png"" style= ""width:200px""alt=""img"">
                            </div>
                        </div>",1,"",0,"",NA,"","images/map12_BuPu_scaleDef_orientMir_180.png","happy",1,12,12,"BuPu","orientMir","scaleDef","180",NA,NA
"","","","","","html-slider-response",140,640685,"0.0-136.0","kntv4xvd14",6,NA,"<div style=""width:500px;"">
                            <p style=""font-size:50px; font-weight:bold;""
                            >happy</p>
                            <div style=""width:240px; margin: auto;"">
                                <img src=""images/map13_YlGnBu_scaleRev_orientMir_090.png"" style= ""width:200px""alt=""img"">
                            </div>
                        </div>",1,"",0,"",NA,"","images/map13_YlGnBu_scaleRev_orientMir_090.png","happy",1,13,13,"YlGnBu","orientMir","scaleRev","090",NA,NA
"","","","","","html-button-response",141,645285,"0.0-137.0","kntv4xvd14",6,4099,"<p>You are doing great!<br></br> You are halway done with the current block. When you are ready to continue, click the 'Continue' button.</p>",0.5,"",NA,"",NA,"","","",NA,NA,NA,"","","","",NA,NA
"","","","","","html-slider-response",142,646650,"0.0-138.0","kntv4xvd14",6,NA,"<div style=""width:500px;"">
                            <p style=""font-size:50px; font-weight:bold;""
                            >happy</p>
                            <div style=""width:240px; margin: auto;"">
                                <img src=""images/map12_RdPu_scaleDef_orientMir_000.png"" style= ""width:200px""alt=""img"">
                            </div>
                        </div>",1,"",0,"",NA,"","images/map12_RdPu_scaleDef_orientMir_000.png","happy",1,12,12,"RdPu","orientMir","scaleDef","000",NA,NA
"","","","","","html-slider-response",143,648754,"0.0-139.0","kntv4xvd14",6,NA,"<div style=""width:500px;"">
                            <p style=""font-size:50px; font-weight:bold;""
                            >happy</p>
                            <div style=""width:240px; margin: auto;"">
                                <img src=""images/map15_BuGn_scaleRev_orientDef_090.png"" style= ""width:200px""alt=""img"">
                            </div>
                        </div>",0.7475,"",0,"",NA,"","images/map15_BuGn_scaleRev_orientDef_090.png","happy",1,15,15,"BuGn","orientDef","scaleRev","090",NA,NA
"","","","","","html-slider-response",144,650701,"0.0-140.0","kntv4xvd14",6,NA,"<div style=""width:500px;"">
                            <p style=""font-size:50px; font-weight:bold;""
                            >happy</p>
                            <div style=""width:240px; margin: auto;"">
                                <img src=""images/map26_Spectral_scaleDef_orientMir_000.png"" style= ""width:200px""alt=""img"">
                            </div>
                        </div>",1,"",0,"",NA,"","images/map26_Spectral_scaleDef_orientMir_000.png","happy",1,26,26,"Spectral","orientMir","scaleDef","000",NA,NA
"","","","","","html-slider-response",145,652731,"0.0-141.0","kntv4xvd14",6,NA,"<div style=""width:500px;"">
                            <p style=""font-size:50px; font-weight:bold;""
                            >happy</p>
                            <div style=""width:240px; margin: auto;"">
                                <img src=""images/map12_PuRd_scaleDef_orientDef_180.png"" style= ""width:200px""alt=""img"">
                            </div>
                        </div>",1,"",0,"",NA,"","images/map12_PuRd_scaleDef_orientDef_180.png","happy",1,12,12,"PuRd","orientDef","scaleDef","180",NA,NA
"","","","","","html-slider-response",146,655484,"0.0-142.0","kntv4xvd14",6,NA,"<div style=""width:500px;"">
                            <p style=""font-size:50px; font-weight:bold;""
                            >happy</p>
                            <div style=""width:240px; margin: auto;"">
                                <img src=""images/map10_Oranges_scaleRev_orientDef_090.png"" style= ""width:200px""alt=""img"">
                            </div>
                        </div>",0.775,"",0,"",NA,"","images/map10_Oranges_scaleRev_orientDef_090.png","happy",1,10,10,"Oranges","orientDef","scaleRev","090",NA,NA
"","","","","","html-slider-response",147,657155,"0.0-143.0","kntv4xvd14",6,NA,"<div style=""width:500px;"">
                            <p style=""font-size:50px; font-weight:bold;""
                            >happy</p>
                            <div style=""width:240px; margin: auto;"">
                                <img src=""images/map23_RdGy_scaleDef_orientMir_000.png"" style= ""width:200px""alt=""img"">
                            </div>
                        </div>",0,"",0,"",NA,"","images/map23_RdGy_scaleDef_orientMir_000.png","happy",1,23,23,"RdGy","orientMir","scaleDef","000",NA,NA
"","","","","","html-slider-response",148,659258,"0.0-144.0","kntv4xvd14",6,NA,"<div style=""width:500px;"">
                            <p style=""font-size:50px; font-weight:bold;""
                            >happy</p>
                            <div style=""width:240px; margin: auto;"">
                                <img src=""images/map07_Greys_scaleDef_orientDef_000.png"" style= ""width:200px""alt=""img"">
                            </div>
                        </div>",0.0075,"",0,"",NA,"","images/map07_Greys_scaleDef_orientDef_000.png","happy",1,7,7,"Greys","orientDef","scaleDef","000",NA,NA
"","","","","","html-slider-response",149,668019,"0.0-145.0","kntv4xvd14",6,NA,"<div style=""width:500px;"">
                            <p style=""font-size:50px; font-weight:bold;""
                            >happy</p>
                            <div style=""width:240px; margin: auto;"">
                                <img src=""images/map27_bwr_scaleRev_orientDef_090.png"" style= ""width:200px""alt=""img"">
                            </div>
                        </div>",0.745,"",0,"",NA,"","images/map27_bwr_scaleRev_orientDef_090.png","happy",1,27,27,"bwr","orientDef","scaleRev","090",NA,NA
"","","","","","html-slider-response",150,679872,"0.0-146.0","kntv4xvd14",6,NA,"<div style=""width:500px;"">
                            <p style=""font-size:50px; font-weight:bold;""
                            >happy</p>
                            <div style=""width:240px; margin: auto;"">
                                <img src=""images/map05_cividis_scaleRev_orientMir_270.png"" style= ""width:200px""alt=""img"">
                            </div>
                        </div>",0,"",0,"",NA,"","images/map05_cividis_scaleRev_orientMir_270.png","happy",1,5,5,"cividis","orientMir","scaleRev","270",NA,NA
"","","","","","html-slider-response",151,682096,"0.0-147.0","kntv4xvd14",6,NA,"<div style=""width:500px;"">
                            <p style=""font-size:50px; font-weight:bold;""
                            >happy</p>
                            <div style=""width:240px; margin: auto;"">
                                <img src=""images/map15_YlGn_scaleRev_orientDef_270.png"" style= ""width:200px""alt=""img"">
                            </div>
                        </div>",0.755,"",0,"",NA,"","images/map15_YlGn_scaleRev_orientDef_270.png","happy",1,15,15,"YlGn","orientDef","scaleRev","270",NA,NA
"","","","","","html-slider-response",152,684182,"0.0-148.0","kntv4xvd14",6,NA,"<div style=""width:500px;"">
                            <p style=""font-size:50px; font-weight:bold;""
                            >happy</p>
                            <div style=""width:240px; margin: auto;"">
                                <img src=""images/map26_coolwarm_scaleRev_orientMir_270.png"" style= ""width:200px""alt=""img"">
                            </div>
                        </div>",0.76,"",0,"",NA,"","images/map26_coolwarm_scaleRev_orientMir_270.png","happy",1,26,26,"coolwarm","orientMir","scaleRev","270",NA,NA
"","","","","","html-slider-response",153,686277,"0.0-149.0","kntv4xvd14",6,NA,"<div style=""width:500px;"">
                            <p style=""font-size:50px; font-weight:bold;""
                            >happy</p>
                            <div style=""width:240px; margin: auto;"">
                                <img src=""images/map10_Reds_scaleDef_orientDef_180.png"" style= ""width:200px""alt=""img"">
                            </div>
                        </div>",0.225,"",0,"",NA,"","images/map10_Reds_scaleDef_orientDef_180.png","happy",1,10,10,"Reds","orientDef","scaleDef","180",NA,NA
"","","","","","html-slider-response",154,688136,"0.0-150.0","kntv4xvd14",6,NA,"<div style=""width:500px;"">
                            <p style=""font-size:50px; font-weight:bold;""
                            >happy</p>
                            <div style=""width:240px; margin: auto;"">
                                <img src=""images/map23_PuOr_scaleDef_orientDef_180.png"" style= ""width:200px""alt=""img"">
                            </div>
                        </div>",0.2175,"",0,"",NA,"","images/map23_PuOr_scaleDef_orientDef_180.png","happy",1,23,23,"PuOr","orientDef","scaleDef","180",NA,NA
"","","","","","html-slider-response",155,713322,"0.0-151.0","kntv4xvd14",6,NA,"<div style=""width:500px;"">
                            <p style=""font-size:50px; font-weight:bold;""
                            >happy</p>
                            <div style=""width:240px; margin: auto;"">
                                <img src=""images/map10_Reds_scaleRev_orientDef_270.png"" style= ""width:200px""alt=""img"">
                            </div>
                        </div>",0,"",0,"",NA,"","images/map10_Reds_scaleRev_orientDef_270.png","happy",1,10,10,"Reds","orientDef","scaleRev","270",NA,NA
"","","","","","html-slider-response",156,715349,"0.0-152.0","kntv4xvd14",6,NA,"<div style=""width:500px;"">
                            <p style=""font-size:50px; font-weight:bold;""
                            >happy</p>
                            <div style=""width:240px; margin: auto;"">
                                <img src=""images/map13_PuBu_scaleRev_orientDef_270.png"" style= ""width:200px""alt=""img"">
                            </div>
                        </div>",0.7675,"",0,"",NA,"","images/map13_PuBu_scaleRev_orientDef_270.png","happy",1,13,13,"PuBu","orientDef","scaleRev","270",NA,NA
"","","","","","html-slider-response",157,718224,"0.0-153.0","kntv4xvd14",6,NA,"<div style=""width:500px;"">
                            <p style=""font-size:50px; font-weight:bold;""
                            >happy</p>
                            <div style=""width:240px; margin: auto;"">
                                <img src=""images/map05_magma_scaleDef_orientMir_000.png"" style= ""width:200px""alt=""img"">
                            </div>
                        </div>",0.005,"",0,"",NA,"","images/map05_magma_scaleDef_orientMir_000.png","happy",1,5,5,"magma","orientMir","scaleDef","000",NA,NA
"","","","","","html-slider-response",158,723055,"0.0-154.0","kntv4xvd14",6,NA,"<div style=""width:500px;"">
                            <p style=""font-size:50px; font-weight:bold;""
                            >happy</p>
                            <div style=""width:240px; margin: auto;"">
                                <img src=""images/map15_PRGn_scaleDef_orientMir_180.png"" style= ""width:200px""alt=""img"">
                            </div>
                        </div>",0,"",0,"",NA,"","images/map15_PRGn_scaleDef_orientMir_180.png","happy",1,15,15,"PRGn","orientMir","scaleDef","180",NA,NA
"","","","","","html-slider-response",159,724806,"0.0-155.0","kntv4xvd14",6,NA,"<div style=""width:500px;"">
                            <p style=""font-size:50px; font-weight:bold;""
                            >happy</p>
                            <div style=""width:240px; margin: auto;"">
                                <img src=""images/map07_Blues_scaleDef_orientMir_000.png"" style= ""width:200px""alt=""img"">
                            </div>
                        </div>",0.775,"",0,"",NA,"","images/map07_Blues_scaleDef_orientMir_000.png","happy",1,7,7,"Blues","orientMir","scaleDef","000",NA,NA
"","","","","","html-slider-response",160,726611,"0.0-156.0","kntv4xvd14",6,NA,"<div style=""width:500px;"">
                            <p style=""font-size:50px; font-weight:bold;""
                            >happy</p>
                            <div style=""width:240px; margin: auto;"">
                                <img src=""images/map02_viridis_scaleRev_orientMir_270.png"" style= ""width:200px""alt=""img"">
                            </div>
                        </div>",0.7875,"",0,"",NA,"","images/map02_viridis_scaleRev_orientMir_270.png","happy",1,2,2,"viridis","orientMir","scaleRev","270",NA,NA
"","","","","","html-slider-response",161,728338,"0.0-157.0","kntv4xvd14",6,NA,"<div style=""width:500px;"">
                            <p style=""font-size:50px; font-weight:bold;""
                            >happy</p>
                            <div style=""width:240px; margin: auto;"">
                                <img src=""images/map02_turbo_scaleDef_orientMir_000.png"" style= ""width:200px""alt=""img"">
                            </div>
                        </div>",1,"",0,"",NA,"","images/map02_turbo_scaleDef_orientMir_000.png","happy",1,2,2,"turbo","orientMir","scaleDef","000",NA,NA
"","","","","","html-slider-response",162,730343,"0.0-158.0","kntv4xvd14",6,NA,"<div style=""width:500px;"">
                            <p style=""font-size:50px; font-weight:bold;""
                            >happy</p>
                            <div style=""width:240px; margin: auto;"">
                                <img src=""images/map05_magma_scaleRev_orientMir_090.png"" style= ""width:200px""alt=""img"">
                            </div>
                        </div>",0,"",0,"",NA,"","images/map05_magma_scaleRev_orientMir_090.png","happy",1,5,5,"magma","orientMir","scaleRev","090",NA,NA
