"success","timeout","failed_images","failed_audio","failed_video","trial_type","trial_index","time_elapsed","internal_node_id","subject_id","condition_num","rt","stimulus","response","question_order","slider_start","practiceTrial","practiceTrialNum","correct","image_path","concept","repetition","map_id","map_num","scale_name","orientation_code","mapping_code","rotation_code","ishihara_plate","correct_response"
"true","false","[]","[]","[]","preload",0,995,"0.0-0.0","wyjyvhtdnj",17,NA,"",NA,"",NA,"",NA,"","","",NA,NA,NA,"","","","",NA,NA
"","","","","","html-button-response",1,11330,"0.0-1.0","wyjyvhtdnj",17,10333,"Welcome to our experiment!<p>At the bottom of this screen, you will see a button that says ""Begin Experiment"".<br>Please only click that button when you are ready to complete the 30 minute experiment in one sitting.</p><p> Once you click that button, it will not be possible to restart the experiment.",0.5,"",NA,"",NA,"","","",NA,NA,NA,"","","","",NA,NA
"true","","","","","fullscreen",2,15514,"0.0-2.0","wyjyvhtdnj",17,3181,"",NA,"",NA,"",NA,"","","",NA,NA,NA,"","","","",NA,NA
"","","","","","survey-multi-select",3,57230,"0.0-3.0","wyjyvhtdnj",17,41712,"",NA,"[0]",NA,"",NA,"","","",NA,NA,NA,"","","","",NA,NA
"","","","","","html-button-response",4,59696,"0.0-4.0","wyjyvhtdnj",17,2464,"Welcome! <p> This experiment involves two parts: demographic information, followed by the experimental task.<p> It will take about 30 minutes to complete both parts.",0.5,"",NA,"",NA,"","","",NA,NA,NA,"","","","",NA,NA
"","","","","","survey-text",5,67515,"0.0-5.0","wyjyvhtdnj",17,7813,"",NA,"",NA,"",NA,"","","",NA,NA,NA,"","","","",NA,NA
"","","","","","html-slider-response",6,84629,"0.0-6.0","wyjyvhtdnj",17,17112,"<div style='text-align:left; font-size:20px; line-height:25px; width: 1000px;'>
                                During this experiment you will be asked to rate how much you associate maps with                    different concepts.<br> Below, you can see some examples of the maps you will be asked to rate. Above the maps
                    is the list of concepts.<br>You will be asked                    to rate how much you associate each map with each concept on a scale from 'not at all' to 'very much' like the
                    one below. <br><br>
                    Now, please look at the list of concepts and maps. For each concept, think about the map you associate 'very
                    much' with the concept.<br>                     When you see that map during the experiment, please rate it near the 'very much' endpoint of the
                    scale.<br>Now, please think about which map you associate 'not at all'                     with each concept. When you see that map during the experiment, please rate it near the 'not at all' endpoint
                    of the scale.<br>
                    Please use the full range of the scale. That is, if a map is somewhat associated with the concept, you would
                    click partway between the middle point and right side of the scale.                    You will be asked to rate each map for a given concept before moving on to the next concept.<br>Press the
                    'Continue' button for instructions on how to use the slider.                    <br>
                </div>

                <div style=""width: 500px; margin: 0 auto;"">
                    <!-- Centered text paragraphs -->
                    <div style=""text-align: center; width: 500px;"">
                        <p style=""font-size:25px; line-height:15px;"">
                            disgust&nbsp;&nbsp;&nbsp;&nbsp;
                            sad&nbsp;&nbsp;&nbsp;&nbsp;
                            angry&nbsp;&nbsp;&nbsp;&nbsp;
                            fearful&nbsp;&nbsp;&nbsp;&nbsp;
                            happy
                        </p>
                        <!-- <p style=""font-size:20px; line-height:15px;"">sad</p>
                        <p style=""font-size:20px;line-height:15px;"">angry</p>
                        <p style=""font-size:20px;line-height:15px;"">fearful</p>
                        <p style=""font-size:20px;line-height:15px;"">happy</p> -->
                    </div>
            

                    <!-- Grid section -->
                   <div style=""display: flex; justify-content: center; padding-top: 15px;"">
                    <div style=""display: grid; grid-template-columns: repeat(10, 55px); grid-gap: 5px; width: auto;"">
                        <img src=""images/map12_Greens_scaleRev_orientDef_180.png"" alt=""map"" style=""width: 100%;""><img src=""images/map15_BuPu_scaleDef_orientDef_090.png"" alt=""map"" style=""width: 100%;""><img src=""images/map23_BuGn_scaleRev_orientMir_000.png"" alt=""map"" style=""width: 100%;""><img src=""images/map26_BrBG_scaleDef_orientDef_270.png"" alt=""map"" style=""width: 100%;""><img src=""images/map07_magma_scaleDef_orientMir_270.png"" alt=""map"" style=""width: 100%;""><img src=""images/map07_inferno_scaleDef_orientMir_090.png"" alt=""map"" style=""width: 100%;""><img src=""images/map15_PuBu_scaleDef_orientMir_090.png"" alt=""map"" style=""width: 100%;""><img src=""images/map26_PiYG_scaleRev_orientDef_000.png"" alt=""map"" style=""width: 100%;""><img src=""images/map15_GnBu_scaleDef_orientDef_270.png"" alt=""map"" style=""width: 100%;""><img src=""images/map02_coolwarm_scaleDef_orientDef_090.png"" alt=""map"" style=""width: 100%;""><img src=""images/map23_PuBuGn_scaleRev_orientDef_180.png"" alt=""map"" style=""width: 100%;""><img src=""images/map07_plasma_scaleRev_orientMir_000.png"" alt=""map"" style=""width: 100%;""><img src=""images/map02_seismic_scaleRev_orientMir_180.png"" alt=""map"" style=""width: 100%;""><img src=""images/map12_Blues_scaleRev_orientDef_000.png"" alt=""map"" style=""width: 100%;""><img src=""images/map10_cividis_scaleRev_orientDef_180.png"" alt=""map"" style=""width: 100%;""><img src=""images/map12_YlOrBr_scaleDef_orientMir_270.png"" alt=""map"" style=""width: 100%;""><img src=""images/map10_Greys_scaleDef_orientDef_270.png"" alt=""map"" style=""width: 100%;""><img src=""images/map13_OrRd_scaleRev_orientMir_000.png"" alt=""map"" style=""width: 100%;""><img src=""images/map02_Spectral_scaleRev_orientDef_000.png"" alt=""map"" style=""width: 100%;""><img src=""images/map05_managua_scaleDef_orientDef_090.png"" alt=""map"" style=""width: 100%;""><img src=""images/map26_PuOr_scaleRev_orientMir_180.png"" alt=""map"" style=""width: 100%;""><img src=""images/map27_RdBu_scaleDef_orientDef_090.png"" alt=""map"" style=""width: 100%;""><img src=""images/map02_bwr_scaleRev_orientMir_000.png"" alt=""map"" style=""width: 100%;""><img src=""images/map13_YlOrRd_scaleDef_orientDef_090.png"" alt=""map"" style=""width: 100%;""><img src=""images/map27_RdYlGn_scaleRev_orientMir_180.png"" alt=""map"" style=""width: 100%;""><img src=""images/map12_Reds_scaleDef_orientMir_090.png"" alt=""map"" style=""width: 100%;""><img src=""images/map13_PuRd_scaleDef_orientMir_090.png"" alt=""map"" style=""width: 100%;""><img src=""images/map13_RdPu_scaleDef_orientMir_270.png"" alt=""map"" style=""width: 100%;""><img src=""images/map05_turbo_scaleDef_orientMir_270.png"" alt=""map"" style=""width: 100%;""><img src=""images/map10_Purples_scaleDef_orientMir_090.png"" alt=""map"" style=""width: 100%;""><img src=""images/map07_viridis_scaleRev_orientDef_180.png"" alt=""map"" style=""width: 100%;""><img src=""images/map12_Oranges_scaleRev_orientMir_000.png"" alt=""map"" style=""width: 100%;""><img src=""images/map05_vanimo_scaleRev_orientMir_000.png"" alt=""map"" style=""width: 100%;""><img src=""images/map26_PRGn_scaleDef_orientDef_090.png"" alt=""map"" style=""width: 100%;""><img src=""images/map05_gist_earth_scaleDef_orientMir_090.png"" alt=""map"" style=""width: 100%;""><img src=""images/map23_YlGn_scaleRev_orientMir_180.png"" alt=""map"" style=""width: 100%;""><img src=""images/map26_RdGy_scaleDef_orientMir_270.png"" alt=""map"" style=""width: 100%;""><img src=""images/map05_berlin_scaleRev_orientDef_000.png"" alt=""map"" style=""width: 100%;""><img src=""images/map23_YlGnBu_scaleRev_orientDef_000.png"" alt=""map"" style=""width: 100%;""><img src=""images/map27_RdYlBu_scaleRev_orientMir_000.png"" alt=""map"" style=""width: 100%;"">
                    </div>
                </div>

                    <!-- Clear floats -->
                    <div style=""clear: both;""></div>
                </div>
                            ",NA,"",0,"true",NA,"","","",NA,NA,NA,"","","","",NA,NA
"","","","","","html-button-response",7,88212,"0.0-7.0","wyjyvhtdnj",17,3582,"<div style=""width:800px;""><p style=""text-align:left"">To move the slider, click and drag your cursor to the location of the scale where you would like to make your rating and then let go. When you let go of the slider, your response will be recorded and the next trial will begin. <br>
                    We are interested in your initial impressions of each map for the given concept, so please go with your first intuition. <br>
                    Before you begin the experiment, there will be four training trials for you to practice using the scale. <br>
                     When you are ready to start the training trials, please click ""Continue"".</p><br></div>",0.5,"",NA,"",NA,"","","",NA,NA,NA,"","","","",NA,NA
"","","","","","html-slider-response",8,91340,"0.0-8.0-0.0","wyjyvhtdnj",17,NA,"<div style=""width:500px;"">
                                    <p style=""font-size:25px;"">Please move the slider all the way to the <br> right endpoint of the scale</p>

                                    </div>
                                </div>",1,"",0,"true",0,"true","","",NA,NA,NA,"","","","",NA,NA
"","","","","","html-button-response",9,92646,"0.0-8.0-1.0","wyjyvhtdnj",17,802,"<p align='center'><b>Good job!</b> Click on 'Continue' to proceed.</p>",0.5,"",NA,"",NA,"","","",NA,NA,NA,"","","","",NA,NA
"","","","","","html-slider-response",10,94290,"0.0-9.0-0.0","wyjyvhtdnj",17,NA,"<div style=""width:500px;"">
                                    <p style=""font-size:25px;"">Please move the slider all the way to the <br> left endpoint of the scale</p>

                                    </div>
                                </div>",0,"",0,"true",1,"true","","",NA,NA,NA,"","","","",NA,NA
"","","","","","html-button-response",11,95612,"0.0-9.0-1.0","wyjyvhtdnj",17,819,"<p align='center'><b>Good job!</b> Click on 'Continue' to proceed.</p>",0.5,"",NA,"",NA,"","","",NA,NA,NA,"","","","",NA,NA
"","","","","","html-slider-response",12,99277,"0.0-10.0-0.0","wyjyvhtdnj",17,NA,"<div style=""width:500px;"">
                                    <p style=""font-size:25px;"">Please move the slider halfway between the center and right endpoint of the scale</p>

                                    </div>
                                </div>",0.76,"",0,"true",2,"true","","",NA,NA,NA,"","","","",NA,NA
"","","","","","html-button-response",13,100529,"0.0-10.0-1.0","wyjyvhtdnj",17,750,"<p align='center'><b>Good job!</b> Click on 'Continue' to proceed.</p>",0.5,"",NA,"",NA,"","","",NA,NA,NA,"","","","",NA,NA
"","","","","","html-slider-response",14,103207,"0.0-11.0-0.0","wyjyvhtdnj",17,NA,"<div style=""width:500px;"">
                                    <p style=""font-size:25px;"">Please move the slider halfway between the center and left endpoint of the scale</p>

                                    </div>
                                </div>",0.235,"",0,"true",3,"true","","",NA,NA,NA,"","","","",NA,NA
"","","","","","html-button-response",15,104629,"0.0-11.0-1.0","wyjyvhtdnj",17,920,"<p align='center'><b>Good job!</b> Click on 'Continue' to proceed.</p>",0.5,"",NA,"",NA,"","","",NA,NA,NA,"","","","",NA,NA
"","","","","","html-button-response",16,105829,"0.0-12.0","wyjyvhtdnj",17,1199,"<p>Great job! You've completed the practice trials. Now you will begin the main task.</p>",0.5,"",NA,"",NA,"","","",NA,NA,NA,"","","","",NA,NA
"","","","","","html-button-response",17,108812,"0.0-13.0","wyjyvhtdnj",17,2982,"<p>In this block of trials, you will be asked to rate how much you associate each map with:</p > <p style = 'font-size:150%; font-weight: bold'>disgust</p><br></br>",0.5,"",NA,"",NA,"","","",NA,NA,NA,"","","","",NA,NA
"","","","","","html-slider-response",18,112274,"0.0-14.0","wyjyvhtdnj",17,NA,"<div style=""width:500px;"">
                            <p style=""font-size:50px; font-weight:bold;""
                            >disgust</p>
                            <div style=""width:240px; margin: auto;"">
                                <img src=""images/map27_RdYlBu_scaleRev_orientMir_000.png"" style= ""width:200px""alt=""img"">
                            </div>
                        </div>",0.4125,"",0,"",NA,"","images/map27_RdYlBu_scaleRev_orientMir_000.png","disgust",1,27,27,"RdYlBu","orientMir","scaleRev","000",NA,NA
"","","","","","html-slider-response",19,114657,"0.0-15.0","wyjyvhtdnj",17,NA,"<div style=""width:500px;"">
                            <p style=""font-size:50px; font-weight:bold;""
                            >disgust</p>
                            <div style=""width:240px; margin: auto;"">
                                <img src=""images/map26_PuOr_scaleRev_orientMir_180.png"" style= ""width:200px""alt=""img"">
                            </div>
                        </div>",0.175,"",0,"",NA,"","images/map26_PuOr_scaleRev_orientMir_180.png","disgust",1,26,26,"PuOr","orientMir","scaleRev","180",NA,NA
"","","","","","html-slider-response",20,116890,"0.0-16.0","wyjyvhtdnj",17,NA,"<div style=""width:500px;"">
                            <p style=""font-size:50px; font-weight:bold;""
                            >disgust</p>
                            <div style=""width:240px; margin: auto;"">
                                <img src=""images/map07_viridis_scaleRev_orientDef_180.png"" style= ""width:200px""alt=""img"">
                            </div>
                        </div>",0,"",0,"",NA,"","images/map07_viridis_scaleRev_orientDef_180.png","disgust",1,7,7,"viridis","orientDef","scaleRev","180",NA,NA
"","","","","","html-slider-response",21,118925,"0.0-17.0","wyjyvhtdnj",17,NA,"<div style=""width:500px;"">
                            <p style=""font-size:50px; font-weight:bold;""
                            >disgust</p>
                            <div style=""width:240px; margin: auto;"">
                                <img src=""images/map10_Purples_scaleDef_orientMir_090.png"" style= ""width:200px""alt=""img"">
                            </div>
                        </div>",0,"",0,"",NA,"","images/map10_Purples_scaleDef_orientMir_090.png","disgust",1,10,10,"Purples","orientMir","scaleDef","090",NA,NA
"","","","","","html-slider-response",22,120824,"0.0-18.0","wyjyvhtdnj",17,NA,"<div style=""width:500px;"">
                            <p style=""font-size:50px; font-weight:bold;""
                            >disgust</p>
                            <div style=""width:240px; margin: auto;"">
                                <img src=""images/map26_RdGy_scaleDef_orientMir_270.png"" style= ""width:200px""alt=""img"">
                            </div>
                        </div>",0.805,"",0,"",NA,"","images/map26_RdGy_scaleDef_orientMir_270.png","disgust",1,26,26,"RdGy","orientMir","scaleDef","270",NA,NA
"","","","","","html-slider-response",23,122357,"0.0-19.0","wyjyvhtdnj",17,NA,"<div style=""width:500px;"">
                            <p style=""font-size:50px; font-weight:bold;""
                            >disgust</p>
                            <div style=""width:240px; margin: auto;"">
                                <img src=""images/map10_Blues_scaleDef_orientMir_270.png"" style= ""width:200px""alt=""img"">
                            </div>
                        </div>",0.01,"",0,"",NA,"","images/map10_Blues_scaleDef_orientMir_270.png","disgust",1,10,10,"Blues","orientMir","scaleDef","270",NA,NA
"","","","","","html-slider-response",24,124173,"0.0-20.0","wyjyvhtdnj",17,NA,"<div style=""width:500px;"">
                            <p style=""font-size:50px; font-weight:bold;""
                            >disgust</p>
                            <div style=""width:240px; margin: auto;"">
                                <img src=""images/map15_PuBu_scaleDef_orientMir_090.png"" style= ""width:200px""alt=""img"">
                            </div>
                        </div>",0,"",0,"",NA,"","images/map15_PuBu_scaleDef_orientMir_090.png","disgust",1,15,15,"PuBu","orientMir","scaleDef","090",NA,NA
"","","","","","html-slider-response",25,126223,"0.0-21.0","wyjyvhtdnj",17,NA,"<div style=""width:500px;"">
                            <p style=""font-size:50px; font-weight:bold;""
                            >disgust</p>
                            <div style=""width:240px; margin: auto;"">
                                <img src=""images/map07_magma_scaleDef_orientMir_270.png"" style= ""width:200px""alt=""img"">
                            </div>
                        </div>",0.42,"",0,"",NA,"","images/map07_magma_scaleDef_orientMir_270.png","disgust",1,7,7,"magma","orientMir","scaleDef","270",NA,NA
"","","","","","html-slider-response",26,129192,"0.0-22.0","wyjyvhtdnj",17,NA,"<div style=""width:500px;"">
                            <p style=""font-size:50px; font-weight:bold;""
                            >disgust</p>
                            <div style=""width:240px; margin: auto;"">
                                <img src=""images/map12_Reds_scaleDef_orientMir_090.png"" style= ""width:200px""alt=""img"">
                            </div>
                        </div>",0.8675,"",0,"",NA,"","images/map12_Reds_scaleDef_orientMir_090.png","disgust",1,12,12,"Reds","orientMir","scaleDef","090",NA,NA
"","","","","","html-slider-response",27,130623,"0.0-23.0","wyjyvhtdnj",17,NA,"<div style=""width:500px;"">
                            <p style=""font-size:50px; font-weight:bold;""
                            >disgust</p>
                            <div style=""width:240px; margin: auto;"">
                                <img src=""images/map10_cividis_scaleRev_orientDef_180.png"" style= ""width:200px""alt=""img"">
                            </div>
                        </div>",0,"",0,"",NA,"","images/map10_cividis_scaleRev_orientDef_180.png","disgust",1,10,10,"cividis","orientDef","scaleRev","180",NA,NA
"","","","","","html-slider-response",28,132391,"0.0-24.0","wyjyvhtdnj",17,NA,"<div style=""width:500px;"">
                            <p style=""font-size:50px; font-weight:bold;""
                            >disgust</p>
                            <div style=""width:240px; margin: auto;"">
                                <img src=""images/map10_cividis_scaleDef_orientDef_090.png"" style= ""width:200px""alt=""img"">
                            </div>
                        </div>",0,"",0,"",NA,"","images/map10_cividis_scaleDef_orientDef_090.png","disgust",1,10,10,"cividis","orientDef","scaleDef","090",NA,NA
"","","","","","html-slider-response",29,134490,"0.0-25.0","wyjyvhtdnj",17,NA,"<div style=""width:500px;"">
                            <p style=""font-size:50px; font-weight:bold;""
                            >disgust</p>
                            <div style=""width:240px; margin: auto;"">
                                <img src=""images/map23_PuBuGn_scaleDef_orientDef_090.png"" style= ""width:200px""alt=""img"">
                            </div>
                        </div>",0,"",0,"",NA,"","images/map23_PuBuGn_scaleDef_orientDef_090.png","disgust",1,23,23,"PuBuGn","orientDef","scaleDef","090",NA,NA
"","","","","","html-slider-response",30,136323,"0.0-26.0","wyjyvhtdnj",17,NA,"<div style=""width:500px;"">
                            <p style=""font-size:50px; font-weight:bold;""
                            >disgust</p>
                            <div style=""width:240px; margin: auto;"">
                                <img src=""images/map23_BuGn_scaleDef_orientDef_270.png"" style= ""width:200px""alt=""img"">
                            </div>
                        </div>",0.1775,"",0,"",NA,"","images/map23_BuGn_scaleDef_orientDef_270.png","disgust",1,23,23,"BuGn","orientDef","scaleDef","270",NA,NA
"","","","","","html-slider-response",31,140240,"0.0-27.0","wyjyvhtdnj",17,NA,"<div style=""width:500px;"">
                            <p style=""font-size:50px; font-weight:bold;""
                            >disgust</p>
                            <div style=""width:240px; margin: auto;"">
                                <img src=""images/map07_plasma_scaleDef_orientDef_270.png"" style= ""width:200px""alt=""img"">
                            </div>
                        </div>",0.095,"",0,"",NA,"","images/map07_plasma_scaleDef_orientDef_270.png","disgust",1,7,7,"plasma","orientDef","scaleDef","270",NA,NA
"","","","","","html-slider-response",32,142107,"0.0-28.0","wyjyvhtdnj",17,NA,"<div style=""width:500px;"">
                            <p style=""font-size:50px; font-weight:bold;""
                            >disgust</p>
                            <div style=""width:240px; margin: auto;"">
                                <img src=""images/map02_coolwarm_scaleRev_orientDef_180.png"" style= ""width:200px""alt=""img"">
                            </div>
                        </div>",0.7975,"",0,"",NA,"","images/map02_coolwarm_scaleRev_orientDef_180.png","disgust",1,2,2,"coolwarm","orientDef","scaleRev","180",NA,NA
"","","","","","html-slider-response",33,144173,"0.0-29.0","wyjyvhtdnj",17,NA,"<div style=""width:500px;"">
                            <p style=""font-size:50px; font-weight:bold;""
                            >disgust</p>
                            <div style=""width:240px; margin: auto;"">
                                <img src=""images/map15_GnBu_scaleDef_orientDef_270.png"" style= ""width:200px""alt=""img"">
                            </div>
                        </div>",0.0025,"",0,"",NA,"","images/map15_GnBu_scaleDef_orientDef_270.png","disgust",1,15,15,"GnBu","orientDef","scaleDef","270",NA,NA
"","","","","","html-slider-response",34,145806,"0.0-30.0","wyjyvhtdnj",17,NA,"<div style=""width:500px;"">
                            <p style=""font-size:50px; font-weight:bold;""
                            >disgust</p>
                            <div style=""width:240px; margin: auto;"">
                                <img src=""images/map02_berlin_scaleDef_orientMir_270.png"" style= ""width:200px""alt=""img"">
                            </div>
                        </div>",0.23,"",0,"",NA,"","images/map02_berlin_scaleDef_orientMir_270.png","disgust",1,2,2,"berlin","orientMir","scaleDef","270",NA,NA
"","","","","","html-slider-response",35,147739,"0.0-31.0","wyjyvhtdnj",17,NA,"<div style=""width:500px;"">
                            <p style=""font-size:50px; font-weight:bold;""
                            >disgust</p>
                            <div style=""width:240px; margin: auto;"">
                                <img src=""images/map23_YlGn_scaleRev_orientMir_180.png"" style= ""width:200px""alt=""img"">
                            </div>
                        </div>",0,"",0,"",NA,"","images/map23_YlGn_scaleRev_orientMir_180.png","disgust",1,23,23,"YlGn","orientMir","scaleRev","180",NA,NA
"","","","","","html-slider-response",36,150091,"0.0-32.0","wyjyvhtdnj",17,NA,"<div style=""width:500px;"">
                            <p style=""font-size:50px; font-weight:bold;""
                            >disgust</p>
                            <div style=""width:240px; margin: auto;"">
                                <img src=""images/map02_coolwarm_scaleDef_orientDef_090.png"" style= ""width:200px""alt=""img"">
                            </div>
                        </div>",0.8475,"",0,"",NA,"","images/map02_coolwarm_scaleDef_orientDef_090.png","disgust",1,2,2,"coolwarm","orientDef","scaleDef","090",NA,NA
"","","","","","html-slider-response",37,151506,"0.0-33.0","wyjyvhtdnj",17,NA,"<div style=""width:500px;"">
                            <p style=""font-size:50px; font-weight:bold;""
                            >disgust</p>
                            <div style=""width:240px; margin: auto;"">
                                <img src=""images/map02_bwr_scaleRev_orientMir_000.png"" style= ""width:200px""alt=""img"">
                            </div>
                        </div>",0.6575,"",0,"",NA,"","images/map02_bwr_scaleRev_orientMir_000.png","disgust",1,2,2,"bwr","orientMir","scaleRev","000",NA,NA
"","","","","","html-slider-response",38,153040,"0.0-34.0","wyjyvhtdnj",17,NA,"<div style=""width:500px;"">
                            <p style=""font-size:50px; font-weight:bold;""
                            >disgust</p>
                            <div style=""width:240px; margin: auto;"">
                                <img src=""images/map13_YlOrRd_scaleRev_orientDef_180.png"" style= ""width:200px""alt=""img"">
                            </div>
                        </div>",0.665,"",0,"",NA,"","images/map13_YlOrRd_scaleRev_orientDef_180.png","disgust",1,13,13,"YlOrRd","orientDef","scaleRev","180",NA,NA
"","","","","","html-slider-response",39,154556,"0.0-35.0","wyjyvhtdnj",17,NA,"<div style=""width:500px;"">
                            <p style=""font-size:50px; font-weight:bold;""
                            >disgust</p>
                            <div style=""width:240px; margin: auto;"">
                                <img src=""images/map12_Reds_scaleRev_orientMir_180.png"" style= ""width:200px""alt=""img"">
                            </div>
                        </div>",0.73,"",0,"",NA,"","images/map12_Reds_scaleRev_orientMir_180.png","disgust",1,12,12,"Reds","orientMir","scaleRev","180",NA,NA
"","","","","","html-slider-response",40,156340,"0.0-36.0","wyjyvhtdnj",17,NA,"<div style=""width:500px;"">
                            <p style=""font-size:50px; font-weight:bold;""
                            >disgust</p>
                            <div style=""width:240px; margin: auto;"">
                                <img src=""images/map13_OrRd_scaleRev_orientMir_000.png"" style= ""width:200px""alt=""img"">
                            </div>
                        </div>",0.6325,"",0,"",NA,"","images/map13_OrRd_scaleRev_orientMir_000.png","disgust",1,13,13,"OrRd","orientMir","scaleRev","000",NA,NA
"","","","","","html-slider-response",41,157757,"0.0-37.0","wyjyvhtdnj",17,NA,"<div style=""width:500px;"">
                            <p style=""font-size:50px; font-weight:bold;""
                            >disgust</p>
                            <div style=""width:240px; margin: auto;"">
                                <img src=""images/map23_BuGn_scaleRev_orientMir_000.png"" style= ""width:200px""alt=""img"">
                            </div>
                        </div>",0.16,"",0,"",NA,"","images/map23_BuGn_scaleRev_orientMir_000.png","disgust",1,23,23,"BuGn","orientMir","scaleRev","000",NA,NA
"","","","","","html-slider-response",42,159890,"0.0-38.0","wyjyvhtdnj",17,NA,"<div style=""width:500px;"">
                            <p style=""font-size:50px; font-weight:bold;""
                            >disgust</p>
                            <div style=""width:240px; margin: auto;"">
                                <img src=""images/map02_Spectral_scaleRev_orientDef_000.png"" style= ""width:200px""alt=""img"">
                            </div>
                        </div>",0.1825,"",0,"",NA,"","images/map02_Spectral_scaleRev_orientDef_000.png","disgust",1,2,2,"Spectral","orientDef","scaleRev","000",NA,NA
"","","","","","html-slider-response",43,161656,"0.0-39.0","wyjyvhtdnj",17,NA,"<div style=""width:500px;"">
                            <p style=""font-size:50px; font-weight:bold;""
                            >disgust</p>
                            <div style=""width:240px; margin: auto;"">
                                <img src=""images/map05_turbo_scaleDef_orientMir_270.png"" style= ""width:200px""alt=""img"">
                            </div>
                        </div>",0.2575,"",0,"",NA,"","images/map05_turbo_scaleDef_orientMir_270.png","disgust",1,5,5,"turbo","orientMir","scaleDef","270",NA,NA
"","","","","","html-slider-response",44,163656,"0.0-40.0","wyjyvhtdnj",17,NA,"<div style=""width:500px;"">
                            <p style=""font-size:50px; font-weight:bold;""
                            >disgust</p>
                            <div style=""width:240px; margin: auto;"">
                                <img src=""images/map12_Blues_scaleRev_orientDef_000.png"" style= ""width:200px""alt=""img"">
                            </div>
                        </div>",0,"",0,"",NA,"","images/map12_Blues_scaleRev_orientDef_000.png","disgust",1,12,12,"Blues","orientDef","scaleRev","000",NA,NA
"","","","","","html-slider-response",45,166623,"0.0-41.0","wyjyvhtdnj",17,NA,"<div style=""width:500px;"">
                            <p style=""font-size:50px; font-weight:bold;""
                            >disgust</p>
                            <div style=""width:240px; margin: auto;"">
                                <img src=""images/map26_PiYG_scaleRev_orientDef_000.png"" style= ""width:200px""alt=""img"">
                            </div>
                        </div>",0.685,"",0,"",NA,"","images/map26_PiYG_scaleRev_orientDef_000.png","disgust",1,26,26,"PiYG","orientDef","scaleRev","000",NA,NA
"","","","","","html-slider-response",46,168125,"0.0-42.0","wyjyvhtdnj",17,NA,"<div style=""width:500px;"">
                            <p style=""font-size:50px; font-weight:bold;""
                            >disgust</p>
                            <div style=""width:240px; margin: auto;"">
                                <img src=""images/map26_BrBG_scaleRev_orientMir_000.png"" style= ""width:200px""alt=""img"">
                            </div>
                        </div>",0.6475,"",0,"",NA,"","images/map26_BrBG_scaleRev_orientMir_000.png","disgust",1,26,26,"BrBG","orientMir","scaleRev","000",NA,NA
"","","","","","html-slider-response",47,171392,"0.0-43.0","wyjyvhtdnj",17,NA,"<div style=""width:500px;"">
                            <p style=""font-size:50px; font-weight:bold;""
                            >disgust</p>
                            <div style=""width:240px; margin: auto;"">
                                <img src=""images/map05_vanimo_scaleDef_orientDef_270.png"" style= ""width:200px""alt=""img"">
                            </div>
                        </div>",0.9025,"",0,"",NA,"","images/map05_vanimo_scaleDef_orientDef_270.png","disgust",1,5,5,"vanimo","orientDef","scaleDef","270",NA,NA
"","","","","","html-slider-response",48,173189,"0.0-44.0","wyjyvhtdnj",17,NA,"<div style=""width:500px;"">
                            <p style=""font-size:50px; font-weight:bold;""
                            >disgust</p>
                            <div style=""width:240px; margin: auto;"">
                                <img src=""images/map07_inferno_scaleDef_orientMir_090.png"" style= ""width:200px""alt=""img"">
                            </div>
                        </div>",0.7325,"",0,"",NA,"","images/map07_inferno_scaleDef_orientMir_090.png","disgust",1,7,7,"inferno","orientMir","scaleDef","090",NA,NA
"","","","","","html-slider-response",49,174806,"0.0-45.0","wyjyvhtdnj",17,NA,"<div style=""width:500px;"">
                            <p style=""font-size:50px; font-weight:bold;""
                            >disgust</p>
                            <div style=""width:240px; margin: auto;"">
                                <img src=""images/map05_vanimo_scaleRev_orientMir_000.png"" style= ""width:200px""alt=""img"">
                            </div>
                        </div>",0.295,"",0,"",NA,"","images/map05_vanimo_scaleRev_orientMir_000.png","disgust",1,5,5,"vanimo","orientMir","scaleRev","000",NA,NA
"","","","","","html-slider-response",50,176607,"0.0-46.0","wyjyvhtdnj",17,NA,"<div style=""width:500px;"">
                            <p style=""font-size:50px; font-weight:bold;""
                            >disgust</p>
                            <div style=""width:240px; margin: auto;"">
                                <img src=""images/map23_YlGnBu_scaleRev_orientDef_000.png"" style= ""width:200px""alt=""img"">
                            </div>
                        </div>",0,"",0,"",NA,"","images/map23_YlGnBu_scaleRev_orientDef_000.png","disgust",1,23,23,"YlGnBu","orientDef","scaleRev","000",NA,NA
"","","","","","html-slider-response",51,179041,"0.0-47.0","wyjyvhtdnj",17,NA,"<div style=""width:500px;"">
                            <p style=""font-size:50px; font-weight:bold;""
                            >disgust</p>
                            <div style=""width:240px; margin: auto;"">
                                <img src=""images/map07_viridis_scaleDef_orientDef_090.png"" style= ""width:200px""alt=""img"">
                            </div>
                        </div>",0,"",0,"",NA,"","images/map07_viridis_scaleDef_orientDef_090.png","disgust",1,7,7,"viridis","orientDef","scaleDef","090",NA,NA
"","","","","","html-slider-response",52,180823,"0.0-48.0","wyjyvhtdnj",17,NA,"<div style=""width:500px;"">
                            <p style=""font-size:50px; font-weight:bold;""
                            >disgust</p>
                            <div style=""width:240px; margin: auto;"">
                                <img src=""images/map13_PuRd_scaleRev_orientMir_180.png"" style= ""width:200px""alt=""img"">
                            </div>
                        </div>",0.07,"",0,"",NA,"","images/map13_PuRd_scaleRev_orientMir_180.png","disgust",1,13,13,"PuRd","orientMir","scaleRev","180",NA,NA
"","","","","","html-slider-response",53,182676,"0.0-49.0","wyjyvhtdnj",17,NA,"<div style=""width:500px;"">
                            <p style=""font-size:50px; font-weight:bold;""
                            >disgust</p>
                            <div style=""width:240px; margin: auto;"">
                                <img src=""images/map07_inferno_scaleRev_orientMir_180.png"" style= ""width:200px""alt=""img"">
                            </div>
                        </div>",0,"",0,"",NA,"","images/map07_inferno_scaleRev_orientMir_180.png","disgust",1,7,7,"inferno","orientMir","scaleRev","180",NA,NA
"","","","","","html-slider-response",54,184823,"0.0-50.0","wyjyvhtdnj",17,NA,"<div style=""width:500px;"">
                            <p style=""font-size:50px; font-weight:bold;""
                            >disgust</p>
                            <div style=""width:240px; margin: auto;"">
                                <img src=""images/map05_gist_earth_scaleDef_orientMir_090.png"" style= ""width:200px""alt=""img"">
                            </div>
                        </div>",0.195,"",0,"",NA,"","images/map05_gist_earth_scaleDef_orientMir_090.png","disgust",1,5,5,"gist","scaleDef","earth","orientMir",NA,NA
"","","","","","html-slider-response",55,187056,"0.0-51.0","wyjyvhtdnj",17,NA,"<div style=""width:500px;"">
                            <p style=""font-size:50px; font-weight:bold;""
                            >disgust</p>
                            <div style=""width:240px; margin: auto;"">
                                <img src=""images/map27_RdYlGn_scaleRev_orientMir_180.png"" style= ""width:200px""alt=""img"">
                            </div>
                        </div>",0.9125,"",0,"",NA,"","images/map27_RdYlGn_scaleRev_orientMir_180.png","disgust",1,27,27,"RdYlGn","orientMir","scaleRev","180",NA,NA
"","","","","","html-slider-response",56,189289,"0.0-52.0","wyjyvhtdnj",17,NA,"<div style=""width:500px;"">
                            <p style=""font-size:50px; font-weight:bold;""
                            >disgust</p>
                            <div style=""width:240px; margin: auto;"">
                                <img src=""images/map02_bwr_scaleDef_orientDef_270.png"" style= ""width:200px""alt=""img"">
                            </div>
                        </div>",0.0025,"",0,"",NA,"","images/map02_bwr_scaleDef_orientDef_270.png","disgust",1,2,2,"bwr","orientDef","scaleDef","270",NA,NA
"","","","","","html-slider-response",57,191223,"0.0-53.0","wyjyvhtdnj",17,NA,"<div style=""width:500px;"">
                            <p style=""font-size:50px; font-weight:bold;""
                            >disgust</p>
                            <div style=""width:240px; margin: auto;"">
                                <img src=""images/map15_PuBu_scaleRev_orientMir_180.png"" style= ""width:200px""alt=""img"">
                            </div>
                        </div>",0,"",0,"",NA,"","images/map15_PuBu_scaleRev_orientMir_180.png","disgust",1,15,15,"PuBu","orientMir","scaleRev","180",NA,NA
"","","","","","html-button-response",58,195195,"0.0-54.0","wyjyvhtdnj",17,3471,"<p>You are doing great!<br></br> You are halway done with the current block. When you are ready to continue, click the 'Continue' button.</p>",0.5,"",NA,"",NA,"","","",NA,NA,NA,"","","","",NA,NA
"","","","","","html-slider-response",59,196956,"0.0-55.0","wyjyvhtdnj",17,NA,"<div style=""width:500px;"">
                            <p style=""font-size:50px; font-weight:bold;""
                            >disgust</p>
                            <div style=""width:240px; margin: auto;"">
                                <img src=""images/map05_managua_scaleRev_orientDef_180.png"" style= ""width:200px""alt=""img"">
                            </div>
                        </div>",0.075,"",0,"",NA,"","images/map05_managua_scaleRev_orientDef_180.png","disgust",1,5,5,"managua","orientDef","scaleRev","180",NA,NA
"","","","","","html-slider-response",60,200356,"0.0-56.0","wyjyvhtdnj",17,NA,"<div style=""width:500px;"">
                            <p style=""font-size:50px; font-weight:bold;""
                            >disgust</p>
                            <div style=""width:240px; margin: auto;"">
                                <img src=""images/map12_YlOrBr_scaleDef_orientMir_270.png"" style= ""width:200px""alt=""img"">
                            </div>
                        </div>",0,"",0,"",NA,"","images/map12_YlOrBr_scaleDef_orientMir_270.png","disgust",1,12,12,"YlOrBr","orientMir","scaleDef","270",NA,NA
"","","","","","html-slider-response",61,201807,"0.0-57.0","wyjyvhtdnj",17,NA,"<div style=""width:500px;"">
                            <p style=""font-size:50px; font-weight:bold;""
                            >disgust</p>
                            <div style=""width:240px; margin: auto;"">
                                <img src=""images/map15_BuPu_scaleRev_orientDef_180.png"" style= ""width:200px""alt=""img"">
                            </div>
                        </div>",0,"",0,"",NA,"","images/map15_BuPu_scaleRev_orientDef_180.png","disgust",1,15,15,"BuPu","orientDef","scaleRev","180",NA,NA
"","","","","","html-slider-response",62,203538,"0.0-58.0","wyjyvhtdnj",17,NA,"<div style=""width:500px;"">
                            <p style=""font-size:50px; font-weight:bold;""
                            >disgust</p>
                            <div style=""width:240px; margin: auto;"">
                                <img src=""images/map15_GnBu_scaleRev_orientMir_000.png"" style= ""width:200px""alt=""img"">
                            </div>
                        </div>",0,"",0,"",NA,"","images/map15_GnBu_scaleRev_orientMir_000.png","disgust",1,15,15,"GnBu","orientMir","scaleRev","000",NA,NA
"","","","","","html-slider-response",63,205391,"0.0-59.0","wyjyvhtdnj",17,NA,"<div style=""width:500px;"">
                            <p style=""font-size:50px; font-weight:bold;""
                            >disgust</p>
                            <div style=""width:240px; margin: auto;"">
                                <img src=""images/map26_PRGn_scaleRev_orientDef_180.png"" style= ""width:200px""alt=""img"">
                            </div>
                        </div>",0,"",0,"",NA,"","images/map26_PRGn_scaleRev_orientDef_180.png","disgust",1,26,26,"PRGn","orientDef","scaleRev","180",NA,NA
"","","","","","html-slider-response",64,207189,"0.0-60.0","wyjyvhtdnj",17,NA,"<div style=""width:500px;"">
                            <p style=""font-size:50px; font-weight:bold;""
                            >disgust</p>
                            <div style=""width:240px; margin: auto;"">
                                <img src=""images/map15_YlGnBu_scaleDef_orientMir_270.png"" style= ""width:200px""alt=""img"">
                            </div>
                        </div>",0,"",0,"",NA,"","images/map15_YlGnBu_scaleDef_orientMir_270.png","disgust",1,15,15,"YlGnBu","orientMir","scaleDef","270",NA,NA
"","","","","","html-slider-response",65,209306,"0.0-61.0","wyjyvhtdnj",17,NA,"<div style=""width:500px;"">
                            <p style=""font-size:50px; font-weight:bold;""
                            >disgust</p>
                            <div style=""width:240px; margin: auto;"">
                                <img src=""images/map12_Greens_scaleRev_orientDef_180.png"" style= ""width:200px""alt=""img"">
                            </div>
                        </div>",0,"",0,"",NA,"","images/map12_Greens_scaleRev_orientDef_180.png","disgust",1,12,12,"Greens","orientDef","scaleRev","180",NA,NA
"","","","","","html-slider-response",66,210822,"0.0-62.0","wyjyvhtdnj",17,NA,"<div style=""width:500px;"">
                            <p style=""font-size:50px; font-weight:bold;""
                            >disgust</p>
                            <div style=""width:240px; margin: auto;"">
                                <img src=""images/map27_RdGy_scaleRev_orientDef_000.png"" style= ""width:200px""alt=""img"">
                            </div>
                        </div>",1,"",0,"",NA,"","images/map27_RdGy_scaleRev_orientDef_000.png","disgust",1,27,27,"RdGy","orientDef","scaleRev","000",NA,NA
"","","","","","html-slider-response",67,212492,"0.0-63.0","wyjyvhtdnj",17,NA,"<div style=""width:500px;"">
                            <p style=""font-size:50px; font-weight:bold;""
                            >disgust</p>
                            <div style=""width:240px; margin: auto;"">
                                <img src=""images/map27_Spectral_scaleDef_orientMir_270.png"" style= ""width:200px""alt=""img"">
                            </div>
                        </div>",0.755,"",0,"",NA,"","images/map27_Spectral_scaleDef_orientMir_270.png","disgust",1,27,27,"Spectral","orientMir","scaleDef","270",NA,NA
"","","","","","html-slider-response",68,214689,"0.0-64.0","wyjyvhtdnj",17,NA,"<div style=""width:500px;"">
                            <p style=""font-size:50px; font-weight:bold;""
                            >disgust</p>
                            <div style=""width:240px; margin: auto;"">
                                <img src=""images/map10_Greys_scaleRev_orientMir_000.png"" style= ""width:200px""alt=""img"">
                            </div>
                        </div>",0.6475,"",0,"",NA,"","images/map10_Greys_scaleRev_orientMir_000.png","disgust",1,10,10,"Greys","orientMir","scaleRev","000",NA,NA
"","","","","","html-slider-response",69,216590,"0.0-65.0","wyjyvhtdnj",17,NA,"<div style=""width:500px;"">
                            <p style=""font-size:50px; font-weight:bold;""
                            >disgust</p>
                            <div style=""width:240px; margin: auto;"">
                                <img src=""images/map02_seismic_scaleRev_orientMir_180.png"" style= ""width:200px""alt=""img"">
                            </div>
                        </div>",0,"",0,"",NA,"","images/map02_seismic_scaleRev_orientMir_180.png","disgust",1,2,2,"seismic","orientMir","scaleRev","180",NA,NA
"","","","","","html-slider-response",70,218223,"0.0-66.0","wyjyvhtdnj",17,NA,"<div style=""width:500px;"">
                            <p style=""font-size:50px; font-weight:bold;""
                            >disgust</p>
                            <div style=""width:240px; margin: auto;"">
                                <img src=""images/map23_PuBuGn_scaleRev_orientDef_180.png"" style= ""width:200px""alt=""img"">
                            </div>
                        </div>",0,"",0,"",NA,"","images/map23_PuBuGn_scaleRev_orientDef_180.png","disgust",1,23,23,"PuBuGn","orientDef","scaleRev","180",NA,NA
"","","","","","html-slider-response",71,219741,"0.0-67.0","wyjyvhtdnj",17,NA,"<div style=""width:500px;"">
                            <p style=""font-size:50px; font-weight:bold;""
                            >disgust</p>
                            <div style=""width:240px; margin: auto;"">
                                <img src=""images/map27_RdYlBu_scaleDef_orientDef_270.png"" style= ""width:200px""alt=""img"">
                            </div>
                        </div>",0,"",0,"",NA,"","images/map27_RdYlBu_scaleDef_orientDef_270.png","disgust",1,27,27,"RdYlBu","orientDef","scaleDef","270",NA,NA
"","","","","","html-slider-response",72,221425,"0.0-68.0","wyjyvhtdnj",17,NA,"<div style=""width:500px;"">
                            <p style=""font-size:50px; font-weight:bold;""
                            >disgust</p>
                            <div style=""width:240px; margin: auto;"">
                                <img src=""images/map05_managua_scaleDef_orientDef_090.png"" style= ""width:200px""alt=""img"">
                            </div>
                        </div>",0.155,"",0,"",NA,"","images/map05_managua_scaleDef_orientDef_090.png","disgust",1,5,5,"managua","orientDef","scaleDef","090",NA,NA
"","","","","","html-slider-response",73,223171,"0.0-69.0","wyjyvhtdnj",17,NA,"<div style=""width:500px;"">
                            <p style=""font-size:50px; font-weight:bold;""
                            >disgust</p>
                            <div style=""width:240px; margin: auto;"">
                                <img src=""images/map13_PuRd_scaleDef_orientMir_090.png"" style= ""width:200px""alt=""img"">
                            </div>
                        </div>",0.275,"",0,"",NA,"","images/map13_PuRd_scaleDef_orientMir_090.png","disgust",1,13,13,"PuRd","orientMir","scaleDef","090",NA,NA
"","","","","","html-slider-response",74,225006,"0.0-70.0","wyjyvhtdnj",17,NA,"<div style=""width:500px;"">
                            <p style=""font-size:50px; font-weight:bold;""
                            >disgust</p>
                            <div style=""width:240px; margin: auto;"">
                                <img src=""images/map23_PiYG_scaleDef_orientMir_270.png"" style= ""width:200px""alt=""img"">
                            </div>
                        </div>",0.4475,"",0,"",NA,"","images/map23_PiYG_scaleDef_orientMir_270.png","disgust",1,23,23,"PiYG","orientMir","scaleDef","270",NA,NA
"","","","","","html-slider-response",75,226506,"0.0-71.0","wyjyvhtdnj",17,NA,"<div style=""width:500px;"">
                            <p style=""font-size:50px; font-weight:bold;""
                            >disgust</p>
                            <div style=""width:240px; margin: auto;"">
                                <img src=""images/map05_berlin_scaleRev_orientDef_000.png"" style= ""width:200px""alt=""img"">
                            </div>
                        </div>",0.2,"",0,"",NA,"","images/map05_berlin_scaleRev_orientDef_000.png","disgust",1,5,5,"berlin","orientDef","scaleRev","000",NA,NA
"","","","","","html-slider-response",76,229040,"0.0-72.0","wyjyvhtdnj",17,NA,"<div style=""width:500px;"">
                            <p style=""font-size:50px; font-weight:bold;""
                            >disgust</p>
                            <div style=""width:240px; margin: auto;"">
                                <img src=""images/map02_seismic_scaleDef_orientMir_090.png"" style= ""width:200px""alt=""img"">
                            </div>
                        </div>",0,"",0,"",NA,"","images/map02_seismic_scaleDef_orientMir_090.png","disgust",1,2,2,"seismic","orientMir","scaleDef","090",NA,NA
"","","","","","html-slider-response",77,230591,"0.0-73.0","wyjyvhtdnj",17,NA,"<div style=""width:500px;"">
                            <p style=""font-size:50px; font-weight:bold;""
                            >disgust</p>
                            <div style=""width:240px; margin: auto;"">
                                <img src=""images/map15_BuPu_scaleDef_orientDef_090.png"" style= ""width:200px""alt=""img"">
                            </div>
                        </div>",0,"",0,"",NA,"","images/map15_BuPu_scaleDef_orientDef_090.png","disgust",1,15,15,"BuPu","orientDef","scaleDef","090",NA,NA
"","","","","","html-slider-response",78,232490,"0.0-74.0","wyjyvhtdnj",17,NA,"<div style=""width:500px;"">
                            <p style=""font-size:50px; font-weight:bold;""
                            >disgust</p>
                            <div style=""width:240px; margin: auto;"">
                                <img src=""images/map27_RdBu_scaleDef_orientDef_090.png"" style= ""width:200px""alt=""img"">
                            </div>
                        </div>",1,"",0,"",NA,"","images/map27_RdBu_scaleDef_orientDef_090.png","disgust",1,27,27,"RdBu","orientDef","scaleDef","090",NA,NA
"","","","","","html-slider-response",79,234423,"0.0-75.0","wyjyvhtdnj",17,NA,"<div style=""width:500px;"">
                            <p style=""font-size:50px; font-weight:bold;""
                            >disgust</p>
                            <div style=""width:240px; margin: auto;"">
                                <img src=""images/map10_Greys_scaleDef_orientDef_270.png"" style= ""width:200px""alt=""img"">
                            </div>
                        </div>",0.27,"",0,"",NA,"","images/map10_Greys_scaleDef_orientDef_270.png","disgust",1,10,10,"Greys","orientDef","scaleDef","270",NA,NA
"","","","","","html-slider-response",80,237357,"0.0-76.0","wyjyvhtdnj",17,NA,"<div style=""width:500px;"">
                            <p style=""font-size:50px; font-weight:bold;""
                            >disgust</p>
                            <div style=""width:240px; margin: auto;"">
                                <img src=""images/map26_PuOr_scaleDef_orientMir_090.png"" style= ""width:200px""alt=""img"">
                            </div>
                        </div>",0.675,"",0,"",NA,"","images/map26_PuOr_scaleDef_orientMir_090.png","disgust",1,26,26,"PuOr","orientMir","scaleDef","090",NA,NA
"","","","","","html-slider-response",81,239725,"0.0-77.0","wyjyvhtdnj",17,NA,"<div style=""width:500px;"">
                            <p style=""font-size:50px; font-weight:bold;""
                            >disgust</p>
                            <div style=""width:240px; margin: auto;"">
                                <img src=""images/map13_RdPu_scaleDef_orientMir_270.png"" style= ""width:200px""alt=""img"">
                            </div>
                        </div>",0,"",0,"",NA,"","images/map13_RdPu_scaleDef_orientMir_270.png","disgust",1,13,13,"RdPu","orientMir","scaleDef","270",NA,NA
"","","","","","html-slider-response",82,241372,"0.0-78.0","wyjyvhtdnj",17,NA,"<div style=""width:500px;"">
                            <p style=""font-size:50px; font-weight:bold;""
                            >disgust</p>
                            <div style=""width:240px; margin: auto;"">
                                <img src=""images/map05_gist_earth_scaleRev_orientMir_180.png"" style= ""width:200px""alt=""img"">
                            </div>
                        </div>",0,"",0,"",NA,"","images/map05_gist_earth_scaleRev_orientMir_180.png","disgust",1,5,5,"gist","scaleRev","earth","orientMir",NA,NA
"","","","","","html-slider-response",83,244376,"0.0-79.0","wyjyvhtdnj",17,NA,"<div style=""width:500px;"">
                            <p style=""font-size:50px; font-weight:bold;""
                            >disgust</p>
                            <div style=""width:240px; margin: auto;"">
                                <img src=""images/map27_RdBu_scaleRev_orientDef_180.png"" style= ""width:200px""alt=""img"">
                            </div>
                        </div>",0.9725,"",0,"",NA,"","images/map27_RdBu_scaleRev_orientDef_180.png","disgust",1,27,27,"RdBu","orientDef","scaleRev","180",NA,NA
"","","","","","html-slider-response",84,246090,"0.0-80.0","wyjyvhtdnj",17,NA,"<div style=""width:500px;"">
                            <p style=""font-size:50px; font-weight:bold;""
                            >disgust</p>
                            <div style=""width:240px; margin: auto;"">
                                <img src=""images/map23_YlGn_scaleDef_orientMir_090.png"" style= ""width:200px""alt=""img"">
                            </div>
                        </div>",0.065,"",0,"",NA,"","images/map23_YlGn_scaleDef_orientMir_090.png","disgust",1,23,23,"YlGn","orientMir","scaleDef","090",NA,NA
"","","","","","html-slider-response",85,248472,"0.0-81.0","wyjyvhtdnj",17,NA,"<div style=""width:500px;"">
                            <p style=""font-size:50px; font-weight:bold;""
                            >disgust</p>
                            <div style=""width:240px; margin: auto;"">
                                <img src=""images/map15_RdPu_scaleRev_orientDef_000.png"" style= ""width:200px""alt=""img"">
                            </div>
                        </div>",0.0125,"",0,"",NA,"","images/map15_RdPu_scaleRev_orientDef_000.png","disgust",1,15,15,"RdPu","orientDef","scaleRev","000",NA,NA
"","","","","","html-slider-response",86,250857,"0.0-82.0","wyjyvhtdnj",17,NA,"<div style=""width:500px;"">
                            <p style=""font-size:50px; font-weight:bold;""
                            >disgust</p>
                            <div style=""width:240px; margin: auto;"">
                                <img src=""images/map10_Purples_scaleRev_orientMir_180.png"" style= ""width:200px""alt=""img"">
                            </div>
                        </div>",0,"",0,"",NA,"","images/map10_Purples_scaleRev_orientMir_180.png","disgust",1,10,10,"Purples","orientMir","scaleRev","180",NA,NA
"","","","","","html-slider-response",87,252757,"0.0-83.0","wyjyvhtdnj",17,NA,"<div style=""width:500px;"">
                            <p style=""font-size:50px; font-weight:bold;""
                            >disgust</p>
                            <div style=""width:240px; margin: auto;"">
                                <img src=""images/map12_Oranges_scaleRev_orientMir_000.png"" style= ""width:200px""alt=""img"">
                            </div>
                        </div>",0.725,"",0,"",NA,"","images/map12_Oranges_scaleRev_orientMir_000.png","disgust",1,12,12,"Oranges","orientMir","scaleRev","000",NA,NA
"","","","","","html-slider-response",88,254474,"0.0-84.0","wyjyvhtdnj",17,NA,"<div style=""width:500px;"">
                            <p style=""font-size:50px; font-weight:bold;""
                            >disgust</p>
                            <div style=""width:240px; margin: auto;"">
                                <img src=""images/map10_magma_scaleRev_orientDef_000.png"" style= ""width:200px""alt=""img"">
                            </div>
                        </div>",0.11,"",0,"",NA,"","images/map10_magma_scaleRev_orientDef_000.png","disgust",1,10,10,"magma","orientDef","scaleRev","000",NA,NA
"","","","","","html-slider-response",89,256122,"0.0-85.0","wyjyvhtdnj",17,NA,"<div style=""width:500px;"">
                            <p style=""font-size:50px; font-weight:bold;""
                            >disgust</p>
                            <div style=""width:240px; margin: auto;"">
                                <img src=""images/map13_YlOrRd_scaleDef_orientDef_090.png"" style= ""width:200px""alt=""img"">
                            </div>
                        </div>",0.685,"",0,"",NA,"","images/map13_YlOrRd_scaleDef_orientDef_090.png","disgust",1,13,13,"YlOrRd","orientDef","scaleDef","090",NA,NA
"","","","","","html-slider-response",90,257973,"0.0-86.0","wyjyvhtdnj",17,NA,"<div style=""width:500px;"">
                            <p style=""font-size:50px; font-weight:bold;""
                            >disgust</p>
                            <div style=""width:240px; margin: auto;"">
                                <img src=""images/map27_RdYlGn_scaleDef_orientMir_090.png"" style= ""width:200px""alt=""img"">
                            </div>
                        </div>",0.9825,"",0,"",NA,"","images/map27_RdYlGn_scaleDef_orientMir_090.png","disgust",1,27,27,"RdYlGn","orientMir","scaleDef","090",NA,NA
"","","","","","html-slider-response",91,259873,"0.0-87.0","wyjyvhtdnj",17,NA,"<div style=""width:500px;"">
                            <p style=""font-size:50px; font-weight:bold;""
                            >disgust</p>
                            <div style=""width:240px; margin: auto;"">
                                <img src=""images/map12_Greens_scaleDef_orientDef_090.png"" style= ""width:200px""alt=""img"">
                            </div>
                        </div>",0.045,"",0,"",NA,"","images/map12_Greens_scaleDef_orientDef_090.png","disgust",1,12,12,"Greens","orientDef","scaleDef","090",NA,NA
"","","","","","html-slider-response",92,261623,"0.0-88.0","wyjyvhtdnj",17,NA,"<div style=""width:500px;"">
                            <p style=""font-size:50px; font-weight:bold;""
                            >disgust</p>
                            <div style=""width:240px; margin: auto;"">
                                <img src=""images/map13_OrRd_scaleDef_orientDef_270.png"" style= ""width:200px""alt=""img"">
                            </div>
                        </div>",0.76,"",0,"",NA,"","images/map13_OrRd_scaleDef_orientDef_270.png","disgust",1,13,13,"OrRd","orientDef","scaleDef","270",NA,NA
"","","","","","html-slider-response",93,263224,"0.0-89.0","wyjyvhtdnj",17,NA,"<div style=""width:500px;"">
                            <p style=""font-size:50px; font-weight:bold;""
                            >disgust</p>
                            <div style=""width:240px; margin: auto;"">
                                <img src=""images/map07_turbo_scaleRev_orientDef_000.png"" style= ""width:200px""alt=""img"">
                            </div>
                        </div>",0.73,"",0,"",NA,"","images/map07_turbo_scaleRev_orientDef_000.png","disgust",1,7,7,"turbo","orientDef","scaleRev","000",NA,NA
"","","","","","html-slider-response",94,265021,"0.0-90.0","wyjyvhtdnj",17,NA,"<div style=""width:500px;"">
                            <p style=""font-size:50px; font-weight:bold;""
                            >disgust</p>
                            <div style=""width:240px; margin: auto;"">
                                <img src=""images/map07_plasma_scaleRev_orientMir_000.png"" style= ""width:200px""alt=""img"">
                            </div>
                        </div>",0.655,"",0,"",NA,"","images/map07_plasma_scaleRev_orientMir_000.png","disgust",1,7,7,"plasma","orientMir","scaleRev","000",NA,NA
"","","","","","html-slider-response",95,266758,"0.0-91.0","wyjyvhtdnj",17,NA,"<div style=""width:500px;"">
                            <p style=""font-size:50px; font-weight:bold;""
                            >disgust</p>
                            <div style=""width:240px; margin: auto;"">
                                <img src=""images/map26_PRGn_scaleDef_orientDef_090.png"" style= ""width:200px""alt=""img"">
                            </div>
                        </div>",0.095,"",0,"",NA,"","images/map26_PRGn_scaleDef_orientDef_090.png","disgust",1,26,26,"PRGn","orientDef","scaleDef","090",NA,NA
"","","","","","html-slider-response",96,268440,"0.0-92.0","wyjyvhtdnj",17,NA,"<div style=""width:500px;"">
                            <p style=""font-size:50px; font-weight:bold;""
                            >disgust</p>
                            <div style=""width:240px; margin: auto;"">
                                <img src=""images/map12_Oranges_scaleDef_orientDef_270.png"" style= ""width:200px""alt=""img"">
                            </div>
                        </div>",0.3825,"",0,"",NA,"","images/map12_Oranges_scaleDef_orientDef_270.png","disgust",1,12,12,"Oranges","orientDef","scaleDef","270",NA,NA
"","","","","","html-slider-response",97,270225,"0.0-93.0","wyjyvhtdnj",17,NA,"<div style=""width:500px;"">
                            <p style=""font-size:50px; font-weight:bold;""
                            >disgust</p>
                            <div style=""width:240px; margin: auto;"">
                                <img src=""images/map26_BrBG_scaleDef_orientDef_270.png"" style= ""width:200px""alt=""img"">
                            </div>
                        </div>",0.9475,"",0,"",NA,"","images/map26_BrBG_scaleDef_orientDef_270.png","disgust",1,26,26,"BrBG","orientDef","scaleDef","270",NA,NA
"","","","","","html-slider-response",98,271823,"0.0-94.0","wyjyvhtdnj",17,NA,"<div style=""width:500px;"">
                            <p style=""font-size:50px; font-weight:bold;""
                            >disgust</p>
                            <div style=""width:240px; margin: auto;"">
                                <img src=""images/map13_YlOrBr_scaleRev_orientDef_000.png"" style= ""width:200px""alt=""img"">
                            </div>
                        </div>",0.8325,"",0,"",NA,"","images/map13_YlOrBr_scaleRev_orientDef_000.png","disgust",1,13,13,"YlOrBr","orientDef","scaleRev","000",NA,NA
"","","","","","html-button-response",99,306678,"0.0-95.0","wyjyvhtdnj",17,34354,"<p>Great Job! You've finished block 1.<br></br> You have 4 block(s) left to go.<br></br></p>",0.5,"",NA,"",NA,"","","",NA,NA,NA,"","","","",NA,NA
"","","","","","html-button-response",100,309228,"0.0-96.0","wyjyvhtdnj",17,2549,"<p>In this block of trials, you will be asked to rate how much you associate each map with:</p > <p style = 'font-size:150%; font-weight: bold'>sad</p><br></br>",0.5,"",NA,"",NA,"","","",NA,NA,NA,"","","","",NA,NA
"","","","","","html-slider-response",101,312125,"0.0-97.0","wyjyvhtdnj",17,NA,"<div style=""width:500px;"">
                            <p style=""font-size:50px; font-weight:bold;""
                            >sad</p>
                            <div style=""width:240px; margin: auto;"">
                                <img src=""images/map10_Blues_scaleDef_orientMir_270.png"" style= ""width:200px""alt=""img"">
                            </div>
                        </div>",0.765,"",0,"",NA,"","images/map10_Blues_scaleDef_orientMir_270.png","sad",1,10,10,"Blues","orientMir","scaleDef","270",NA,NA
"","","","","","html-slider-response",102,314206,"0.0-98.0","wyjyvhtdnj",17,NA,"<div style=""width:500px;"">
                            <p style=""font-size:50px; font-weight:bold;""
                            >sad</p>
                            <div style=""width:240px; margin: auto;"">
                                <img src=""images/map13_PuRd_scaleDef_orientMir_090.png"" style= ""width:200px""alt=""img"">
                            </div>
                        </div>",0,"",0,"",NA,"","images/map13_PuRd_scaleDef_orientMir_090.png","sad",1,13,13,"PuRd","orientMir","scaleDef","090",NA,NA
"","","","","","html-slider-response",103,316773,"0.0-99.0","wyjyvhtdnj",17,NA,"<div style=""width:500px;"">
                            <p style=""font-size:50px; font-weight:bold;""
                            >sad</p>
                            <div style=""width:240px; margin: auto;"">
                                <img src=""images/map23_PuBuGn_scaleRev_orientDef_180.png"" style= ""width:200px""alt=""img"">
                            </div>
                        </div>",0.785,"",0,"",NA,"","images/map23_PuBuGn_scaleRev_orientDef_180.png","sad",1,23,23,"PuBuGn","orientDef","scaleRev","180",NA,NA
"","","","","","html-slider-response",104,318623,"0.0-100.0","wyjyvhtdnj",17,NA,"<div style=""width:500px;"">
                            <p style=""font-size:50px; font-weight:bold;""
                            >sad</p>
                            <div style=""width:240px; margin: auto;"">
                                <img src=""images/map13_PuRd_scaleRev_orientMir_180.png"" style= ""width:200px""alt=""img"">
                            </div>
                        </div>",0.1775,"",0,"",NA,"","images/map13_PuRd_scaleRev_orientMir_180.png","sad",1,13,13,"PuRd","orientMir","scaleRev","180",NA,NA
"","","","","","html-slider-response",105,320573,"0.0-101.0","wyjyvhtdnj",17,NA,"<div style=""width:500px;"">
                            <p style=""font-size:50px; font-weight:bold;""
                            >sad</p>
                            <div style=""width:240px; margin: auto;"">
                                <img src=""images/map26_PuOr_scaleDef_orientMir_090.png"" style= ""width:200px""alt=""img"">
                            </div>
                        </div>",0.645,"",0,"",NA,"","images/map26_PuOr_scaleDef_orientMir_090.png","sad",1,26,26,"PuOr","orientMir","scaleDef","090",NA,NA
"","","","","","html-slider-response",106,322559,"0.0-102.0","wyjyvhtdnj",17,NA,"<div style=""width:500px;"">
                            <p style=""font-size:50px; font-weight:bold;""
                            >sad</p>
                            <div style=""width:240px; margin: auto;"">
                                <img src=""images/map05_berlin_scaleRev_orientDef_000.png"" style= ""width:200px""alt=""img"">
                            </div>
                        </div>",0.965,"",0,"",NA,"","images/map05_berlin_scaleRev_orientDef_000.png","sad",1,5,5,"berlin","orientDef","scaleRev","000",NA,NA
"","","","","","html-slider-response",107,324406,"0.0-103.0","wyjyvhtdnj",17,NA,"<div style=""width:500px;"">
                            <p style=""font-size:50px; font-weight:bold;""
                            >sad</p>
                            <div style=""width:240px; margin: auto;"">
                                <img src=""images/map05_turbo_scaleDef_orientMir_270.png"" style= ""width:200px""alt=""img"">
                            </div>
                        </div>",0,"",0,"",NA,"","images/map05_turbo_scaleDef_orientMir_270.png","sad",1,5,5,"turbo","orientMir","scaleDef","270",NA,NA
"","","","","","html-slider-response",108,327021,"0.0-104.0","wyjyvhtdnj",17,NA,"<div style=""width:500px;"">
                            <p style=""font-size:50px; font-weight:bold;""
                            >sad</p>
                            <div style=""width:240px; margin: auto;"">
                                <img src=""images/map27_RdBu_scaleDef_orientDef_090.png"" style= ""width:200px""alt=""img"">
                            </div>
                        </div>",1,"",0,"",NA,"","images/map27_RdBu_scaleDef_orientDef_090.png","sad",1,27,27,"RdBu","orientDef","scaleDef","090",NA,NA
"","","","","","html-slider-response",109,328839,"0.0-105.0","wyjyvhtdnj",17,NA,"<div style=""width:500px;"">
                            <p style=""font-size:50px; font-weight:bold;""
                            >sad</p>
                            <div style=""width:240px; margin: auto;"">
                                <img src=""images/map26_PiYG_scaleRev_orientDef_000.png"" style= ""width:200px""alt=""img"">
                            </div>
                        </div>",0.335,"",0,"",NA,"","images/map26_PiYG_scaleRev_orientDef_000.png","sad",1,26,26,"PiYG","orientDef","scaleRev","000",NA,NA
"","","","","","html-slider-response",110,330606,"0.0-106.0","wyjyvhtdnj",17,NA,"<div style=""width:500px;"">
                            <p style=""font-size:50px; font-weight:bold;""
                            >sad</p>
                            <div style=""width:240px; margin: auto;"">
                                <img src=""images/map10_cividis_scaleDef_orientDef_090.png"" style= ""width:200px""alt=""img"">
                            </div>
                        </div>",1,"",0,"",NA,"","images/map10_cividis_scaleDef_orientDef_090.png","sad",1,10,10,"cividis","orientDef","scaleDef","090",NA,NA
"","","","","","html-slider-response",111,332658,"0.0-107.0","wyjyvhtdnj",17,NA,"<div style=""width:500px;"">
                            <p style=""font-size:50px; font-weight:bold;""
                            >sad</p>
                            <div style=""width:240px; margin: auto;"">
                                <img src=""images/map23_PiYG_scaleDef_orientMir_270.png"" style= ""width:200px""alt=""img"">
                            </div>
                        </div>",0.08,"",0,"",NA,"","images/map23_PiYG_scaleDef_orientMir_270.png","sad",1,23,23,"PiYG","orientMir","scaleDef","270",NA,NA
"","","","","","html-slider-response",112,334256,"0.0-108.0","wyjyvhtdnj",17,NA,"<div style=""width:500px;"">
                            <p style=""font-size:50px; font-weight:bold;""
                            >sad</p>
                            <div style=""width:240px; margin: auto;"">
                                <img src=""images/map15_PuBu_scaleRev_orientMir_180.png"" style= ""width:200px""alt=""img"">
                            </div>
                        </div>",0.985,"",0,"",NA,"","images/map15_PuBu_scaleRev_orientMir_180.png","sad",1,15,15,"PuBu","orientMir","scaleRev","180",NA,NA
"","","","","","html-slider-response",113,335989,"0.0-109.0","wyjyvhtdnj",17,NA,"<div style=""width:500px;"">
                            <p style=""font-size:50px; font-weight:bold;""
                            >sad</p>
                            <div style=""width:240px; margin: auto;"">
                                <img src=""images/map05_managua_scaleDef_orientDef_090.png"" style= ""width:200px""alt=""img"">
                            </div>
                        </div>",0.355,"",0,"",NA,"","images/map05_managua_scaleDef_orientDef_090.png","sad",1,5,5,"managua","orientDef","scaleDef","090",NA,NA
"","","","","","html-slider-response",114,337741,"0.0-110.0","wyjyvhtdnj",17,NA,"<div style=""width:500px;"">
                            <p style=""font-size:50px; font-weight:bold;""
                            >sad</p>
                            <div style=""width:240px; margin: auto;"">
                                <img src=""images/map05_vanimo_scaleDef_orientDef_270.png"" style= ""width:200px""alt=""img"">
                            </div>
                        </div>",0.8275,"",0,"",NA,"","images/map05_vanimo_scaleDef_orientDef_270.png","sad",1,5,5,"vanimo","orientDef","scaleDef","270",NA,NA
"","","","","","html-slider-response",115,340024,"0.0-111.0","wyjyvhtdnj",17,NA,"<div style=""width:500px;"">
                            <p style=""font-size:50px; font-weight:bold;""
                            >sad</p>
                            <div style=""width:240px; margin: auto;"">
                                <img src=""images/map12_Oranges_scaleDef_orientDef_270.png"" style= ""width:200px""alt=""img"">
                            </div>
                        </div>",0.3175,"",0,"",NA,"","images/map12_Oranges_scaleDef_orientDef_270.png","sad",1,12,12,"Oranges","orientDef","scaleDef","270",NA,NA
"","","","","","html-slider-response",116,342474,"0.0-112.0","wyjyvhtdnj",17,NA,"<div style=""width:500px;"">
                            <p style=""font-size:50px; font-weight:bold;""
                            >sad</p>
                            <div style=""width:240px; margin: auto;"">
                                <img src=""images/map15_RdPu_scaleRev_orientDef_000.png"" style= ""width:200px""alt=""img"">
                            </div>
                        </div>",0.0775,"",0,"",NA,"","images/map15_RdPu_scaleRev_orientDef_000.png","sad",1,15,15,"RdPu","orientDef","scaleRev","000",NA,NA
"","","","","","html-slider-response",117,344339,"0.0-113.0","wyjyvhtdnj",17,NA,"<div style=""width:500px;"">
                            <p style=""font-size:50px; font-weight:bold;""
                            >sad</p>
                            <div style=""width:240px; margin: auto;"">
                                <img src=""images/map27_RdBu_scaleRev_orientDef_180.png"" style= ""width:200px""alt=""img"">
                            </div>
                        </div>",0.78,"",0,"",NA,"","images/map27_RdBu_scaleRev_orientDef_180.png","sad",1,27,27,"RdBu","orientDef","scaleRev","180",NA,NA
"","","","","","html-slider-response",118,345672,"0.0-114.0","wyjyvhtdnj",17,NA,"<div style=""width:500px;"">
                            <p style=""font-size:50px; font-weight:bold;""
                            >sad</p>
                            <div style=""width:240px; margin: auto;"">
                                <img src=""images/map13_OrRd_scaleRev_orientMir_000.png"" style= ""width:200px""alt=""img"">
                            </div>
                        </div>",0.3225,"",0,"",NA,"","images/map13_OrRd_scaleRev_orientMir_000.png","sad",1,13,13,"OrRd","orientMir","scaleRev","000",NA,NA
"","","","","","html-slider-response",119,347421,"0.0-115.0","wyjyvhtdnj",17,NA,"<div style=""width:500px;"">
                            <p style=""font-size:50px; font-weight:bold;""
                            >sad</p>
                            <div style=""width:240px; margin: auto;"">
                                <img src=""images/map07_viridis_scaleRev_orientDef_180.png"" style= ""width:200px""alt=""img"">
                            </div>
                        </div>",0.7925,"",0,"",NA,"","images/map07_viridis_scaleRev_orientDef_180.png","sad",1,7,7,"viridis","orientDef","scaleRev","180",NA,NA
"","","","","","html-slider-response",120,348621,"0.0-116.0","wyjyvhtdnj",17,NA,"<div style=""width:500px;"">
                            <p style=""font-size:50px; font-weight:bold;""
                            >sad</p>
                            <div style=""width:240px; margin: auto;"">
                                <img src=""images/map27_RdYlBu_scaleRev_orientMir_000.png"" style= ""width:200px""alt=""img"">
                            </div>
                        </div>",0.265,"",0,"",NA,"","images/map27_RdYlBu_scaleRev_orientMir_000.png","sad",1,27,27,"RdYlBu","orientMir","scaleRev","000",NA,NA
"","","","","","html-slider-response",121,349739,"0.0-117.0","wyjyvhtdnj",17,NA,"<div style=""width:500px;"">
                            <p style=""font-size:50px; font-weight:bold;""
                            >sad</p>
                            <div style=""width:240px; margin: auto;"">
                                <img src=""images/map26_PRGn_scaleRev_orientDef_180.png"" style= ""width:200px""alt=""img"">
                            </div>
                        </div>",0.635,"",0,"",NA,"","images/map26_PRGn_scaleRev_orientDef_180.png","sad",1,26,26,"PRGn","orientDef","scaleRev","180",NA,NA
"","","","","","html-slider-response",122,350773,"0.0-118.0","wyjyvhtdnj",17,NA,"<div style=""width:500px;"">
                            <p style=""font-size:50px; font-weight:bold;""
                            >sad</p>
                            <div style=""width:240px; margin: auto;"">
                                <img src=""images/map23_BuGn_scaleDef_orientDef_270.png"" style= ""width:200px""alt=""img"">
                            </div>
                        </div>",0.2625,"",0,"",NA,"","images/map23_BuGn_scaleDef_orientDef_270.png","sad",1,23,23,"BuGn","orientDef","scaleDef","270",NA,NA
"","","","","","html-slider-response",123,351906,"0.0-119.0","wyjyvhtdnj",17,NA,"<div style=""width:500px;"">
                            <p style=""font-size:50px; font-weight:bold;""
                            >sad</p>
                            <div style=""width:240px; margin: auto;"">
                                <img src=""images/map02_coolwarm_scaleRev_orientDef_180.png"" style= ""width:200px""alt=""img"">
                            </div>
                        </div>",0.665,"",0,"",NA,"","images/map02_coolwarm_scaleRev_orientDef_180.png","sad",1,2,2,"coolwarm","orientDef","scaleRev","180",NA,NA
"","","","","","html-slider-response",124,353206,"0.0-120.0","wyjyvhtdnj",17,NA,"<div style=""width:500px;"">
                            <p style=""font-size:50px; font-weight:bold;""
                            >sad</p>
                            <div style=""width:240px; margin: auto;"">
                                <img src=""images/map02_berlin_scaleDef_orientMir_270.png"" style= ""width:200px""alt=""img"">
                            </div>
                        </div>",0.4175,"",0,"",NA,"","images/map02_berlin_scaleDef_orientMir_270.png","sad",1,2,2,"berlin","orientMir","scaleDef","270",NA,NA
"","","","","","html-slider-response",125,354389,"0.0-121.0","wyjyvhtdnj",17,NA,"<div style=""width:500px;"">
                            <p style=""font-size:50px; font-weight:bold;""
                            >sad</p>
                            <div style=""width:240px; margin: auto;"">
                                <img src=""images/map05_vanimo_scaleRev_orientMir_000.png"" style= ""width:200px""alt=""img"">
                            </div>
                        </div>",0.7,"",0,"",NA,"","images/map05_vanimo_scaleRev_orientMir_000.png","sad",1,5,5,"vanimo","orientMir","scaleRev","000",NA,NA
"","","","","","html-slider-response",126,355656,"0.0-122.0","wyjyvhtdnj",17,NA,"<div style=""width:500px;"">
                            <p style=""font-size:50px; font-weight:bold;""
                            >sad</p>
                            <div style=""width:240px; margin: auto;"">
                                <img src=""images/map12_YlOrBr_scaleDef_orientMir_270.png"" style= ""width:200px""alt=""img"">
                            </div>
                        </div>",0.65,"",0,"",NA,"","images/map12_YlOrBr_scaleDef_orientMir_270.png","sad",1,12,12,"YlOrBr","orientMir","scaleDef","270",NA,NA
"","","","","","html-slider-response",127,356840,"0.0-123.0","wyjyvhtdnj",17,NA,"<div style=""width:500px;"">
                            <p style=""font-size:50px; font-weight:bold;""
                            >sad</p>
                            <div style=""width:240px; margin: auto;"">
                                <img src=""images/map12_Greens_scaleRev_orientDef_180.png"" style= ""width:200px""alt=""img"">
                            </div>
                        </div>",0.3525,"",0,"",NA,"","images/map12_Greens_scaleRev_orientDef_180.png","sad",1,12,12,"Greens","orientDef","scaleRev","180",NA,NA
"","","","","","html-slider-response",128,358339,"0.0-124.0","wyjyvhtdnj",17,NA,"<div style=""width:500px;"">
                            <p style=""font-size:50px; font-weight:bold;""
                            >sad</p>
                            <div style=""width:240px; margin: auto;"">
                                <img src=""images/map02_seismic_scaleRev_orientMir_180.png"" style= ""width:200px""alt=""img"">
                            </div>
                        </div>",0.7225,"",0,"",NA,"","images/map02_seismic_scaleRev_orientMir_180.png","sad",1,2,2,"seismic","orientMir","scaleRev","180",NA,NA
"","","","","","html-slider-response",129,360356,"0.0-125.0","wyjyvhtdnj",17,NA,"<div style=""width:500px;"">
                            <p style=""font-size:50px; font-weight:bold;""
                            >sad</p>
                            <div style=""width:240px; margin: auto;"">
                                <img src=""images/map15_GnBu_scaleRev_orientMir_000.png"" style= ""width:200px""alt=""img"">
                            </div>
                        </div>",1,"",0,"",NA,"","images/map15_GnBu_scaleRev_orientMir_000.png","sad",1,15,15,"GnBu","orientMir","scaleRev","000",NA,NA
"","","","","","html-slider-response",130,361874,"0.0-126.0","wyjyvhtdnj",17,NA,"<div style=""width:500px;"">
                            <p style=""font-size:50px; font-weight:bold;""
                            >sad</p>
                            <div style=""width:240px; margin: auto;"">
                                <img src=""images/map02_seismic_scaleDef_orientMir_090.png"" style= ""width:200px""alt=""img"">
                            </div>
                        </div>",0.8025,"",0,"",NA,"","images/map02_seismic_scaleDef_orientMir_090.png","sad",1,2,2,"seismic","orientMir","scaleDef","090",NA,NA
"","","","","","html-slider-response",131,363372,"0.0-127.0","wyjyvhtdnj",17,NA,"<div style=""width:500px;"">
                            <p style=""font-size:50px; font-weight:bold;""
                            >sad</p>
                            <div style=""width:240px; margin: auto;"">
                                <img src=""images/map10_Greys_scaleDef_orientDef_270.png"" style= ""width:200px""alt=""img"">
                            </div>
                        </div>",1,"",0,"",NA,"","images/map10_Greys_scaleDef_orientDef_270.png","sad",1,10,10,"Greys","orientDef","scaleDef","270",NA,NA
"","","","","","html-slider-response",132,365274,"0.0-128.0","wyjyvhtdnj",17,NA,"<div style=""width:500px;"">
                            <p style=""font-size:50px; font-weight:bold;""
                            >sad</p>
                            <div style=""width:240px; margin: auto;"">
                                <img src=""images/map02_bwr_scaleDef_orientDef_270.png"" style= ""width:200px""alt=""img"">
                            </div>
                        </div>",0.635,"",0,"",NA,"","images/map02_bwr_scaleDef_orientDef_270.png","sad",1,2,2,"bwr","orientDef","scaleDef","270",NA,NA
"","","","","","html-slider-response",133,366757,"0.0-129.0","wyjyvhtdnj",17,NA,"<div style=""width:500px;"">
                            <p style=""font-size:50px; font-weight:bold;""
                            >sad</p>
                            <div style=""width:240px; margin: auto;"">
                                <img src=""images/map07_viridis_scaleDef_orientDef_090.png"" style= ""width:200px""alt=""img"">
                            </div>
                        </div>",1,"",0,"",NA,"","images/map07_viridis_scaleDef_orientDef_090.png","sad",1,7,7,"viridis","orientDef","scaleDef","090",NA,NA
"","","","","","html-slider-response",134,368007,"0.0-130.0","wyjyvhtdnj",17,NA,"<div style=""width:500px;"">
                            <p style=""font-size:50px; font-weight:bold;""
                            >sad</p>
                            <div style=""width:240px; margin: auto;"">
                                <img src=""images/map27_RdYlBu_scaleDef_orientDef_270.png"" style= ""width:200px""alt=""img"">
                            </div>
                        </div>",0.4525,"",0,"",NA,"","images/map27_RdYlBu_scaleDef_orientDef_270.png","sad",1,27,27,"RdYlBu","orientDef","scaleDef","270",NA,NA
"","","","","","html-slider-response",135,369489,"0.0-131.0","wyjyvhtdnj",17,NA,"<div style=""width:500px;"">
                            <p style=""font-size:50px; font-weight:bold;""
                            >sad</p>
                            <div style=""width:240px; margin: auto;"">
                                <img src=""images/map15_YlGnBu_scaleDef_orientMir_270.png"" style= ""width:200px""alt=""img"">
                            </div>
                        </div>",1,"",0,"",NA,"","images/map15_YlGnBu_scaleDef_orientMir_270.png","sad",1,15,15,"YlGnBu","orientMir","scaleDef","270",NA,NA
"","","","","","html-slider-response",136,371290,"0.0-132.0","wyjyvhtdnj",17,NA,"<div style=""width:500px;"">
                            <p style=""font-size:50px; font-weight:bold;""
                            >sad</p>
                            <div style=""width:240px; margin: auto;"">
                                <img src=""images/map02_coolwarm_scaleDef_orientDef_090.png"" style= ""width:200px""alt=""img"">
                            </div>
                        </div>",0.295,"",0,"",NA,"","images/map02_coolwarm_scaleDef_orientDef_090.png","sad",1,2,2,"coolwarm","orientDef","scaleDef","090",NA,NA
"","","","","","html-slider-response",137,372489,"0.0-133.0","wyjyvhtdnj",17,NA,"<div style=""width:500px;"">
                            <p style=""font-size:50px; font-weight:bold;""
                            >sad</p>
                            <div style=""width:240px; margin: auto;"">
                                <img src=""images/map15_GnBu_scaleDef_orientDef_270.png"" style= ""width:200px""alt=""img"">
                            </div>
                        </div>",0.67,"",0,"",NA,"","images/map15_GnBu_scaleDef_orientDef_270.png","sad",1,15,15,"GnBu","orientDef","scaleDef","270",NA,NA
"","","","","","html-slider-response",138,373939,"0.0-134.0","wyjyvhtdnj",17,NA,"<div style=""width:500px;"">
                            <p style=""font-size:50px; font-weight:bold;""
                            >sad</p>
                            <div style=""width:240px; margin: auto;"">
                                <img src=""images/map05_managua_scaleRev_orientDef_180.png"" style= ""width:200px""alt=""img"">
                            </div>
                        </div>",0.335,"",0,"",NA,"","images/map05_managua_scaleRev_orientDef_180.png","sad",1,5,5,"managua","orientDef","scaleRev","180",NA,NA
"","","","","","html-slider-response",139,375340,"0.0-135.0","wyjyvhtdnj",17,NA,"<div style=""width:500px;"">
                            <p style=""font-size:50px; font-weight:bold;""
                            >sad</p>
                            <div style=""width:240px; margin: auto;"">
                                <img src=""images/map13_YlOrRd_scaleDef_orientDef_090.png"" style= ""width:200px""alt=""img"">
                            </div>
                        </div>",0.3075,"",0,"",NA,"","images/map13_YlOrRd_scaleDef_orientDef_090.png","sad",1,13,13,"YlOrRd","orientDef","scaleDef","090",NA,NA
"","","","","","html-slider-response",140,376555,"0.0-136.0","wyjyvhtdnj",17,NA,"<div style=""width:500px;"">
                            <p style=""font-size:50px; font-weight:bold;""
                            >sad</p>
                            <div style=""width:240px; margin: auto;"">
                                <img src=""images/map27_RdYlGn_scaleDef_orientMir_090.png"" style= ""width:200px""alt=""img"">
                            </div>
                        </div>",0.1975,"",0,"",NA,"","images/map27_RdYlGn_scaleDef_orientMir_090.png","sad",1,27,27,"RdYlGn","orientMir","scaleDef","090",NA,NA
"","","","","","html-button-response",141,378828,"0.0-137.0","wyjyvhtdnj",17,1772,"<p>You are doing great!<br></br> You are halway done with the current block. When you are ready to continue, click the 'Continue' button.</p>",0.5,"",NA,"",NA,"","","",NA,NA,NA,"","","","",NA,NA
"","","","","","html-slider-response",142,380040,"0.0-138.0","wyjyvhtdnj",17,NA,"<div style=""width:500px;"">
                            <p style=""font-size:50px; font-weight:bold;""
                            >sad</p>
                            <div style=""width:240px; margin: auto;"">
                                <img src=""images/map12_Reds_scaleRev_orientMir_180.png"" style= ""width:200px""alt=""img"">
                            </div>
                        </div>",0.1225,"",0,"",NA,"","images/map12_Reds_scaleRev_orientMir_180.png","sad",1,12,12,"Reds","orientMir","scaleRev","180",NA,NA
"","","","","","html-slider-response",143,381339,"0.0-139.0","wyjyvhtdnj",17,NA,"<div style=""width:500px;"">
                            <p style=""font-size:50px; font-weight:bold;""
                            >sad</p>
                            <div style=""width:240px; margin: auto;"">
                                <img src=""images/map10_Purples_scaleDef_orientMir_090.png"" style= ""width:200px""alt=""img"">
                            </div>
                        </div>",0.9525,"",0,"",NA,"","images/map10_Purples_scaleDef_orientMir_090.png","sad",1,10,10,"Purples","orientMir","scaleDef","090",NA,NA
"","","","","","html-slider-response",144,382538,"0.0-140.0","wyjyvhtdnj",17,NA,"<div style=""width:500px;"">
                            <p style=""font-size:50px; font-weight:bold;""
                            >sad</p>
                            <div style=""width:240px; margin: auto;"">
                                <img src=""images/map13_YlOrBr_scaleRev_orientDef_000.png"" style= ""width:200px""alt=""img"">
                            </div>
                        </div>",0.345,"",0,"",NA,"","images/map13_YlOrBr_scaleRev_orientDef_000.png","sad",1,13,13,"YlOrBr","orientDef","scaleRev","000",NA,NA
"","","","","","html-slider-response",145,383639,"0.0-141.0","wyjyvhtdnj",17,NA,"<div style=""width:500px;"">
                            <p style=""font-size:50px; font-weight:bold;""
                            >sad</p>
                            <div style=""width:240px; margin: auto;"">
                                <img src=""images/map15_BuPu_scaleDef_orientDef_090.png"" style= ""width:200px""alt=""img"">
                            </div>
                        </div>",0.705,"",0,"",NA,"","images/map15_BuPu_scaleDef_orientDef_090.png","sad",1,15,15,"BuPu","orientDef","scaleDef","090",NA,NA
"","","","","","html-slider-response",146,384756,"0.0-142.0","wyjyvhtdnj",17,NA,"<div style=""width:500px;"">
                            <p style=""font-size:50px; font-weight:bold;""
                            >sad</p>
                            <div style=""width:240px; margin: auto;"">
                                <img src=""images/map13_RdPu_scaleDef_orientMir_270.png"" style= ""width:200px""alt=""img"">
                            </div>
                        </div>",0.2325,"",0,"",NA,"","images/map13_RdPu_scaleDef_orientMir_270.png","sad",1,13,13,"RdPu","orientMir","scaleDef","270",NA,NA
"","","","","","html-slider-response",147,385854,"0.0-143.0","wyjyvhtdnj",17,NA,"<div style=""width:500px;"">
                            <p style=""font-size:50px; font-weight:bold;""
                            >sad</p>
                            <div style=""width:240px; margin: auto;"">
                                <img src=""images/map12_Blues_scaleRev_orientDef_000.png"" style= ""width:200px""alt=""img"">
                            </div>
                        </div>",1,"",0,"",NA,"","images/map12_Blues_scaleRev_orientDef_000.png","sad",1,12,12,"Blues","orientDef","scaleRev","000",NA,NA
"","","","","","html-slider-response",148,387256,"0.0-144.0","wyjyvhtdnj",17,NA,"<div style=""width:500px;"">
                            <p style=""font-size:50px; font-weight:bold;""
                            >sad</p>
                            <div style=""width:240px; margin: auto;"">
                                <img src=""images/map10_Purples_scaleRev_orientMir_180.png"" style= ""width:200px""alt=""img"">
                            </div>
                        </div>",1,"",0,"",NA,"","images/map10_Purples_scaleRev_orientMir_180.png","sad",1,10,10,"Purples","orientMir","scaleRev","180",NA,NA
"","","","","","html-slider-response",149,388540,"0.0-145.0","wyjyvhtdnj",17,NA,"<div style=""width:500px;"">
                            <p style=""font-size:50px; font-weight:bold;""
                            >sad</p>
                            <div style=""width:240px; margin: auto;"">
                                <img src=""images/map07_inferno_scaleDef_orientMir_090.png"" style= ""width:200px""alt=""img"">
                            </div>
                        </div>",0.3775,"",0,"",NA,"","images/map07_inferno_scaleDef_orientMir_090.png","sad",1,7,7,"inferno","orientMir","scaleDef","090",NA,NA
"","","","","","html-slider-response",150,390106,"0.0-146.0","wyjyvhtdnj",17,NA,"<div style=""width:500px;"">
                            <p style=""font-size:50px; font-weight:bold;""
                            >sad</p>
                            <div style=""width:240px; margin: auto;"">
                                <img src=""images/map26_PRGn_scaleDef_orientDef_090.png"" style= ""width:200px""alt=""img"">
                            </div>
                        </div>",0.87,"",0,"",NA,"","images/map26_PRGn_scaleDef_orientDef_090.png","sad",1,26,26,"PRGn","orientDef","scaleDef","090",NA,NA
"","","","","","html-slider-response",151,391239,"0.0-147.0","wyjyvhtdnj",17,NA,"<div style=""width:500px;"">
                            <p style=""font-size:50px; font-weight:bold;""
                            >sad</p>
                            <div style=""width:240px; margin: auto;"">
                                <img src=""images/map05_gist_earth_scaleRev_orientMir_180.png"" style= ""width:200px""alt=""img"">
                            </div>
                        </div>",0.7725,"",0,"",NA,"","images/map05_gist_earth_scaleRev_orientMir_180.png","sad",1,5,5,"gist","scaleRev","earth","orientMir",NA,NA
"","","","","","html-slider-response",152,392489,"0.0-148.0","wyjyvhtdnj",17,NA,"<div style=""width:500px;"">
                            <p style=""font-size:50px; font-weight:bold;""
                            >sad</p>
                            <div style=""width:240px; margin: auto;"">
                                <img src=""images/map13_OrRd_scaleDef_orientDef_270.png"" style= ""width:200px""alt=""img"">
                            </div>
                        </div>",0.185,"",0,"",NA,"","images/map13_OrRd_scaleDef_orientDef_270.png","sad",1,13,13,"OrRd","orientDef","scaleDef","270",NA,NA
"","","","","","html-slider-response",153,394156,"0.0-149.0","wyjyvhtdnj",17,NA,"<div style=""width:500px;"">
                            <p style=""font-size:50px; font-weight:bold;""
                            >sad</p>
                            <div style=""width:240px; margin: auto;"">
                                <img src=""images/map26_RdGy_scaleDef_orientMir_270.png"" style= ""width:200px""alt=""img"">
                            </div>
                        </div>",0.175,"",0,"",NA,"","images/map26_RdGy_scaleDef_orientMir_270.png","sad",1,26,26,"RdGy","orientMir","scaleDef","270",NA,NA
"","","","","","html-slider-response",154,395638,"0.0-150.0","wyjyvhtdnj",17,NA,"<div style=""width:500px;"">
                            <p style=""font-size:50px; font-weight:bold;""
                            >sad</p>
                            <div style=""width:240px; margin: auto;"">
                                <img src=""images/map26_BrBG_scaleRev_orientMir_000.png"" style= ""width:200px""alt=""img"">
                            </div>
                        </div>",0.24,"",0,"",NA,"","images/map26_BrBG_scaleRev_orientMir_000.png","sad",1,26,26,"BrBG","orientMir","scaleRev","000",NA,NA
"","","","","","html-slider-response",155,397290,"0.0-151.0","wyjyvhtdnj",17,NA,"<div style=""width:500px;"">
                            <p style=""font-size:50px; font-weight:bold;""
                            >sad</p>
                            <div style=""width:240px; margin: auto;"">
                                <img src=""images/map07_magma_scaleDef_orientMir_270.png"" style= ""width:200px""alt=""img"">
                            </div>
                        </div>",0.4375,"",0,"",NA,"","images/map07_magma_scaleDef_orientMir_270.png","sad",1,7,7,"magma","orientMir","scaleDef","270",NA,NA
"","","","","","html-slider-response",156,398856,"0.0-152.0","wyjyvhtdnj",17,NA,"<div style=""width:500px;"">
                            <p style=""font-size:50px; font-weight:bold;""
                            >sad</p>
                            <div style=""width:240px; margin: auto;"">
                                <img src=""images/map26_PuOr_scaleRev_orientMir_180.png"" style= ""width:200px""alt=""img"">
                            </div>
                        </div>",0.3825,"",0,"",NA,"","images/map26_PuOr_scaleRev_orientMir_180.png","sad",1,26,26,"PuOr","orientMir","scaleRev","180",NA,NA
"","","","","","html-slider-response",157,400172,"0.0-153.0","wyjyvhtdnj",17,NA,"<div style=""width:500px;"">
                            <p style=""font-size:50px; font-weight:bold;""
                            >sad</p>
                            <div style=""width:240px; margin: auto;"">
                                <img src=""images/map12_Reds_scaleDef_orientMir_090.png"" style= ""width:200px""alt=""img"">
                            </div>
                        </div>",0.3475,"",0,"",NA,"","images/map12_Reds_scaleDef_orientMir_090.png","sad",1,12,12,"Reds","orientMir","scaleDef","090",NA,NA
"","","","","","html-slider-response",158,401305,"0.0-154.0","wyjyvhtdnj",17,NA,"<div style=""width:500px;"">
                            <p style=""font-size:50px; font-weight:bold;""
                            >sad</p>
                            <div style=""width:240px; margin: auto;"">
                                <img src=""images/map10_cividis_scaleRev_orientDef_180.png"" style= ""width:200px""alt=""img"">
                            </div>
                        </div>",0.8975,"",0,"",NA,"","images/map10_cividis_scaleRev_orientDef_180.png","sad",1,10,10,"cividis","orientDef","scaleRev","180",NA,NA
"","","","","","html-slider-response",159,402522,"0.0-155.0","wyjyvhtdnj",17,NA,"<div style=""width:500px;"">
                            <p style=""font-size:50px; font-weight:bold;""
                            >sad</p>
                            <div style=""width:240px; margin: auto;"">
                                <img src=""images/map07_plasma_scaleRev_orientMir_000.png"" style= ""width:200px""alt=""img"">
                            </div>
                        </div>",0.3,"",0,"",NA,"","images/map07_plasma_scaleRev_orientMir_000.png","sad",1,7,7,"plasma","orientMir","scaleRev","000",NA,NA
"","","","","","html-slider-response",160,403822,"0.0-156.0","wyjyvhtdnj",17,NA,"<div style=""width:500px;"">
                            <p style=""font-size:50px; font-weight:bold;""
                            >sad</p>
                            <div style=""width:240px; margin: auto;"">
                                <img src=""images/map12_Oranges_scaleRev_orientMir_000.png"" style= ""width:200px""alt=""img"">
                            </div>
                        </div>",0.105,"",0,"",NA,"","images/map12_Oranges_scaleRev_orientMir_000.png","sad",1,12,12,"Oranges","orientMir","scaleRev","000",NA,NA
"","","","","","html-slider-response",161,405272,"0.0-157.0","wyjyvhtdnj",17,NA,"<div style=""width:500px;"">
                            <p style=""font-size:50px; font-weight:bold;""
                            >sad</p>
                            <div style=""width:240px; margin: auto;"">
                                <img src=""images/map26_BrBG_scaleDef_orientDef_270.png"" style= ""width:200px""alt=""img"">
                            </div>
                        </div>",0.2825,"",0,"",NA,"","images/map26_BrBG_scaleDef_orientDef_270.png","sad",1,26,26,"BrBG","orientDef","scaleDef","270",NA,NA
"","","","","","html-slider-response",162,406574,"0.0-158.0","wyjyvhtdnj",17,NA,"<div style=""width:500px;"">
                            <p style=""font-size:50px; font-weight:bold;""
                            >sad</p>
                            <div style=""width:240px; margin: auto;"">
                                <img src=""images/map15_PuBu_scaleDef_orientMir_090.png"" style= ""width:200px""alt=""img"">
                            </div>
                        </div>",1,"",0,"",NA,"","images/map15_PuBu_scaleDef_orientMir_090.png","sad",1,15,15,"PuBu","orientMir","scaleDef","090",NA,NA
