"success","timeout","failed_images","failed_audio","failed_video","trial_type","trial_index","time_elapsed","internal_node_id","subject_id","condition_num","rt","stimulus","response","question_order","slider_start","practiceTrial","practiceTrialNum","correct","image_path","concept","repetition","map_id","map_num","scale_name","orientation_code","mapping_code","rotation_code","ishihara_plate","correct_response"
"true","false","[]","[]","[]","preload",0,430,"0.0-0.0","h5nofx51vd",29,NA,"",NA,"",NA,"",NA,"","","",NA,NA,NA,"","","","",NA,NA
"","","","","","html-button-response",1,5805,"0.0-1.0","h5nofx51vd",29,5373,"Welcome to our experiment!<p>At the bottom of this screen, you will see a button that says ""Begin Experiment"".<br>Please only click that button when you are ready to complete the 30 minute experiment in one sitting.</p><p> Once you click that button, it will not be possible to restart the experiment.",0.5,"",NA,"",NA,"","","",NA,NA,NA,"","","","",NA,NA
"true","","","","","fullscreen",2,8821,"0.0-2.0","h5nofx51vd",29,2014,"",NA,"",NA,"",NA,"","","",NA,NA,NA,"","","","",NA,NA
"","","","","","survey-multi-select",3,19123,"0.0-3.0","h5nofx51vd",29,10297,"",NA,"[0]",NA,"",NA,"","","",NA,NA,NA,"","","","",NA,NA
"","","","","","html-button-response",4,20837,"0.0-4.0","h5nofx51vd",29,1713,"Welcome! <p> This experiment involves two parts: demographic information, followed by the experimental task.<p> It will take about 30 minutes to complete both parts.",0.5,"",NA,"",NA,"","","",NA,NA,NA,"","","","",NA,NA
"","","","","","survey-text",5,34539,"0.0-5.0","h5nofx51vd",29,13696,"",NA,"",NA,"",NA,"","","",NA,NA,NA,"","","","",NA,NA
"","","","","","html-slider-response",6,43287,"0.0-6.0","h5nofx51vd",29,8745,"<div style='text-align:left; font-size:20px; line-height:25px; width: 1000px;'>
                                During this experiment you will be asked to rate how much you associate maps with                    different concepts.<br> Below, you can see some examples of the maps you will be asked to rate. Above the maps
                    is the list of concepts.<br>You will be asked                    to rate how much you associate each map with each concept on a scale from 'not at all' to 'very much' like the
                    one below. <br><br>
                    Now, please look at the list of concepts and maps. For each concept, think about the map you associate 'very
                    much' with the concept.<br>                     When you see that map during the experiment, please rate it near the 'very much' endpoint of the
                    scale.<br>Now, please think about which map you associate 'not at all'                     with each concept. When you see that map during the experiment, please rate it near the 'not at all' endpoint
                    of the scale.<br>
                    Please use the full range of the scale. That is, if a map is somewhat associated with the concept, you would
                    click partway between the middle point and right side of the scale.                    You will be asked to rate each map for a given concept before moving on to the next concept.<br>Press the
                    'Continue' button for instructions on how to use the slider.                    <br>
                </div>

                <div style=""width: 500px; margin: 0 auto;"">
                    <!-- Centered text paragraphs -->
                    <div style=""text-align: center; width: 500px;"">
                        <p style=""font-size:25px; line-height:15px;"">
                            disgust&nbsp;&nbsp;&nbsp;&nbsp;
                            happy&nbsp;&nbsp;&nbsp;&nbsp;
                            fearful&nbsp;&nbsp;&nbsp;&nbsp;
                            angry&nbsp;&nbsp;&nbsp;&nbsp;
                            sad
                        </p>
                        <!-- <p style=""font-size:20px; line-height:15px;"">happy</p>
                        <p style=""font-size:20px;line-height:15px;"">fearful</p>
                        <p style=""font-size:20px;line-height:15px;"">angry</p>
                        <p style=""font-size:20px;line-height:15px;"">sad</p> -->
                    </div>
            

                    <!-- Grid section -->
                   <div style=""display: flex; justify-content: center; padding-top: 15px;"">
                    <div style=""display: grid; grid-template-columns: repeat(10, 55px); grid-gap: 5px; width: auto;"">
                        <img src=""images/map15_OrRd_scaleDef_orientMir_270.png"" alt=""map"" style=""width: 100%;""><img src=""images/map07_managua_scaleDef_orientMir_090.png"" alt=""map"" style=""width: 100%;""><img src=""images/map02_RdBu_scaleRev_orientMir_180.png"" alt=""map"" style=""width: 100%;""><img src=""images/map27_PiYG_scaleDef_orientDef_270.png"" alt=""map"" style=""width: 100%;""><img src=""images/map15_Oranges_scaleRev_orientDef_000.png"" alt=""map"" style=""width: 100%;""><img src=""images/map07_seismic_scaleDef_orientDef_090.png"" alt=""map"" style=""width: 100%;""><img src=""images/map07_vanimo_scaleDef_orientMir_270.png"" alt=""map"" style=""width: 100%;""><img src=""images/map27_YlGn_scaleDef_orientDef_090.png"" alt=""map"" style=""width: 100%;""><img src=""images/map13_Blues_scaleRev_orientMir_000.png"" alt=""map"" style=""width: 100%;""><img src=""images/map07_berlin_scaleRev_orientMir_000.png"" alt=""map"" style=""width: 100%;""><img src=""images/map05_Spectral_scaleDef_orientDef_270.png"" alt=""map"" style=""width: 100%;""><img src=""images/map10_viridis_scaleRev_orientMir_180.png"" alt=""map"" style=""width: 100%;""><img src=""images/map05_coolwarm_scaleRev_orientMir_180.png"" alt=""map"" style=""width: 100%;""><img src=""images/map12_magma_scaleRev_orientMir_000.png"" alt=""map"" style=""width: 100%;""><img src=""images/map23_BuPu_scaleDef_orientMir_090.png"" alt=""map"" style=""width: 100%;""><img src=""images/map02_RdYlBu_scaleDef_orientMir_270.png"" alt=""map"" style=""width: 100%;""><img src=""images/map23_PuRd_scaleDef_orientDef_090.png"" alt=""map"" style=""width: 100%;""><img src=""images/map26_PuBuGn_scaleDef_orientMir_090.png"" alt=""map"" style=""width: 100%;""><img src=""images/map10_turbo_scaleRev_orientMir_000.png"" alt=""map"" style=""width: 100%;""><img src=""images/map23_RdPu_scaleDef_orientDef_270.png"" alt=""map"" style=""width: 100%;""><img src=""images/map13_Greens_scaleDef_orientMir_090.png"" alt=""map"" style=""width: 100%;""><img src=""images/map02_PuOr_scaleDef_orientDef_090.png"" alt=""map"" style=""width: 100%;""><img src=""images/map12_cividis_scaleDef_orientMir_090.png"" alt=""map"" style=""width: 100%;""><img src=""images/map12_plasma_scaleRev_orientDef_000.png"" alt=""map"" style=""width: 100%;""><img src=""images/map12_inferno_scaleDef_orientDef_090.png"" alt=""map"" style=""width: 100%;""><img src=""images/map27_BuGn_scaleRev_orientDef_000.png"" alt=""map"" style=""width: 100%;""><img src=""images/map26_PuBu_scaleRev_orientDef_180.png"" alt=""map"" style=""width: 100%;""><img src=""images/map15_Reds_scaleDef_orientDef_090.png"" alt=""map"" style=""width: 100%;""><img src=""images/map02_RdGy_scaleRev_orientMir_000.png"" alt=""map"" style=""width: 100%;""><img src=""images/map15_YlOrBr_scaleRev_orientMir_000.png"" alt=""map"" style=""width: 100%;""><img src=""images/map05_RdYlGn_scaleDef_orientDef_090.png"" alt=""map"" style=""width: 100%;""><img src=""images/map15_YlOrRd_scaleRev_orientMir_180.png"" alt=""map"" style=""width: 100%;""><img src=""images/map12_Greys_scaleDef_orientMir_270.png"" alt=""map"" style=""width: 100%;""><img src=""images/map26_GnBu_scaleRev_orientDef_000.png"" alt=""map"" style=""width: 100%;""><img src=""images/map05_bwr_scaleDef_orientMir_270.png"" alt=""map"" style=""width: 100%;""><img src=""images/map13_Purples_scaleDef_orientDef_090.png"" alt=""map"" style=""width: 100%;""><img src=""images/map27_PRGn_scaleRev_orientMir_180.png"" alt=""map"" style=""width: 100%;""><img src=""images/map02_BrBG_scaleRev_orientDef_000.png"" alt=""map"" style=""width: 100%;""><img src=""images/map10_gist_earth_scaleDef_orientDef_090.png"" alt=""map"" style=""width: 100%;""><img src=""images/map26_YlGnBu_scaleRev_orientMir_000.png"" alt=""map"" style=""width: 100%;"">
                    </div>
                </div>

                    <!-- Clear floats -->
                    <div style=""clear: both;""></div>
                </div>
                            ",NA,"",0,"true",NA,"","","",NA,NA,NA,"","","","",NA,NA
"","","","","","html-button-response",7,44387,"0.0-7.0","h5nofx51vd",29,1099,"<div style=""width:800px;""><p style=""text-align:left"">To move the slider, click and drag your cursor to the location of the scale where you would like to make your rating and then let go. When you let go of the slider, your response will be recorded and the next trial will begin. <br>
                    We are interested in your initial impressions of each map for the given concept, so please go with your first intuition. <br>
                    Before you begin the experiment, there will be four training trials for you to practice using the scale. <br>
                     When you are ready to start the training trials, please click ""Continue"".</p><br></div>",0.5,"",NA,"",NA,"","","",NA,NA,NA,"","","","",NA,NA
"","","","","","html-slider-response",8,47549,"0.0-8.0-0.0","h5nofx51vd",29,NA,"<div style=""width:500px;"">
                                    <p style=""font-size:25px;"">Please move the slider all the way to the <br> right endpoint of the scale</p>

                                    </div>
                                </div>",1,"",0,"true",0,"true","","",NA,NA,NA,"","","","",NA,NA
"","","","","","html-button-response",9,49103,"0.0-8.0-1.0","h5nofx51vd",29,1051,"<p align='center'><b>Good job!</b> Click on 'Continue' to proceed.</p>",0.5,"",NA,"",NA,"","","",NA,NA,NA,"","","","",NA,NA
"","","","","","html-slider-response",10,50799,"0.0-9.0-0.0","h5nofx51vd",29,NA,"<div style=""width:500px;"">
                                    <p style=""font-size:25px;"">Please move the slider all the way to the <br> left endpoint of the scale</p>

                                    </div>
                                </div>",0,"",0,"true",1,"true","","",NA,NA,NA,"","","","",NA,NA
"","","","","","html-button-response",11,52037,"0.0-9.0-1.0","h5nofx51vd",29,736,"<p align='center'><b>Good job!</b> Click on 'Continue' to proceed.</p>",0.5,"",NA,"",NA,"","","",NA,NA,NA,"","","","",NA,NA
"","","","","","html-slider-response",12,56582,"0.0-10.0-0.0","h5nofx51vd",29,NA,"<div style=""width:500px;"">
                                    <p style=""font-size:25px;"">Please move the slider halfway between the center and right endpoint of the scale</p>

                                    </div>
                                </div>",0.5025,"",0,"true",2,"false","","",NA,NA,NA,"","","","",NA,NA
"","","","","","html-button-response",13,61320,"0.0-10.0-1.0","h5nofx51vd",29,4235,"<p align='center'><b>Not quite!</b> The slider was not placed near the instructed located. Click on 'Continue' to try again. </p>",0.5,"",NA,"",NA,"","","",NA,NA,NA,"","","","",NA,NA
"","","","","","html-slider-response",14,67367,"0.0-10.1-0.1","h5nofx51vd",29,NA,"<div style=""width:500px;"">
                                    <p style=""font-size:25px;"">Please move the slider halfway between the center and right endpoint of the scale</p>

                                    </div>
                                </div>",0.7675,"",0,"true",2,"true","","",NA,NA,NA,"","","","",NA,NA
"","","","","","html-button-response",15,68637,"0.0-10.1-1.1","h5nofx51vd",29,768,"<p align='center'><b>Good job!</b> Click on 'Continue' to proceed.</p>",0.5,"",NA,"",NA,"","","",NA,NA,NA,"","","","",NA,NA
"","","","","","html-slider-response",16,71982,"0.0-11.0-0.0","h5nofx51vd",29,NA,"<div style=""width:500px;"">
                                    <p style=""font-size:25px;"">Please move the slider halfway between the center and left endpoint of the scale</p>

                                    </div>
                                </div>",0.215,"",0,"true",3,"false","","",NA,NA,NA,"","","","",NA,NA
"","","","","","html-button-response",17,73403,"0.0-11.0-1.0","h5nofx51vd",29,919,"<p align='center'><b>Not quite!</b> The slider was not placed near the instructed located. Click on 'Continue' to try again. </p>",0.5,"",NA,"",NA,"","","",NA,NA,NA,"","","","",NA,NA
"","","","","","html-slider-response",18,76764,"0.0-11.1-0.1","h5nofx51vd",29,NA,"<div style=""width:500px;"">
                                    <p style=""font-size:25px;"">Please move the slider halfway between the center and left endpoint of the scale</p>

                                    </div>
                                </div>",0.235,"",0,"true",3,"true","","",NA,NA,NA,"","","","",NA,NA
"","","","","","html-button-response",19,78037,"0.0-11.1-1.1","h5nofx51vd",29,771,"<p align='center'><b>Good job!</b> Click on 'Continue' to proceed.</p>",0.5,"",NA,"",NA,"","","",NA,NA,NA,"","","","",NA,NA
"","","","","","html-button-response",20,79453,"0.0-12.0","h5nofx51vd",29,1416,"<p>Great job! You've completed the practice trials. Now you will begin the main task.</p>",0.5,"",NA,"",NA,"","","",NA,NA,NA,"","","","",NA,NA
"","","","","","html-button-response",21,82103,"0.0-13.0","h5nofx51vd",29,2649,"<p>In this block of trials, you will be asked to rate how much you associate each map with:</p > <p style = 'font-size:150%; font-weight: bold'>disgust</p><br></br>",0.5,"",NA,"",NA,"","","",NA,NA,NA,"","","","",NA,NA
"","","","","","html-slider-response",22,86415,"0.0-14.0","h5nofx51vd",29,NA,"<div style=""width:500px;"">
                            <p style=""font-size:50px; font-weight:bold;""
                            >disgust</p>
                            <div style=""width:240px; margin: auto;"">
                                <img src=""images/map05_RdYlBu_scaleRev_orientDef_000.png"" style= ""width:200px""alt=""img"">
                            </div>
                        </div>",0.325,"",0,"",NA,"","images/map05_RdYlBu_scaleRev_orientDef_000.png","disgust",1,5,5,"RdYlBu","orientDef","scaleRev","000",NA,NA
"","","","","","html-slider-response",23,88881,"0.0-15.0","h5nofx51vd",29,NA,"<div style=""width:500px;"">
                            <p style=""font-size:50px; font-weight:bold;""
                            >disgust</p>
                            <div style=""width:240px; margin: auto;"">
                                <img src=""images/map07_berlin_scaleRev_orientMir_000.png"" style= ""width:200px""alt=""img"">
                            </div>
                        </div>",0.09,"",0,"",NA,"","images/map07_berlin_scaleRev_orientMir_000.png","disgust",1,7,7,"berlin","orientMir","scaleRev","000",NA,NA
"","","","","","html-slider-response",24,91048,"0.0-16.0","h5nofx51vd",29,NA,"<div style=""width:500px;"">
                            <p style=""font-size:50px; font-weight:bold;""
                            >disgust</p>
                            <div style=""width:240px; margin: auto;"">
                                <img src=""images/map12_cividis_scaleDef_orientMir_090.png"" style= ""width:200px""alt=""img"">
                            </div>
                        </div>",0.1725,"",0,"",NA,"","images/map12_cividis_scaleDef_orientMir_090.png","disgust",1,12,12,"cividis","orientMir","scaleDef","090",NA,NA
"","","","","","html-slider-response",25,94915,"0.0-17.0","h5nofx51vd",29,NA,"<div style=""width:500px;"">
                            <p style=""font-size:50px; font-weight:bold;""
                            >disgust</p>
                            <div style=""width:240px; margin: auto;"">
                                <img src=""images/map27_BrBG_scaleDef_orientMir_270.png"" style= ""width:200px""alt=""img"">
                            </div>
                        </div>",0.555,"",0,"",NA,"","images/map27_BrBG_scaleDef_orientMir_270.png","disgust",1,27,27,"BrBG","orientMir","scaleDef","270",NA,NA
"","","","","","html-slider-response",26,97048,"0.0-18.0","h5nofx51vd",29,NA,"<div style=""width:500px;"">
                            <p style=""font-size:50px; font-weight:bold;""
                            >disgust</p>
                            <div style=""width:240px; margin: auto;"">
                                <img src=""images/map10_viridis_scaleDef_orientMir_090.png"" style= ""width:200px""alt=""img"">
                            </div>
                        </div>",0.865,"",0,"",NA,"","images/map10_viridis_scaleDef_orientMir_090.png","disgust",1,10,10,"viridis","orientMir","scaleDef","090",NA,NA
"","","","","","html-slider-response",27,99431,"0.0-19.0","h5nofx51vd",29,NA,"<div style=""width:500px;"">
                            <p style=""font-size:50px; font-weight:bold;""
                            >disgust</p>
                            <div style=""width:240px; margin: auto;"">
                                <img src=""images/map05_Spectral_scaleDef_orientDef_270.png"" style= ""width:200px""alt=""img"">
                            </div>
                        </div>",0.3975,"",0,"",NA,"","images/map05_Spectral_scaleDef_orientDef_270.png","disgust",1,5,5,"Spectral","orientDef","scaleDef","270",NA,NA
"","","","","","html-slider-response",28,102183,"0.0-20.0","h5nofx51vd",29,NA,"<div style=""width:500px;"">
                            <p style=""font-size:50px; font-weight:bold;""
                            >disgust</p>
                            <div style=""width:240px; margin: auto;"">
                                <img src=""images/map27_BuGn_scaleRev_orientDef_000.png"" style= ""width:200px""alt=""img"">
                            </div>
                        </div>",1,"",0,"",NA,"","images/map27_BuGn_scaleRev_orientDef_000.png","disgust",1,27,27,"BuGn","orientDef","scaleRev","000",NA,NA
"","","","","","html-slider-response",29,104314,"0.0-21.0","h5nofx51vd",29,NA,"<div style=""width:500px;"">
                            <p style=""font-size:50px; font-weight:bold;""
                            >disgust</p>
                            <div style=""width:240px; margin: auto;"">
                                <img src=""images/map27_PRGn_scaleRev_orientMir_180.png"" style= ""width:200px""alt=""img"">
                            </div>
                        </div>",1,"",0,"",NA,"","images/map27_PRGn_scaleRev_orientMir_180.png","disgust",1,27,27,"PRGn","orientMir","scaleRev","180",NA,NA
"","","","","","html-slider-response",30,106516,"0.0-22.0","h5nofx51vd",29,NA,"<div style=""width:500px;"">
                            <p style=""font-size:50px; font-weight:bold;""
                            >disgust</p>
                            <div style=""width:240px; margin: auto;"">
                                <img src=""images/map12_inferno_scaleRev_orientDef_180.png"" style= ""width:200px""alt=""img"">
                            </div>
                        </div>",0.2175,"",0,"",NA,"","images/map12_inferno_scaleRev_orientDef_180.png","disgust",1,12,12,"inferno","orientDef","scaleRev","180",NA,NA
"","","","","","html-slider-response",31,108681,"0.0-23.0","h5nofx51vd",29,NA,"<div style=""width:500px;"">
                            <p style=""font-size:50px; font-weight:bold;""
                            >disgust</p>
                            <div style=""width:240px; margin: auto;"">
                                <img src=""images/map12_cividis_scaleRev_orientMir_180.png"" style= ""width:200px""alt=""img"">
                            </div>
                        </div>",0.3625,"",0,"",NA,"","images/map12_cividis_scaleRev_orientMir_180.png","disgust",1,12,12,"cividis","orientMir","scaleRev","180",NA,NA
"","","","","","html-slider-response",32,110615,"0.0-24.0","h5nofx51vd",29,NA,"<div style=""width:500px;"">
                            <p style=""font-size:50px; font-weight:bold;""
                            >disgust</p>
                            <div style=""width:240px; margin: auto;"">
                                <img src=""images/map12_inferno_scaleDef_orientDef_090.png"" style= ""width:200px""alt=""img"">
                            </div>
                        </div>",0.4025,"",0,"",NA,"","images/map12_inferno_scaleDef_orientDef_090.png","disgust",1,12,12,"inferno","orientDef","scaleDef","090",NA,NA
"","","","","","html-slider-response",33,112847,"0.0-25.0","h5nofx51vd",29,NA,"<div style=""width:500px;"">
                            <p style=""font-size:50px; font-weight:bold;""
                            >disgust</p>
                            <div style=""width:240px; margin: auto;"">
                                <img src=""images/map23_OrRd_scaleRev_orientDef_000.png"" style= ""width:200px""alt=""img"">
                            </div>
                        </div>",0.675,"",0,"",NA,"","images/map23_OrRd_scaleRev_orientDef_000.png","disgust",1,23,23,"OrRd","orientDef","scaleRev","000",NA,NA
"","","","","","html-slider-response",34,115198,"0.0-26.0","h5nofx51vd",29,NA,"<div style=""width:500px;"">
                            <p style=""font-size:50px; font-weight:bold;""
                            >disgust</p>
                            <div style=""width:240px; margin: auto;"">
                                <img src=""images/map05_coolwarm_scaleDef_orientMir_090.png"" style= ""width:200px""alt=""img"">
                            </div>
                        </div>",0.2525,"",0,"",NA,"","images/map05_coolwarm_scaleDef_orientMir_090.png","disgust",1,5,5,"coolwarm","orientMir","scaleDef","090",NA,NA
"","","","","","html-slider-response",35,117281,"0.0-27.0","h5nofx51vd",29,NA,"<div style=""width:500px;"">
                            <p style=""font-size:50px; font-weight:bold;""
                            >disgust</p>
                            <div style=""width:240px; margin: auto;"">
                                <img src=""images/map15_Reds_scaleDef_orientDef_090.png"" style= ""width:200px""alt=""img"">
                            </div>
                        </div>",0.1525,"",0,"",NA,"","images/map15_Reds_scaleDef_orientDef_090.png","disgust",1,15,15,"Reds","orientDef","scaleDef","090",NA,NA
"","","","","","html-slider-response",36,119197,"0.0-28.0","h5nofx51vd",29,NA,"<div style=""width:500px;"">
                            <p style=""font-size:50px; font-weight:bold;""
                            >disgust</p>
                            <div style=""width:240px; margin: auto;"">
                                <img src=""images/map07_managua_scaleDef_orientMir_090.png"" style= ""width:200px""alt=""img"">
                            </div>
                        </div>",0.38,"",0,"",NA,"","images/map07_managua_scaleDef_orientMir_090.png","disgust",1,7,7,"managua","orientMir","scaleDef","090",NA,NA
"","","","","","html-slider-response",37,121381,"0.0-29.0","h5nofx51vd",29,NA,"<div style=""width:500px;"">
                            <p style=""font-size:50px; font-weight:bold;""
                            >disgust</p>
                            <div style=""width:240px; margin: auto;"">
                                <img src=""images/map07_seismic_scaleRev_orientDef_180.png"" style= ""width:200px""alt=""img"">
                            </div>
                        </div>",0.6675,"",0,"",NA,"","images/map07_seismic_scaleRev_orientDef_180.png","disgust",1,7,7,"seismic","orientDef","scaleRev","180",NA,NA
"","","","","","html-slider-response",38,123347,"0.0-30.0","h5nofx51vd",29,NA,"<div style=""width:500px;"">
                            <p style=""font-size:50px; font-weight:bold;""
                            >disgust</p>
                            <div style=""width:240px; margin: auto;"">
                                <img src=""images/map12_plasma_scaleRev_orientDef_000.png"" style= ""width:200px""alt=""img"">
                            </div>
                        </div>",0.38,"",0,"",NA,"","images/map12_plasma_scaleRev_orientDef_000.png","disgust",1,12,12,"plasma","orientDef","scaleRev","000",NA,NA
"","","","","","html-slider-response",39,125432,"0.0-31.0","h5nofx51vd",29,NA,"<div style=""width:500px;"">
                            <p style=""font-size:50px; font-weight:bold;""
                            >disgust</p>
                            <div style=""width:240px; margin: auto;"">
                                <img src=""images/map13_Blues_scaleRev_orientMir_000.png"" style= ""width:200px""alt=""img"">
                            </div>
                        </div>",0,"",0,"",NA,"","images/map13_Blues_scaleRev_orientMir_000.png","disgust",1,13,13,"Blues","orientMir","scaleRev","000",NA,NA
"","","","","","html-slider-response",40,127548,"0.0-32.0","h5nofx51vd",29,NA,"<div style=""width:500px;"">
                            <p style=""font-size:50px; font-weight:bold;""
                            >disgust</p>
                            <div style=""width:240px; margin: auto;"">
                                <img src=""images/map10_viridis_scaleRev_orientMir_180.png"" style= ""width:200px""alt=""img"">
                            </div>
                        </div>",0.75,"",0,"",NA,"","images/map10_viridis_scaleRev_orientMir_180.png","disgust",1,10,10,"viridis","orientMir","scaleRev","180",NA,NA
"","","","","","html-slider-response",41,129580,"0.0-33.0","h5nofx51vd",29,NA,"<div style=""width:500px;"">
                            <p style=""font-size:50px; font-weight:bold;""
                            >disgust</p>
                            <div style=""width:240px; margin: auto;"">
                                <img src=""images/map23_RdPu_scaleRev_orientMir_000.png"" style= ""width:200px""alt=""img"">
                            </div>
                        </div>",0.735,"",0,"",NA,"","images/map23_RdPu_scaleRev_orientMir_000.png","disgust",1,23,23,"RdPu","orientMir","scaleRev","000",NA,NA
"","","","","","html-slider-response",42,132099,"0.0-34.0","h5nofx51vd",29,NA,"<div style=""width:500px;"">
                            <p style=""font-size:50px; font-weight:bold;""
                            >disgust</p>
                            <div style=""width:240px; margin: auto;"">
                                <img src=""images/map02_PuOr_scaleRev_orientDef_180.png"" style= ""width:200px""alt=""img"">
                            </div>
                        </div>",0.5625,"",0,"",NA,"","images/map02_PuOr_scaleRev_orientDef_180.png","disgust",1,2,2,"PuOr","orientDef","scaleRev","180",NA,NA
"","","","","","html-slider-response",43,134097,"0.0-35.0","h5nofx51vd",29,NA,"<div style=""width:500px;"">
                            <p style=""font-size:50px; font-weight:bold;""
                            >disgust</p>
                            <div style=""width:240px; margin: auto;"">
                                <img src=""images/map26_PuBu_scaleRev_orientDef_180.png"" style= ""width:200px""alt=""img"">
                            </div>
                        </div>",0,"",0,"",NA,"","images/map26_PuBu_scaleRev_orientDef_180.png","disgust",1,26,26,"PuBu","orientDef","scaleRev","180",NA,NA
"","","","","","html-slider-response",44,135966,"0.0-36.0","h5nofx51vd",29,NA,"<div style=""width:500px;"">
                            <p style=""font-size:50px; font-weight:bold;""
                            >disgust</p>
                            <div style=""width:240px; margin: auto;"">
                                <img src=""images/map15_YlOrBr_scaleRev_orientMir_000.png"" style= ""width:200px""alt=""img"">
                            </div>
                        </div>",0,"",0,"",NA,"","images/map15_YlOrBr_scaleRev_orientMir_000.png","disgust",1,15,15,"YlOrBr","orientMir","scaleRev","000",NA,NA
"","","","","","html-slider-response",45,138297,"0.0-37.0","h5nofx51vd",29,NA,"<div style=""width:500px;"">
                            <p style=""font-size:50px; font-weight:bold;""
                            >disgust</p>
                            <div style=""width:240px; margin: auto;"">
                                <img src=""images/map27_PiYG_scaleDef_orientDef_270.png"" style= ""width:200px""alt=""img"">
                            </div>
                        </div>",0.9025,"",0,"",NA,"","images/map27_PiYG_scaleDef_orientDef_270.png","disgust",1,27,27,"PiYG","orientDef","scaleDef","270",NA,NA
"","","","","","html-slider-response",46,140531,"0.0-38.0","h5nofx51vd",29,NA,"<div style=""width:500px;"">
                            <p style=""font-size:50px; font-weight:bold;""
                            >disgust</p>
                            <div style=""width:240px; margin: auto;"">
                                <img src=""images/map10_vanimo_scaleRev_orientDef_000.png"" style= ""width:200px""alt=""img"">
                            </div>
                        </div>",1,"",0,"",NA,"","images/map10_vanimo_scaleRev_orientDef_000.png","disgust",1,10,10,"vanimo","orientDef","scaleRev","000",NA,NA
"","","","","","html-slider-response",47,142564,"0.0-39.0","h5nofx51vd",29,NA,"<div style=""width:500px;"">
                            <p style=""font-size:50px; font-weight:bold;""
                            >disgust</p>
                            <div style=""width:240px; margin: auto;"">
                                <img src=""images/map05_coolwarm_scaleRev_orientMir_180.png"" style= ""width:200px""alt=""img"">
                            </div>
                        </div>",0.305,"",0,"",NA,"","images/map05_coolwarm_scaleRev_orientMir_180.png","disgust",1,5,5,"coolwarm","orientMir","scaleRev","180",NA,NA
"","","","","","html-slider-response",48,144783,"0.0-40.0","h5nofx51vd",29,NA,"<div style=""width:500px;"">
                            <p style=""font-size:50px; font-weight:bold;""
                            >disgust</p>
                            <div style=""width:240px; margin: auto;"">
                                <img src=""images/map23_GnBu_scaleDef_orientMir_270.png"" style= ""width:200px""alt=""img"">
                            </div>
                        </div>",0,"",0,"",NA,"","images/map23_GnBu_scaleDef_orientMir_270.png","disgust",1,23,23,"GnBu","orientMir","scaleDef","270",NA,NA
"","","","","","html-slider-response",49,146666,"0.0-41.0","h5nofx51vd",29,NA,"<div style=""width:500px;"">
                            <p style=""font-size:50px; font-weight:bold;""
                            >disgust</p>
                            <div style=""width:240px; margin: auto;"">
                                <img src=""images/map02_BrBG_scaleRev_orientDef_000.png"" style= ""width:200px""alt=""img"">
                            </div>
                        </div>",0.545,"",0,"",NA,"","images/map02_BrBG_scaleRev_orientDef_000.png","disgust",1,2,2,"BrBG","orientDef","scaleRev","000",NA,NA
"","","","","","html-slider-response",50,149082,"0.0-42.0","h5nofx51vd",29,NA,"<div style=""width:500px;"">
                            <p style=""font-size:50px; font-weight:bold;""
                            >disgust</p>
                            <div style=""width:240px; margin: auto;"">
                                <img src=""images/map07_bwr_scaleRev_orientDef_000.png"" style= ""width:200px""alt=""img"">
                            </div>
                        </div>",0.38,"",0,"",NA,"","images/map07_bwr_scaleRev_orientDef_000.png","disgust",1,7,7,"bwr","orientDef","scaleRev","000",NA,NA
"","","","","","html-slider-response",51,151346,"0.0-43.0","h5nofx51vd",29,NA,"<div style=""width:500px;"">
                            <p style=""font-size:50px; font-weight:bold;""
                            >disgust</p>
                            <div style=""width:240px; margin: auto;"">
                                <img src=""images/map23_RdPu_scaleDef_orientDef_270.png"" style= ""width:200px""alt=""img"">
                            </div>
                        </div>",0.29,"",0,"",NA,"","images/map23_RdPu_scaleDef_orientDef_270.png","disgust",1,23,23,"RdPu","orientDef","scaleDef","270",NA,NA
"","","","","","html-slider-response",52,153565,"0.0-44.0","h5nofx51vd",29,NA,"<div style=""width:500px;"">
                            <p style=""font-size:50px; font-weight:bold;""
                            >disgust</p>
                            <div style=""width:240px; margin: auto;"">
                                <img src=""images/map15_OrRd_scaleDef_orientMir_270.png"" style= ""width:200px""alt=""img"">
                            </div>
                        </div>",0.0675,"",0,"",NA,"","images/map15_OrRd_scaleDef_orientMir_270.png","disgust",1,15,15,"OrRd","orientMir","scaleDef","270",NA,NA
"","","","","","html-slider-response",53,155533,"0.0-45.0","h5nofx51vd",29,NA,"<div style=""width:500px;"">
                            <p style=""font-size:50px; font-weight:bold;""
                            >disgust</p>
                            <div style=""width:240px; margin: auto;"">
                                <img src=""images/map23_PuRd_scaleRev_orientDef_180.png"" style= ""width:200px""alt=""img"">
                            </div>
                        </div>",0,"",0,"",NA,"","images/map23_PuRd_scaleRev_orientDef_180.png","disgust",1,23,23,"PuRd","orientDef","scaleRev","180",NA,NA
"","","","","","html-slider-response",54,157480,"0.0-46.0","h5nofx51vd",29,NA,"<div style=""width:500px;"">
                            <p style=""font-size:50px; font-weight:bold;""
                            >disgust</p>
                            <div style=""width:240px; margin: auto;"">
                                <img src=""images/map27_YlGn_scaleRev_orientDef_180.png"" style= ""width:200px""alt=""img"">
                            </div>
                        </div>",1,"",0,"",NA,"","images/map27_YlGn_scaleRev_orientDef_180.png","disgust",1,27,27,"YlGn","orientDef","scaleRev","180",NA,NA
"","","","","","html-slider-response",55,159181,"0.0-47.0","h5nofx51vd",29,NA,"<div style=""width:500px;"">
                            <p style=""font-size:50px; font-weight:bold;""
                            >disgust</p>
                            <div style=""width:240px; margin: auto;"">
                                <img src=""images/map12_magma_scaleDef_orientDef_270.png"" style= ""width:200px""alt=""img"">
                            </div>
                        </div>",0.505,"",0,"",NA,"","images/map12_magma_scaleDef_orientDef_270.png","disgust",1,12,12,"magma","orientDef","scaleDef","270",NA,NA
"","","","","","html-slider-response",56,160946,"0.0-48.0","h5nofx51vd",29,NA,"<div style=""width:500px;"">
                            <p style=""font-size:50px; font-weight:bold;""
                            >disgust</p>
                            <div style=""width:240px; margin: auto;"">
                                <img src=""images/map10_gist_earth_scaleRev_orientDef_180.png"" style= ""width:200px""alt=""img"">
                            </div>
                        </div>",0.7425,"",0,"",NA,"","images/map10_gist_earth_scaleRev_orientDef_180.png","disgust",1,10,10,"gist","scaleRev","earth","orientDef",NA,NA
"","","","","","html-slider-response",57,163216,"0.0-49.0","h5nofx51vd",29,NA,"<div style=""width:500px;"">
                            <p style=""font-size:50px; font-weight:bold;""
                            >disgust</p>
                            <div style=""width:240px; margin: auto;"">
                                <img src=""images/map12_Greys_scaleDef_orientMir_270.png"" style= ""width:200px""alt=""img"">
                            </div>
                        </div>",0.2075,"",0,"",NA,"","images/map12_Greys_scaleDef_orientMir_270.png","disgust",1,12,12,"Greys","orientMir","scaleDef","270",NA,NA
"","","","","","html-slider-response",58,165214,"0.0-50.0","h5nofx51vd",29,NA,"<div style=""width:500px;"">
                            <p style=""font-size:50px; font-weight:bold;""
                            >disgust</p>
                            <div style=""width:240px; margin: auto;"">
                                <img src=""images/map05_RdYlGn_scaleDef_orientDef_090.png"" style= ""width:200px""alt=""img"">
                            </div>
                        </div>",0.72,"",0,"",NA,"","images/map05_RdYlGn_scaleDef_orientDef_090.png","disgust",1,5,5,"RdYlGn","orientDef","scaleDef","090",NA,NA
"","","","","","html-slider-response",59,167383,"0.0-51.0","h5nofx51vd",29,NA,"<div style=""width:500px;"">
                            <p style=""font-size:50px; font-weight:bold;""
                            >disgust</p>
                            <div style=""width:240px; margin: auto;"">
                                <img src=""images/map15_YlOrRd_scaleDef_orientMir_090.png"" style= ""width:200px""alt=""img"">
                            </div>
                        </div>",0.1725,"",0,"",NA,"","images/map15_YlOrRd_scaleDef_orientMir_090.png","disgust",1,15,15,"YlOrRd","orientMir","scaleDef","090",NA,NA
"","","","","","html-slider-response",60,169713,"0.0-52.0","h5nofx51vd",29,NA,"<div style=""width:500px;"">
                            <p style=""font-size:50px; font-weight:bold;""
                            >disgust</p>
                            <div style=""width:240px; margin: auto;"">
                                <img src=""images/map02_RdBu_scaleDef_orientMir_090.png"" style= ""width:200px""alt=""img"">
                            </div>
                        </div>",0.4075,"",0,"",NA,"","images/map02_RdBu_scaleDef_orientMir_090.png","disgust",1,2,2,"RdBu","orientMir","scaleDef","090",NA,NA
"","","","","","html-slider-response",61,171781,"0.0-53.0","h5nofx51vd",29,NA,"<div style=""width:500px;"">
                            <p style=""font-size:50px; font-weight:bold;""
                            >disgust</p>
                            <div style=""width:240px; margin: auto;"">
                                <img src=""images/map13_Greens_scaleRev_orientMir_180.png"" style= ""width:200px""alt=""img"">
                            </div>
                        </div>",1,"",0,"",NA,"","images/map13_Greens_scaleRev_orientMir_180.png","disgust",1,13,13,"Greens","orientMir","scaleRev","180",NA,NA
"","","","","","html-button-response",62,174919,"0.0-54.0","h5nofx51vd",29,2636,"<p>You are doing great!<br></br> You are halway done with the current block. When you are ready to continue, click the 'Continue' button.</p>",0.5,"",NA,"",NA,"","","",NA,NA,NA,"","","","",NA,NA
"","","","","","html-slider-response",63,176613,"0.0-55.0","h5nofx51vd",29,NA,"<div style=""width:500px;"">
                            <p style=""font-size:50px; font-weight:bold;""
                            >disgust</p>
                            <div style=""width:240px; margin: auto;"">
                                <img src=""images/map27_YlGn_scaleDef_orientDef_090.png"" style= ""width:200px""alt=""img"">
                            </div>
                        </div>",1,"",0,"",NA,"","images/map27_YlGn_scaleDef_orientDef_090.png","disgust",1,27,27,"YlGn","orientDef","scaleDef","090",NA,NA
"","","","","","html-slider-response",64,178916,"0.0-56.0","h5nofx51vd",29,NA,"<div style=""width:500px;"">
                            <p style=""font-size:50px; font-weight:bold;""
                            >disgust</p>
                            <div style=""width:240px; margin: auto;"">
                                <img src=""images/map15_YlOrBr_scaleDef_orientDef_270.png"" style= ""width:200px""alt=""img"">
                            </div>
                        </div>",0.235,"",0,"",NA,"","images/map15_YlOrBr_scaleDef_orientDef_270.png","disgust",1,15,15,"YlOrBr","orientDef","scaleDef","270",NA,NA
"","","","","","html-slider-response",65,180931,"0.0-57.0","h5nofx51vd",29,NA,"<div style=""width:500px;"">
                            <p style=""font-size:50px; font-weight:bold;""
                            >disgust</p>
                            <div style=""width:240px; margin: auto;"">
                                <img src=""images/map15_Oranges_scaleRev_orientDef_000.png"" style= ""width:200px""alt=""img"">
                            </div>
                        </div>",0.245,"",0,"",NA,"","images/map15_Oranges_scaleRev_orientDef_000.png","disgust",1,15,15,"Oranges","orientDef","scaleRev","000",NA,NA
"","","","","","html-slider-response",66,183215,"0.0-58.0","h5nofx51vd",29,NA,"<div style=""width:500px;"">
                            <p style=""font-size:50px; font-weight:bold;""
                            >disgust</p>
                            <div style=""width:240px; margin: auto;"">
                                <img src=""images/map10_gist_earth_scaleDef_orientDef_090.png"" style= ""width:200px""alt=""img"">
                            </div>
                        </div>",0.76,"",0,"",NA,"","images/map10_gist_earth_scaleDef_orientDef_090.png","disgust",1,10,10,"gist","scaleDef","earth","orientDef",NA,NA
"","","","","","html-slider-response",67,185563,"0.0-59.0","h5nofx51vd",29,NA,"<div style=""width:500px;"">
                            <p style=""font-size:50px; font-weight:bold;""
                            >disgust</p>
                            <div style=""width:240px; margin: auto;"">
                                <img src=""images/map26_GnBu_scaleRev_orientDef_000.png"" style= ""width:200px""alt=""img"">
                            </div>
                        </div>",0,"",0,"",NA,"","images/map26_GnBu_scaleRev_orientDef_000.png","disgust",1,26,26,"GnBu","orientDef","scaleRev","000",NA,NA
"","","","","","html-slider-response",68,187282,"0.0-60.0","h5nofx51vd",29,NA,"<div style=""width:500px;"">
                            <p style=""font-size:50px; font-weight:bold;""
                            >disgust</p>
                            <div style=""width:240px; margin: auto;"">
                                <img src=""images/map13_Greens_scaleDef_orientMir_090.png"" style= ""width:200px""alt=""img"">
                            </div>
                        </div>",1,"",0,"",NA,"","images/map13_Greens_scaleDef_orientMir_090.png","disgust",1,13,13,"Greens","orientMir","scaleDef","090",NA,NA
"","","","","","html-slider-response",69,188981,"0.0-61.0","h5nofx51vd",29,NA,"<div style=""width:500px;"">
                            <p style=""font-size:50px; font-weight:bold;""
                            >disgust</p>
                            <div style=""width:240px; margin: auto;"">
                                <img src=""images/map10_plasma_scaleDef_orientMir_270.png"" style= ""width:200px""alt=""img"">
                            </div>
                        </div>",0.28,"",0,"",NA,"","images/map10_plasma_scaleDef_orientMir_270.png","disgust",1,10,10,"plasma","orientMir","scaleDef","270",NA,NA
"","","","","","html-slider-response",70,190797,"0.0-62.0","h5nofx51vd",29,NA,"<div style=""width:500px;"">
                            <p style=""font-size:50px; font-weight:bold;""
                            >disgust</p>
                            <div style=""width:240px; margin: auto;"">
                                <img src=""images/map26_BuGn_scaleDef_orientMir_270.png"" style= ""width:200px""alt=""img"">
                            </div>
                        </div>",0.795,"",0,"",NA,"","images/map26_BuGn_scaleDef_orientMir_270.png","disgust",1,26,26,"BuGn","orientMir","scaleDef","270",NA,NA
"","","","","","html-slider-response",71,192481,"0.0-63.0","h5nofx51vd",29,NA,"<div style=""width:500px;"">
                            <p style=""font-size:50px; font-weight:bold;""
                            >disgust</p>
                            <div style=""width:240px; margin: auto;"">
                                <img src=""images/map02_PuOr_scaleDef_orientDef_090.png"" style= ""width:200px""alt=""img"">
                            </div>
                        </div>",0.4225,"",0,"",NA,"","images/map02_PuOr_scaleDef_orientDef_090.png","disgust",1,2,2,"PuOr","orientDef","scaleDef","090",NA,NA
"","","","","","html-slider-response",72,194298,"0.0-64.0","h5nofx51vd",29,NA,"<div style=""width:500px;"">
                            <p style=""font-size:50px; font-weight:bold;""
                            >disgust</p>
                            <div style=""width:240px; margin: auto;"">
                                <img src=""images/map13_Purples_scaleRev_orientDef_180.png"" style= ""width:200px""alt=""img"">
                            </div>
                        </div>",0.6225,"",0,"",NA,"","images/map13_Purples_scaleRev_orientDef_180.png","disgust",1,13,13,"Purples","orientDef","scaleRev","180",NA,NA
"","","","","","html-slider-response",73,195880,"0.0-65.0","h5nofx51vd",29,NA,"<div style=""width:500px;"">
                            <p style=""font-size:50px; font-weight:bold;""
                            >disgust</p>
                            <div style=""width:240px; margin: auto;"">
                                <img src=""images/map07_berlin_scaleDef_orientDef_270.png"" style= ""width:200px""alt=""img"">
                            </div>
                        </div>",0.335,"",0,"",NA,"","images/map07_berlin_scaleDef_orientDef_270.png","disgust",1,7,7,"berlin","orientDef","scaleDef","270",NA,NA
"","","","","","html-slider-response",74,197297,"0.0-66.0","h5nofx51vd",29,NA,"<div style=""width:500px;"">
                            <p style=""font-size:50px; font-weight:bold;""
                            >disgust</p>
                            <div style=""width:240px; margin: auto;"">
                                <img src=""images/map13_Blues_scaleDef_orientDef_270.png"" style= ""width:200px""alt=""img"">
                            </div>
                        </div>",0.53,"",0,"",NA,"","images/map13_Blues_scaleDef_orientDef_270.png","disgust",1,13,13,"Blues","orientDef","scaleDef","270",NA,NA
"","","","","","html-slider-response",75,199330,"0.0-67.0","h5nofx51vd",29,NA,"<div style=""width:500px;"">
                            <p style=""font-size:50px; font-weight:bold;""
                            >disgust</p>
                            <div style=""width:240px; margin: auto;"">
                                <img src=""images/map02_RdGy_scaleDef_orientDef_270.png"" style= ""width:200px""alt=""img"">
                            </div>
                        </div>",0.1,"",0,"",NA,"","images/map02_RdGy_scaleDef_orientDef_270.png","disgust",1,2,2,"RdGy","orientDef","scaleDef","270",NA,NA
"","","","","","html-slider-response",76,200813,"0.0-68.0","h5nofx51vd",29,NA,"<div style=""width:500px;"">
                            <p style=""font-size:50px; font-weight:bold;""
                            >disgust</p>
                            <div style=""width:240px; margin: auto;"">
                                <img src=""images/map15_YlOrRd_scaleRev_orientMir_180.png"" style= ""width:200px""alt=""img"">
                            </div>
                        </div>",0.38,"",0,"",NA,"","images/map15_YlOrRd_scaleRev_orientMir_180.png","disgust",1,15,15,"YlOrRd","orientMir","scaleRev","180",NA,NA
"","","","","","html-slider-response",77,202714,"0.0-69.0","h5nofx51vd",29,NA,"<div style=""width:500px;"">
                            <p style=""font-size:50px; font-weight:bold;""
                            >disgust</p>
                            <div style=""width:240px; margin: auto;"">
                                <img src=""images/map15_Reds_scaleRev_orientDef_180.png"" style= ""width:200px""alt=""img"">
                            </div>
                        </div>",0,"",0,"",NA,"","images/map15_Reds_scaleRev_orientDef_180.png","disgust",1,15,15,"Reds","orientDef","scaleRev","180",NA,NA
"","","","","","html-slider-response",78,204546,"0.0-70.0","h5nofx51vd",29,NA,"<div style=""width:500px;"">
                            <p style=""font-size:50px; font-weight:bold;""
                            >disgust</p>
                            <div style=""width:240px; margin: auto;"">
                                <img src=""images/map27_PRGn_scaleDef_orientMir_090.png"" style= ""width:200px""alt=""img"">
                            </div>
                        </div>",0.8975,"",0,"",NA,"","images/map27_PRGn_scaleDef_orientMir_090.png","disgust",1,27,27,"PRGn","orientMir","scaleDef","090",NA,NA
"","","","","","html-slider-response",79,206497,"0.0-71.0","h5nofx51vd",29,NA,"<div style=""width:500px;"">
                            <p style=""font-size:50px; font-weight:bold;""
                            >disgust</p>
                            <div style=""width:240px; margin: auto;"">
                                <img src=""images/map10_turbo_scaleRev_orientMir_000.png"" style= ""width:200px""alt=""img"">
                            </div>
                        </div>",0.3275,"",0,"",NA,"","images/map10_turbo_scaleRev_orientMir_000.png","disgust",1,10,10,"turbo","orientMir","scaleRev","000",NA,NA
"","","","","","html-slider-response",80,208179,"0.0-72.0","h5nofx51vd",29,NA,"<div style=""width:500px;"">
                            <p style=""font-size:50px; font-weight:bold;""
                            >disgust</p>
                            <div style=""width:240px; margin: auto;"">
                                <img src=""images/map05_RdYlGn_scaleRev_orientDef_180.png"" style= ""width:200px""alt=""img"">
                            </div>
                        </div>",0.665,"",0,"",NA,"","images/map05_RdYlGn_scaleRev_orientDef_180.png","disgust",1,5,5,"RdYlGn","orientDef","scaleRev","180",NA,NA
"","","","","","html-slider-response",81,210214,"0.0-73.0","h5nofx51vd",29,NA,"<div style=""width:500px;"">
                            <p style=""font-size:50px; font-weight:bold;""
                            >disgust</p>
                            <div style=""width:240px; margin: auto;"">
                                <img src=""images/map26_PuBuGn_scaleRev_orientMir_180.png"" style= ""width:200px""alt=""img"">
                            </div>
                        </div>",0,"",0,"",NA,"","images/map26_PuBuGn_scaleRev_orientMir_180.png","disgust",1,26,26,"PuBuGn","orientMir","scaleRev","180",NA,NA
"","","","","","html-slider-response",82,211931,"0.0-74.0","h5nofx51vd",29,NA,"<div style=""width:500px;"">
                            <p style=""font-size:50px; font-weight:bold;""
                            >disgust</p>
                            <div style=""width:240px; margin: auto;"">
                                <img src=""images/map12_magma_scaleRev_orientMir_000.png"" style= ""width:200px""alt=""img"">
                            </div>
                        </div>",0.2025,"",0,"",NA,"","images/map12_magma_scaleRev_orientMir_000.png","disgust",1,12,12,"magma","orientMir","scaleRev","000",NA,NA
"","","","","","html-slider-response",83,213563,"0.0-75.0","h5nofx51vd",29,NA,"<div style=""width:500px;"">
                            <p style=""font-size:50px; font-weight:bold;""
                            >disgust</p>
                            <div style=""width:240px; margin: auto;"">
                                <img src=""images/map07_seismic_scaleDef_orientDef_090.png"" style= ""width:200px""alt=""img"">
                            </div>
                        </div>",0.3625,"",0,"",NA,"","images/map07_seismic_scaleDef_orientDef_090.png","disgust",1,7,7,"seismic","orientDef","scaleDef","090",NA,NA
"","","","","","html-slider-response",84,215180,"0.0-76.0","h5nofx51vd",29,NA,"<div style=""width:500px;"">
                            <p style=""font-size:50px; font-weight:bold;""
                            >disgust</p>
                            <div style=""width:240px; margin: auto;"">
                                <img src=""images/map07_managua_scaleRev_orientMir_180.png"" style= ""width:200px""alt=""img"">
                            </div>
                        </div>",0.1075,"",0,"",NA,"","images/map07_managua_scaleRev_orientMir_180.png","disgust",1,7,7,"managua","orientMir","scaleRev","180",NA,NA
"","","","","","html-slider-response",85,216963,"0.0-77.0","h5nofx51vd",29,NA,"<div style=""width:500px;"">
                            <p style=""font-size:50px; font-weight:bold;""
                            >disgust</p>
                            <div style=""width:240px; margin: auto;"">
                                <img src=""images/map26_PuBuGn_scaleDef_orientMir_090.png"" style= ""width:200px""alt=""img"">
                            </div>
                        </div>",0,"",0,"",NA,"","images/map26_PuBuGn_scaleDef_orientMir_090.png","disgust",1,26,26,"PuBuGn","orientMir","scaleDef","090",NA,NA
"","","","","","html-slider-response",86,219047,"0.0-78.0","h5nofx51vd",29,NA,"<div style=""width:500px;"">
                            <p style=""font-size:50px; font-weight:bold;""
                            >disgust</p>
                            <div style=""width:240px; margin: auto;"">
                                <img src=""images/map05_bwr_scaleDef_orientMir_270.png"" style= ""width:200px""alt=""img"">
                            </div>
                        </div>",0.1325,"",0,"",NA,"","images/map05_bwr_scaleDef_orientMir_270.png","disgust",1,5,5,"bwr","orientMir","scaleDef","270",NA,NA
"","","","","","html-slider-response",87,221030,"0.0-79.0","h5nofx51vd",29,NA,"<div style=""width:500px;"">
                            <p style=""font-size:50px; font-weight:bold;""
                            >disgust</p>
                            <div style=""width:240px; margin: auto;"">
                                <img src=""images/map26_PuBu_scaleDef_orientDef_090.png"" style= ""width:200px""alt=""img"">
                            </div>
                        </div>",0.1675,"",0,"",NA,"","images/map26_PuBu_scaleDef_orientDef_090.png","disgust",1,26,26,"PuBu","orientDef","scaleDef","090",NA,NA
"","","","","","html-slider-response",88,222880,"0.0-80.0","h5nofx51vd",29,NA,"<div style=""width:500px;"">
                            <p style=""font-size:50px; font-weight:bold;""
                            >disgust</p>
                            <div style=""width:240px; margin: auto;"">
                                <img src=""images/map23_PuRd_scaleDef_orientDef_090.png"" style= ""width:200px""alt=""img"">
                            </div>
                        </div>",0,"",0,"",NA,"","images/map23_PuRd_scaleDef_orientDef_090.png","disgust",1,23,23,"PuRd","orientDef","scaleDef","090",NA,NA
"","","","","","html-slider-response",89,224949,"0.0-81.0","h5nofx51vd",29,NA,"<div style=""width:500px;"">
                            <p style=""font-size:50px; font-weight:bold;""
                            >disgust</p>
                            <div style=""width:240px; margin: auto;"">
                                <img src=""images/map26_YlGnBu_scaleDef_orientDef_270.png"" style= ""width:200px""alt=""img"">
                            </div>
                        </div>",0,"",0,"",NA,"","images/map26_YlGnBu_scaleDef_orientDef_270.png","disgust",1,26,26,"YlGnBu","orientDef","scaleDef","270",NA,NA
"","","","","","html-slider-response",90,226747,"0.0-82.0","h5nofx51vd",29,NA,"<div style=""width:500px;"">
                            <p style=""font-size:50px; font-weight:bold;""
                            >disgust</p>
                            <div style=""width:240px; margin: auto;"">
                                <img src=""images/map02_RdBu_scaleRev_orientMir_180.png"" style= ""width:200px""alt=""img"">
                            </div>
                        </div>",0.2725,"",0,"",NA,"","images/map02_RdBu_scaleRev_orientMir_180.png","disgust",1,2,2,"RdBu","orientMir","scaleRev","180",NA,NA
"","","","","","html-slider-response",91,228697,"0.0-83.0","h5nofx51vd",29,NA,"<div style=""width:500px;"">
                            <p style=""font-size:50px; font-weight:bold;""
                            >disgust</p>
                            <div style=""width:240px; margin: auto;"">
                                <img src=""images/map05_Spectral_scaleRev_orientMir_000.png"" style= ""width:200px""alt=""img"">
                            </div>
                        </div>",0.28,"",0,"",NA,"","images/map05_Spectral_scaleRev_orientMir_000.png","disgust",1,5,5,"Spectral","orientMir","scaleRev","000",NA,NA
"","","","","","html-slider-response",92,230263,"0.0-84.0","h5nofx51vd",29,NA,"<div style=""width:500px;"">
                            <p style=""font-size:50px; font-weight:bold;""
                            >disgust</p>
                            <div style=""width:240px; margin: auto;"">
                                <img src=""images/map23_BuPu_scaleDef_orientMir_090.png"" style= ""width:200px""alt=""img"">
                            </div>
                        </div>",0.425,"",0,"",NA,"","images/map23_BuPu_scaleDef_orientMir_090.png","disgust",1,23,23,"BuPu","orientMir","scaleDef","090",NA,NA
"","","","","","html-slider-response",93,232132,"0.0-85.0","h5nofx51vd",29,NA,"<div style=""width:500px;"">
                            <p style=""font-size:50px; font-weight:bold;""
                            >disgust</p>
                            <div style=""width:240px; margin: auto;"">
                                <img src=""images/map02_RdYlBu_scaleDef_orientMir_270.png"" style= ""width:200px""alt=""img"">
                            </div>
                        </div>",0.355,"",0,"",NA,"","images/map02_RdYlBu_scaleDef_orientMir_270.png","disgust",1,2,2,"RdYlBu","orientMir","scaleDef","270",NA,NA
"","","","","","html-slider-response",94,234297,"0.0-86.0","h5nofx51vd",29,NA,"<div style=""width:500px;"">
                            <p style=""font-size:50px; font-weight:bold;""
                            >disgust</p>
                            <div style=""width:240px; margin: auto;"">
                                <img src=""images/map26_YlGnBu_scaleRev_orientMir_000.png"" style= ""width:200px""alt=""img"">
                            </div>
                        </div>",0,"",0,"",NA,"","images/map26_YlGnBu_scaleRev_orientMir_000.png","disgust",1,26,26,"YlGnBu","orientMir","scaleRev","000",NA,NA
"","","","","","html-slider-response",95,235913,"0.0-87.0","h5nofx51vd",29,NA,"<div style=""width:500px;"">
                            <p style=""font-size:50px; font-weight:bold;""
                            >disgust</p>
                            <div style=""width:240px; margin: auto;"">
                                <img src=""images/map10_turbo_scaleDef_orientDef_270.png"" style= ""width:200px""alt=""img"">
                            </div>
                        </div>",0.3975,"",0,"",NA,"","images/map10_turbo_scaleDef_orientDef_270.png","disgust",1,10,10,"turbo","orientDef","scaleDef","270",NA,NA
"","","","","","html-slider-response",96,237647,"0.0-88.0","h5nofx51vd",29,NA,"<div style=""width:500px;"">
                            <p style=""font-size:50px; font-weight:bold;""
                            >disgust</p>
                            <div style=""width:240px; margin: auto;"">
                                <img src=""images/map13_Greys_scaleRev_orientDef_000.png"" style= ""width:200px""alt=""img"">
                            </div>
                        </div>",0.2725,"",0,"",NA,"","images/map13_Greys_scaleRev_orientDef_000.png","disgust",1,13,13,"Greys","orientDef","scaleRev","000",NA,NA
"","","","","","html-slider-response",97,240499,"0.0-89.0","h5nofx51vd",29,NA,"<div style=""width:500px;"">
                            <p style=""font-size:50px; font-weight:bold;""
                            >disgust</p>
                            <div style=""width:240px; margin: auto;"">
                                <img src=""images/map23_BuPu_scaleRev_orientMir_180.png"" style= ""width:200px""alt=""img"">
                            </div>
                        </div>",0.6,"",0,"",NA,"","images/map23_BuPu_scaleRev_orientMir_180.png","disgust",1,23,23,"BuPu","orientMir","scaleRev","180",NA,NA
"","","","","","html-slider-response",98,242265,"0.0-90.0","h5nofx51vd",29,NA,"<div style=""width:500px;"">
                            <p style=""font-size:50px; font-weight:bold;""
                            >disgust</p>
                            <div style=""width:240px; margin: auto;"">
                                <img src=""images/map07_vanimo_scaleDef_orientMir_270.png"" style= ""width:200px""alt=""img"">
                            </div>
                        </div>",1,"",0,"",NA,"","images/map07_vanimo_scaleDef_orientMir_270.png","disgust",1,7,7,"vanimo","orientMir","scaleDef","270",NA,NA
"","","","","","html-slider-response",99,244430,"0.0-91.0","h5nofx51vd",29,NA,"<div style=""width:500px;"">
                            <p style=""font-size:50px; font-weight:bold;""
                            >disgust</p>
                            <div style=""width:240px; margin: auto;"">
                                <img src=""images/map13_Purples_scaleDef_orientDef_090.png"" style= ""width:200px""alt=""img"">
                            </div>
                        </div>",0.6025,"",0,"",NA,"","images/map13_Purples_scaleDef_orientDef_090.png","disgust",1,13,13,"Purples","orientDef","scaleDef","090",NA,NA
"","","","","","html-slider-response",100,246098,"0.0-92.0","h5nofx51vd",29,NA,"<div style=""width:500px;"">
                            <p style=""font-size:50px; font-weight:bold;""
                            >disgust</p>
                            <div style=""width:240px; margin: auto;"">
                                <img src=""images/map02_RdGy_scaleRev_orientMir_000.png"" style= ""width:200px""alt=""img"">
                            </div>
                        </div>",0.3825,"",0,"",NA,"","images/map02_RdGy_scaleRev_orientMir_000.png","disgust",1,2,2,"RdGy","orientMir","scaleRev","000",NA,NA
"","","","","","html-slider-response",101,247831,"0.0-93.0","h5nofx51vd",29,NA,"<div style=""width:500px;"">
                            <p style=""font-size:50px; font-weight:bold;""
                            >disgust</p>
                            <div style=""width:240px; margin: auto;"">
                                <img src=""images/map27_PiYG_scaleRev_orientMir_000.png"" style= ""width:200px""alt=""img"">
                            </div>
                        </div>",1,"",0,"",NA,"","images/map27_PiYG_scaleRev_orientMir_000.png","disgust",1,27,27,"PiYG","orientMir","scaleRev","000",NA,NA
"","","","","","html-slider-response",102,250030,"0.0-94.0","h5nofx51vd",29,NA,"<div style=""width:500px;"">
                            <p style=""font-size:50px; font-weight:bold;""
                            >disgust</p>
                            <div style=""width:240px; margin: auto;"">
                                <img src=""images/map13_Oranges_scaleDef_orientMir_270.png"" style= ""width:200px""alt=""img"">
                            </div>
                        </div>",0.1475,"",0,"",NA,"","images/map13_Oranges_scaleDef_orientMir_270.png","disgust",1,13,13,"Oranges","orientMir","scaleDef","270",NA,NA
"","","","","","html-button-response",103,252019,"0.0-95.0","h5nofx51vd",29,1487,"<p>Great Job! You've finished block 1.<br></br> You have 4 block(s) left to go.<br></br></p>",0.5,"",NA,"",NA,"","","",NA,NA,NA,"","","","",NA,NA
"","","","","","html-button-response",104,252968,"0.0-96.0","h5nofx51vd",29,948,"<p>In this block of trials, you will be asked to rate how much you associate each map with:</p > <p style = 'font-size:150%; font-weight: bold'>happy</p><br></br>",0.5,"",NA,"",NA,"","","",NA,NA,NA,"","","","",NA,NA
"","","","","","html-slider-response",105,254513,"0.0-97.0","h5nofx51vd",29,NA,"<div style=""width:500px;"">
                            <p style=""font-size:50px; font-weight:bold;""
                            >happy</p>
                            <div style=""width:240px; margin: auto;"">
                                <img src=""images/map13_Blues_scaleDef_orientDef_270.png"" style= ""width:200px""alt=""img"">
                            </div>
                        </div>",0,"",0,"",NA,"","images/map13_Blues_scaleDef_orientDef_270.png","happy",1,13,13,"Blues","orientDef","scaleDef","270",NA,NA
"","","","","","html-slider-response",106,256380,"0.0-98.0","h5nofx51vd",29,NA,"<div style=""width:500px;"">
                            <p style=""font-size:50px; font-weight:bold;""
                            >happy</p>
                            <div style=""width:240px; margin: auto;"">
                                <img src=""images/map13_Purples_scaleRev_orientDef_180.png"" style= ""width:200px""alt=""img"">
                            </div>
                        </div>",0,"",0,"",NA,"","images/map13_Purples_scaleRev_orientDef_180.png","happy",1,13,13,"Purples","orientDef","scaleRev","180",NA,NA
"","","","","","html-slider-response",107,258030,"0.0-99.0","h5nofx51vd",29,NA,"<div style=""width:500px;"">
                            <p style=""font-size:50px; font-weight:bold;""
                            >happy</p>
                            <div style=""width:240px; margin: auto;"">
                                <img src=""images/map13_Blues_scaleRev_orientMir_000.png"" style= ""width:200px""alt=""img"">
                            </div>
                        </div>",0,"",0,"",NA,"","images/map13_Blues_scaleRev_orientMir_000.png","happy",1,13,13,"Blues","orientMir","scaleRev","000",NA,NA
"","","","","","html-slider-response",108,259915,"0.0-100.0","h5nofx51vd",29,NA,"<div style=""width:500px;"">
                            <p style=""font-size:50px; font-weight:bold;""
                            >happy</p>
                            <div style=""width:240px; margin: auto;"">
                                <img src=""images/map27_YlGn_scaleRev_orientDef_180.png"" style= ""width:200px""alt=""img"">
                            </div>
                        </div>",0.58,"",0,"",NA,"","images/map27_YlGn_scaleRev_orientDef_180.png","happy",1,27,27,"YlGn","orientDef","scaleRev","180",NA,NA
"","","","","","html-slider-response",109,261864,"0.0-101.0","h5nofx51vd",29,NA,"<div style=""width:500px;"">
                            <p style=""font-size:50px; font-weight:bold;""
                            >happy</p>
                            <div style=""width:240px; margin: auto;"">
                                <img src=""images/map26_YlGnBu_scaleDef_orientDef_270.png"" style= ""width:200px""alt=""img"">
                            </div>
                        </div>",0.02,"",0,"",NA,"","images/map26_YlGnBu_scaleDef_orientDef_270.png","happy",1,26,26,"YlGnBu","orientDef","scaleDef","270",NA,NA
"","","","","","html-slider-response",110,263796,"0.0-102.0","h5nofx51vd",29,NA,"<div style=""width:500px;"">
                            <p style=""font-size:50px; font-weight:bold;""
                            >happy</p>
                            <div style=""width:240px; margin: auto;"">
                                <img src=""images/map05_coolwarm_scaleDef_orientMir_090.png"" style= ""width:200px""alt=""img"">
                            </div>
                        </div>",0.415,"",0,"",NA,"","images/map05_coolwarm_scaleDef_orientMir_090.png","happy",1,5,5,"coolwarm","orientMir","scaleDef","090",NA,NA
"","","","","","html-slider-response",111,265562,"0.0-103.0","h5nofx51vd",29,NA,"<div style=""width:500px;"">
                            <p style=""font-size:50px; font-weight:bold;""
                            >happy</p>
                            <div style=""width:240px; margin: auto;"">
                                <img src=""images/map15_Reds_scaleDef_orientDef_090.png"" style= ""width:200px""alt=""img"">
                            </div>
                        </div>",0,"",0,"",NA,"","images/map15_Reds_scaleDef_orientDef_090.png","happy",1,15,15,"Reds","orientDef","scaleDef","090",NA,NA
"","","","","","html-slider-response",112,267497,"0.0-104.0","h5nofx51vd",29,NA,"<div style=""width:500px;"">
                            <p style=""font-size:50px; font-weight:bold;""
                            >happy</p>
                            <div style=""width:240px; margin: auto;"">
                                <img src=""images/map02_RdGy_scaleDef_orientDef_270.png"" style= ""width:200px""alt=""img"">
                            </div>
                        </div>",0,"",0,"",NA,"","images/map02_RdGy_scaleDef_orientDef_270.png","happy",1,2,2,"RdGy","orientDef","scaleDef","270",NA,NA
"","","","","","html-slider-response",113,269215,"0.0-105.0","h5nofx51vd",29,NA,"<div style=""width:500px;"">
                            <p style=""font-size:50px; font-weight:bold;""
                            >happy</p>
                            <div style=""width:240px; margin: auto;"">
                                <img src=""images/map27_BuGn_scaleRev_orientDef_000.png"" style= ""width:200px""alt=""img"">
                            </div>
                        </div>",0.3625,"",0,"",NA,"","images/map27_BuGn_scaleRev_orientDef_000.png","happy",1,27,27,"BuGn","orientDef","scaleRev","000",NA,NA
"","","","","","html-slider-response",114,271713,"0.0-106.0","h5nofx51vd",29,NA,"<div style=""width:500px;"">
                            <p style=""font-size:50px; font-weight:bold;""
                            >happy</p>
                            <div style=""width:240px; margin: auto;"">
                                <img src=""images/map10_plasma_scaleDef_orientMir_270.png"" style= ""width:200px""alt=""img"">
                            </div>
                        </div>",0.565,"",0,"",NA,"","images/map10_plasma_scaleDef_orientMir_270.png","happy",1,10,10,"plasma","orientMir","scaleDef","270",NA,NA
"","","","","","html-slider-response",115,273598,"0.0-107.0","h5nofx51vd",29,NA,"<div style=""width:500px;"">
                            <p style=""font-size:50px; font-weight:bold;""
                            >happy</p>
                            <div style=""width:240px; margin: auto;"">
                                <img src=""images/map02_RdBu_scaleRev_orientMir_180.png"" style= ""width:200px""alt=""img"">
                            </div>
                        </div>",0.2375,"",0,"",NA,"","images/map02_RdBu_scaleRev_orientMir_180.png","happy",1,2,2,"RdBu","orientMir","scaleRev","180",NA,NA
"","","","","","html-slider-response",116,275531,"0.0-108.0","h5nofx51vd",29,NA,"<div style=""width:500px;"">
                            <p style=""font-size:50px; font-weight:bold;""
                            >happy</p>
                            <div style=""width:240px; margin: auto;"">
                                <img src=""images/map10_viridis_scaleRev_orientMir_180.png"" style= ""width:200px""alt=""img"">
                            </div>
                        </div>",0.075,"",0,"",NA,"","images/map10_viridis_scaleRev_orientMir_180.png","happy",1,10,10,"viridis","orientMir","scaleRev","180",NA,NA
"","","","","","html-slider-response",117,277329,"0.0-109.0","h5nofx51vd",29,NA,"<div style=""width:500px;"">
                            <p style=""font-size:50px; font-weight:bold;""
                            >happy</p>
                            <div style=""width:240px; margin: auto;"">
                                <img src=""images/map23_BuPu_scaleRev_orientMir_180.png"" style= ""width:200px""alt=""img"">
                            </div>
                        </div>",0,"",0,"",NA,"","images/map23_BuPu_scaleRev_orientMir_180.png","happy",1,23,23,"BuPu","orientMir","scaleRev","180",NA,NA
"","","","","","html-slider-response",118,279329,"0.0-110.0","h5nofx51vd",29,NA,"<div style=""width:500px;"">
                            <p style=""font-size:50px; font-weight:bold;""
                            >happy</p>
                            <div style=""width:240px; margin: auto;"">
                                <img src=""images/map07_managua_scaleRev_orientMir_180.png"" style= ""width:200px""alt=""img"">
                            </div>
                        </div>",0.535,"",0,"",NA,"","images/map07_managua_scaleRev_orientMir_180.png","happy",1,7,7,"managua","orientMir","scaleRev","180",NA,NA
"","","","","","html-slider-response",119,281014,"0.0-111.0","h5nofx51vd",29,NA,"<div style=""width:500px;"">
                            <p style=""font-size:50px; font-weight:bold;""
                            >happy</p>
                            <div style=""width:240px; margin: auto;"">
                                <img src=""images/map02_RdGy_scaleRev_orientMir_000.png"" style= ""width:200px""alt=""img"">
                            </div>
                        </div>",0.255,"",0,"",NA,"","images/map02_RdGy_scaleRev_orientMir_000.png","happy",1,2,2,"RdGy","orientMir","scaleRev","000",NA,NA
"","","","","","html-slider-response",120,282948,"0.0-112.0","h5nofx51vd",29,NA,"<div style=""width:500px;"">
                            <p style=""font-size:50px; font-weight:bold;""
                            >happy</p>
                            <div style=""width:240px; margin: auto;"">
                                <img src=""images/map27_PRGn_scaleDef_orientMir_090.png"" style= ""width:200px""alt=""img"">
                            </div>
                        </div>",0.1125,"",0,"",NA,"","images/map27_PRGn_scaleDef_orientMir_090.png","happy",1,27,27,"PRGn","orientMir","scaleDef","090",NA,NA
"","","","","","html-slider-response",121,284781,"0.0-113.0","h5nofx51vd",29,NA,"<div style=""width:500px;"">
                            <p style=""font-size:50px; font-weight:bold;""
                            >happy</p>
                            <div style=""width:240px; margin: auto;"">
                                <img src=""images/map15_YlOrRd_scaleDef_orientMir_090.png"" style= ""width:200px""alt=""img"">
                            </div>
                        </div>",0.58,"",0,"",NA,"","images/map15_YlOrRd_scaleDef_orientMir_090.png","happy",1,15,15,"YlOrRd","orientMir","scaleDef","090",NA,NA
"","","","","","html-slider-response",122,286415,"0.0-114.0","h5nofx51vd",29,NA,"<div style=""width:500px;"">
                            <p style=""font-size:50px; font-weight:bold;""
                            >happy</p>
                            <div style=""width:240px; margin: auto;"">
                                <img src=""images/map13_Greens_scaleDef_orientMir_090.png"" style= ""width:200px""alt=""img"">
                            </div>
                        </div>",0.4675,"",0,"",NA,"","images/map13_Greens_scaleDef_orientMir_090.png","happy",1,13,13,"Greens","orientMir","scaleDef","090",NA,NA
"","","","","","html-slider-response",123,288329,"0.0-115.0","h5nofx51vd",29,NA,"<div style=""width:500px;"">
                            <p style=""font-size:50px; font-weight:bold;""
                            >happy</p>
                            <div style=""width:240px; margin: auto;"">
                                <img src=""images/map23_OrRd_scaleRev_orientDef_000.png"" style= ""width:200px""alt=""img"">
                            </div>
                        </div>",0.5425,"",0,"",NA,"","images/map23_OrRd_scaleRev_orientDef_000.png","happy",1,23,23,"OrRd","orientDef","scaleRev","000",NA,NA
"","","","","","html-slider-response",124,290182,"0.0-116.0","h5nofx51vd",29,NA,"<div style=""width:500px;"">
                            <p style=""font-size:50px; font-weight:bold;""
                            >happy</p>
                            <div style=""width:240px; margin: auto;"">
                                <img src=""images/map07_seismic_scaleDef_orientDef_090.png"" style= ""width:200px""alt=""img"">
                            </div>
                        </div>",0.2075,"",0,"",NA,"","images/map07_seismic_scaleDef_orientDef_090.png","happy",1,7,7,"seismic","orientDef","scaleDef","090",NA,NA
"","","","","","html-slider-response",125,291946,"0.0-117.0","h5nofx51vd",29,NA,"<div style=""width:500px;"">
                            <p style=""font-size:50px; font-weight:bold;""
                            >happy</p>
                            <div style=""width:240px; margin: auto;"">
                                <img src=""images/map10_viridis_scaleDef_orientMir_090.png"" style= ""width:200px""alt=""img"">
                            </div>
                        </div>",0.445,"",0,"",NA,"","images/map10_viridis_scaleDef_orientMir_090.png","happy",1,10,10,"viridis","orientMir","scaleDef","090",NA,NA
"","","","","","html-slider-response",126,293764,"0.0-118.0","h5nofx51vd",29,NA,"<div style=""width:500px;"">
                            <p style=""font-size:50px; font-weight:bold;""
                            >happy</p>
                            <div style=""width:240px; margin: auto;"">
                                <img src=""images/map02_PuOr_scaleRev_orientDef_180.png"" style= ""width:200px""alt=""img"">
                            </div>
                        </div>",0.3,"",0,"",NA,"","images/map02_PuOr_scaleRev_orientDef_180.png","happy",1,2,2,"PuOr","orientDef","scaleRev","180",NA,NA
"","","","","","html-slider-response",127,296062,"0.0-119.0","h5nofx51vd",29,NA,"<div style=""width:500px;"">
                            <p style=""font-size:50px; font-weight:bold;""
                            >happy</p>
                            <div style=""width:240px; margin: auto;"">
                                <img src=""images/map05_RdYlBu_scaleRev_orientDef_000.png"" style= ""width:200px""alt=""img"">
                            </div>
                        </div>",0.66,"",0,"",NA,"","images/map05_RdYlBu_scaleRev_orientDef_000.png","happy",1,5,5,"RdYlBu","orientDef","scaleRev","000",NA,NA
"","","","","","html-slider-response",128,298178,"0.0-120.0","h5nofx51vd",29,NA,"<div style=""width:500px;"">
                            <p style=""font-size:50px; font-weight:bold;""
                            >happy</p>
                            <div style=""width:240px; margin: auto;"">
                                <img src=""images/map15_Oranges_scaleRev_orientDef_000.png"" style= ""width:200px""alt=""img"">
                            </div>
                        </div>",0.6675,"",0,"",NA,"","images/map15_Oranges_scaleRev_orientDef_000.png","happy",1,15,15,"Oranges","orientDef","scaleRev","000",NA,NA
"","","","","","html-slider-response",129,300063,"0.0-121.0","h5nofx51vd",29,NA,"<div style=""width:500px;"">
                            <p style=""font-size:50px; font-weight:bold;""
                            >happy</p>
                            <div style=""width:240px; margin: auto;"">
                                <img src=""images/map12_cividis_scaleRev_orientMir_180.png"" style= ""width:200px""alt=""img"">
                            </div>
                        </div>",0.115,"",0,"",NA,"","images/map12_cividis_scaleRev_orientMir_180.png","happy",1,12,12,"cividis","orientMir","scaleRev","180",NA,NA
"","","","","","html-slider-response",130,302047,"0.0-122.0","h5nofx51vd",29,NA,"<div style=""width:500px;"">
                            <p style=""font-size:50px; font-weight:bold;""
                            >happy</p>
                            <div style=""width:240px; margin: auto;"">
                                <img src=""images/map23_PuRd_scaleRev_orientDef_180.png"" style= ""width:200px""alt=""img"">
                            </div>
                        </div>",0.6275,"",0,"",NA,"","images/map23_PuRd_scaleRev_orientDef_180.png","happy",1,23,23,"PuRd","orientDef","scaleRev","180",NA,NA
"","","","","","html-slider-response",131,303697,"0.0-123.0","h5nofx51vd",29,NA,"<div style=""width:500px;"">
                            <p style=""font-size:50px; font-weight:bold;""
                            >happy</p>
                            <div style=""width:240px; margin: auto;"">
                                <img src=""images/map13_Greys_scaleRev_orientDef_000.png"" style= ""width:200px""alt=""img"">
                            </div>
                        </div>",0,"",0,"",NA,"","images/map13_Greys_scaleRev_orientDef_000.png","happy",1,13,13,"Greys","orientDef","scaleRev","000",NA,NA
"","","","","","html-slider-response",132,305629,"0.0-124.0","h5nofx51vd",29,NA,"<div style=""width:500px;"">
                            <p style=""font-size:50px; font-weight:bold;""
                            >happy</p>
                            <div style=""width:240px; margin: auto;"">
                                <img src=""images/map07_managua_scaleDef_orientMir_090.png"" style= ""width:200px""alt=""img"">
                            </div>
                        </div>",0.5225,"",0,"",NA,"","images/map07_managua_scaleDef_orientMir_090.png","happy",1,7,7,"managua","orientMir","scaleDef","090",NA,NA
"","","","","","html-slider-response",133,307280,"0.0-125.0","h5nofx51vd",29,NA,"<div style=""width:500px;"">
                            <p style=""font-size:50px; font-weight:bold;""
                            >happy</p>
                            <div style=""width:240px; margin: auto;"">
                                <img src=""images/map13_Oranges_scaleDef_orientMir_270.png"" style= ""width:200px""alt=""img"">
                            </div>
                        </div>",0.5425,"",0,"",NA,"","images/map13_Oranges_scaleDef_orientMir_270.png","happy",1,13,13,"Oranges","orientMir","scaleDef","270",NA,NA
"","","","","","html-slider-response",134,309047,"0.0-126.0","h5nofx51vd",29,NA,"<div style=""width:500px;"">
                            <p style=""font-size:50px; font-weight:bold;""
                            >happy</p>
                            <div style=""width:240px; margin: auto;"">
                                <img src=""images/map27_PiYG_scaleDef_orientDef_270.png"" style= ""width:200px""alt=""img"">
                            </div>
                        </div>",0,"",0,"",NA,"","images/map27_PiYG_scaleDef_orientDef_270.png","happy",1,27,27,"PiYG","orientDef","scaleDef","270",NA,NA
"","","","","","html-slider-response",135,311013,"0.0-127.0","h5nofx51vd",29,NA,"<div style=""width:500px;"">
                            <p style=""font-size:50px; font-weight:bold;""
                            >happy</p>
                            <div style=""width:240px; margin: auto;"">
                                <img src=""images/map12_magma_scaleRev_orientMir_000.png"" style= ""width:200px""alt=""img"">
                            </div>
                        </div>",0.525,"",0,"",NA,"","images/map12_magma_scaleRev_orientMir_000.png","happy",1,12,12,"magma","orientMir","scaleRev","000",NA,NA
"","","","","","html-slider-response",136,312712,"0.0-128.0","h5nofx51vd",29,NA,"<div style=""width:500px;"">
                            <p style=""font-size:50px; font-weight:bold;""
                            >happy</p>
                            <div style=""width:240px; margin: auto;"">
                                <img src=""images/map26_PuBuGn_scaleRev_orientMir_180.png"" style= ""width:200px""alt=""img"">
                            </div>
                        </div>",0,"",0,"",NA,"","images/map26_PuBuGn_scaleRev_orientMir_180.png","happy",1,26,26,"PuBuGn","orientMir","scaleRev","180",NA,NA
"","","","","","html-slider-response",137,314646,"0.0-129.0","h5nofx51vd",29,NA,"<div style=""width:500px;"">
                            <p style=""font-size:50px; font-weight:bold;""
                            >happy</p>
                            <div style=""width:240px; margin: auto;"">
                                <img src=""images/map15_YlOrBr_scaleDef_orientDef_270.png"" style= ""width:200px""alt=""img"">
                            </div>
                        </div>",0.6575,"",0,"",NA,"","images/map15_YlOrBr_scaleDef_orientDef_270.png","happy",1,15,15,"YlOrBr","orientDef","scaleDef","270",NA,NA
"","","","","","html-slider-response",138,316547,"0.0-130.0","h5nofx51vd",29,NA,"<div style=""width:500px;"">
                            <p style=""font-size:50px; font-weight:bold;""
                            >happy</p>
                            <div style=""width:240px; margin: auto;"">
                                <img src=""images/map26_BuGn_scaleDef_orientMir_270.png"" style= ""width:200px""alt=""img"">
                            </div>
                        </div>",0.3125,"",0,"",NA,"","images/map26_BuGn_scaleDef_orientMir_270.png","happy",1,26,26,"BuGn","orientMir","scaleDef","270",NA,NA
"","","","","","html-slider-response",139,318478,"0.0-131.0","h5nofx51vd",29,NA,"<div style=""width:500px;"">
                            <p style=""font-size:50px; font-weight:bold;""
                            >happy</p>
                            <div style=""width:240px; margin: auto;"">
                                <img src=""images/map12_Greys_scaleDef_orientMir_270.png"" style= ""width:200px""alt=""img"">
                            </div>
                        </div>",0,"",0,"",NA,"","images/map12_Greys_scaleDef_orientMir_270.png","happy",1,12,12,"Greys","orientMir","scaleDef","270",NA,NA
"","","","","","html-slider-response",140,320497,"0.0-132.0","h5nofx51vd",29,NA,"<div style=""width:500px;"">
                            <p style=""font-size:50px; font-weight:bold;""
                            >happy</p>
                            <div style=""width:240px; margin: auto;"">
                                <img src=""images/map26_YlGnBu_scaleRev_orientMir_000.png"" style= ""width:200px""alt=""img"">
                            </div>
                        </div>",0,"",0,"",NA,"","images/map26_YlGnBu_scaleRev_orientMir_000.png","happy",1,26,26,"YlGnBu","orientMir","scaleRev","000",NA,NA
"","","","","","html-slider-response",141,322362,"0.0-133.0","h5nofx51vd",29,NA,"<div style=""width:500px;"">
                            <p style=""font-size:50px; font-weight:bold;""
                            >happy</p>
                            <div style=""width:240px; margin: auto;"">
                                <img src=""images/map12_magma_scaleDef_orientDef_270.png"" style= ""width:200px""alt=""img"">
                            </div>
                        </div>",0.4475,"",0,"",NA,"","images/map12_magma_scaleDef_orientDef_270.png","happy",1,12,12,"magma","orientDef","scaleDef","270",NA,NA
"","","","","","html-slider-response",142,324013,"0.0-134.0","h5nofx51vd",29,NA,"<div style=""width:500px;"">
                            <p style=""font-size:50px; font-weight:bold;""
                            >happy</p>
                            <div style=""width:240px; margin: auto;"">
                                <img src=""images/map05_RdYlGn_scaleDef_orientDef_090.png"" style= ""width:200px""alt=""img"">
                            </div>
                        </div>",0.54,"",0,"",NA,"","images/map05_RdYlGn_scaleDef_orientDef_090.png","happy",1,5,5,"RdYlGn","orientDef","scaleDef","090",NA,NA
"","","","","","html-slider-response",143,325713,"0.0-135.0","h5nofx51vd",29,NA,"<div style=""width:500px;"">
                            <p style=""font-size:50px; font-weight:bold;""
                            >happy</p>
                            <div style=""width:240px; margin: auto;"">
                                <img src=""images/map10_vanimo_scaleRev_orientDef_000.png"" style= ""width:200px""alt=""img"">
                            </div>
                        </div>",0,"",0,"",NA,"","images/map10_vanimo_scaleRev_orientDef_000.png","happy",1,10,10,"vanimo","orientDef","scaleRev","000",NA,NA
"","","","","","html-slider-response",144,327480,"0.0-136.0","h5nofx51vd",29,NA,"<div style=""width:500px;"">
                            <p style=""font-size:50px; font-weight:bold;""
                            >happy</p>
                            <div style=""width:240px; margin: auto;"">
                                <img src=""images/map13_Greens_scaleRev_orientMir_180.png"" style= ""width:200px""alt=""img"">
                            </div>
                        </div>",0.4425,"",0,"",NA,"","images/map13_Greens_scaleRev_orientMir_180.png","happy",1,13,13,"Greens","orientMir","scaleRev","180",NA,NA
"","","","","","html-button-response",145,329385,"0.0-137.0","h5nofx51vd",29,1402,"<p>You are doing great!<br></br> You are halway done with the current block. When you are ready to continue, click the 'Continue' button.</p>",0.5,"",NA,"",NA,"","","",NA,NA,NA,"","","","",NA,NA
"","","","","","html-slider-response",146,330981,"0.0-138.0","h5nofx51vd",29,NA,"<div style=""width:500px;"">
                            <p style=""font-size:50px; font-weight:bold;""
                            >happy</p>
                            <div style=""width:240px; margin: auto;"">
                                <img src=""images/map05_coolwarm_scaleRev_orientMir_180.png"" style= ""width:200px""alt=""img"">
                            </div>
                        </div>",0.54,"",0,"",NA,"","images/map05_coolwarm_scaleRev_orientMir_180.png","happy",1,5,5,"coolwarm","orientMir","scaleRev","180",NA,NA
"","","","","","html-slider-response",147,333212,"0.0-139.0","h5nofx51vd",29,NA,"<div style=""width:500px;"">
                            <p style=""font-size:50px; font-weight:bold;""
                            >happy</p>
                            <div style=""width:240px; margin: auto;"">
                                <img src=""images/map23_RdPu_scaleRev_orientMir_000.png"" style= ""width:200px""alt=""img"">
                            </div>
                        </div>",0.615,"",0,"",NA,"","images/map23_RdPu_scaleRev_orientMir_000.png","happy",1,23,23,"RdPu","orientMir","scaleRev","000",NA,NA
"","","","","","html-slider-response",148,334929,"0.0-140.0","h5nofx51vd",29,NA,"<div style=""width:500px;"">
                            <p style=""font-size:50px; font-weight:bold;""
                            >happy</p>
                            <div style=""width:240px; margin: auto;"">
                                <img src=""images/map27_PRGn_scaleRev_orientMir_180.png"" style= ""width:200px""alt=""img"">
                            </div>
                        </div>",0,"",0,"",NA,"","images/map27_PRGn_scaleRev_orientMir_180.png","happy",1,27,27,"PRGn","orientMir","scaleRev","180",NA,NA
"","","","","","html-slider-response",149,336662,"0.0-141.0","h5nofx51vd",29,NA,"<div style=""width:500px;"">
                            <p style=""font-size:50px; font-weight:bold;""
                            >happy</p>
                            <div style=""width:240px; margin: auto;"">
                                <img src=""images/map27_PiYG_scaleRev_orientMir_000.png"" style= ""width:200px""alt=""img"">
                            </div>
                        </div>",0.425,"",0,"",NA,"","images/map27_PiYG_scaleRev_orientMir_000.png","happy",1,27,27,"PiYG","orientMir","scaleRev","000",NA,NA
"","","","","","html-slider-response",150,338178,"0.0-142.0","h5nofx51vd",29,NA,"<div style=""width:500px;"">
                            <p style=""font-size:50px; font-weight:bold;""
                            >happy</p>
                            <div style=""width:240px; margin: auto;"">
                                <img src=""images/map23_GnBu_scaleDef_orientMir_270.png"" style= ""width:200px""alt=""img"">
                            </div>
                        </div>",0.12,"",0,"",NA,"","images/map23_GnBu_scaleDef_orientMir_270.png","happy",1,23,23,"GnBu","orientMir","scaleDef","270",NA,NA
"","","","","","html-slider-response",151,339712,"0.0-143.0","h5nofx51vd",29,NA,"<div style=""width:500px;"">
                            <p style=""font-size:50px; font-weight:bold;""
                            >happy</p>
                            <div style=""width:240px; margin: auto;"">
                                <img src=""images/map07_bwr_scaleRev_orientDef_000.png"" style= ""width:200px""alt=""img"">
                            </div>
                        </div>",0.475,"",0,"",NA,"","images/map07_bwr_scaleRev_orientDef_000.png","happy",1,7,7,"bwr","orientDef","scaleRev","000",NA,NA
"","","","","","html-slider-response",152,341381,"0.0-144.0","h5nofx51vd",29,NA,"<div style=""width:500px;"">
                            <p style=""font-size:50px; font-weight:bold;""
                            >happy</p>
                            <div style=""width:240px; margin: auto;"">
                                <img src=""images/map23_PuRd_scaleDef_orientDef_090.png"" style= ""width:200px""alt=""img"">
                            </div>
                        </div>",0.7,"",0,"",NA,"","images/map23_PuRd_scaleDef_orientDef_090.png","happy",1,23,23,"PuRd","orientDef","scaleDef","090",NA,NA
"","","","","","html-slider-response",153,343812,"0.0-145.0","h5nofx51vd",29,NA,"<div style=""width:500px;"">
                            <p style=""font-size:50px; font-weight:bold;""
                            >happy</p>
                            <div style=""width:240px; margin: auto;"">
                                <img src=""images/map12_plasma_scaleRev_orientDef_000.png"" style= ""width:200px""alt=""img"">
                            </div>
                        </div>",0.775,"",0,"",NA,"","images/map12_plasma_scaleRev_orientDef_000.png","happy",1,12,12,"plasma","orientDef","scaleRev","000",NA,NA
"","","","","","html-slider-response",154,346348,"0.0-146.0","h5nofx51vd",29,NA,"<div style=""width:500px;"">
                            <p style=""font-size:50px; font-weight:bold;""
                            >happy</p>
                            <div style=""width:240px; margin: auto;"">
                                <img src=""images/map07_berlin_scaleRev_orientMir_000.png"" style= ""width:200px""alt=""img"">
                            </div>
                        </div>",0.135,"",0,"",NA,"","images/map07_berlin_scaleRev_orientMir_000.png","happy",1,7,7,"berlin","orientMir","scaleRev","000",NA,NA
"","","","","","html-slider-response",155,348148,"0.0-147.0","h5nofx51vd",29,NA,"<div style=""width:500px;"">
                            <p style=""font-size:50px; font-weight:bold;""
                            >happy</p>
                            <div style=""width:240px; margin: auto;"">
                                <img src=""images/map15_YlOrBr_scaleRev_orientMir_000.png"" style= ""width:200px""alt=""img"">
                            </div>
                        </div>",0.8175,"",0,"",NA,"","images/map15_YlOrBr_scaleRev_orientMir_000.png","happy",1,15,15,"YlOrBr","orientMir","scaleRev","000",NA,NA
"","","","","","html-slider-response",156,349864,"0.0-148.0","h5nofx51vd",29,NA,"<div style=""width:500px;"">
                            <p style=""font-size:50px; font-weight:bold;""
                            >happy</p>
                            <div style=""width:240px; margin: auto;"">
                                <img src=""images/map12_cividis_scaleDef_orientMir_090.png"" style= ""width:200px""alt=""img"">
                            </div>
                        </div>",0.205,"",0,"",NA,"","images/map12_cividis_scaleDef_orientMir_090.png","happy",1,12,12,"cividis","orientMir","scaleDef","090",NA,NA
"","","","","","html-slider-response",157,351862,"0.0-149.0","h5nofx51vd",29,NA,"<div style=""width:500px;"">
                            <p style=""font-size:50px; font-weight:bold;""
                            >happy</p>
                            <div style=""width:240px; margin: auto;"">
                                <img src=""images/map07_berlin_scaleDef_orientDef_270.png"" style= ""width:200px""alt=""img"">
                            </div>
                        </div>",0.5475,"",0,"",NA,"","images/map07_berlin_scaleDef_orientDef_270.png","happy",1,7,7,"berlin","orientDef","scaleDef","270",NA,NA
"","","","","","html-slider-response",158,353778,"0.0-150.0","h5nofx51vd",29,NA,"<div style=""width:500px;"">
                            <p style=""font-size:50px; font-weight:bold;""
                            >happy</p>
                            <div style=""width:240px; margin: auto;"">
                                <img src=""images/map02_RdYlBu_scaleDef_orientMir_270.png"" style= ""width:200px""alt=""img"">
                            </div>
                        </div>",0.805,"",0,"",NA,"","images/map02_RdYlBu_scaleDef_orientMir_270.png","happy",1,2,2,"RdYlBu","orientMir","scaleDef","270",NA,NA
"","","","","","html-slider-response",159,355929,"0.0-151.0","h5nofx51vd",29,NA,"<div style=""width:500px;"">
                            <p style=""font-size:50px; font-weight:bold;""
                            >happy</p>
                            <div style=""width:240px; margin: auto;"">
                                <img src=""images/map27_BrBG_scaleDef_orientMir_270.png"" style= ""width:200px""alt=""img"">
                            </div>
                        </div>",0.5925,"",0,"",NA,"","images/map27_BrBG_scaleDef_orientMir_270.png","happy",1,27,27,"BrBG","orientMir","scaleDef","270",NA,NA
"","","","","","html-slider-response",160,357912,"0.0-152.0","h5nofx51vd",29,NA,"<div style=""width:500px;"">
                            <p style=""font-size:50px; font-weight:bold;""
                            >happy</p>
                            <div style=""width:240px; margin: auto;"">
                                <img src=""images/map15_OrRd_scaleDef_orientMir_270.png"" style= ""width:200px""alt=""img"">
                            </div>
                        </div>",0.4425,"",0,"",NA,"","images/map15_OrRd_scaleDef_orientMir_270.png","happy",1,15,15,"OrRd","orientMir","scaleDef","270",NA,NA
"","","","","","html-slider-response",161,359730,"0.0-153.0","h5nofx51vd",29,NA,"<div style=""width:500px;"">
                            <p style=""font-size:50px; font-weight:bold;""
                            >happy</p>
                            <div style=""width:240px; margin: auto;"">
                                <img src=""images/map23_RdPu_scaleDef_orientDef_270.png"" style= ""width:200px""alt=""img"">
                            </div>
                        </div>",0.615,"",0,"",NA,"","images/map23_RdPu_scaleDef_orientDef_270.png","happy",1,23,23,"RdPu","orientDef","scaleDef","270",NA,NA
"","","","","","html-slider-response",162,362095,"0.0-154.0","h5nofx51vd",29,NA,"<div style=""width:500px;"">
                            <p style=""font-size:50px; font-weight:bold;""
                            >happy</p>
                            <div style=""width:240px; margin: auto;"">
                                <img src=""images/map10_turbo_scaleDef_orientDef_270.png"" style= ""width:200px""alt=""img"">
                            </div>
                        </div>",0.585,"",0,"",NA,"","images/map10_turbo_scaleDef_orientDef_270.png","happy",1,10,10,"turbo","orientDef","scaleDef","270",NA,NA
"","","","","","html-slider-response",163,364081,"0.0-155.0","h5nofx51vd",29,NA,"<div style=""width:500px;"">
                            <p style=""font-size:50px; font-weight:bold;""
                            >happy</p>
                            <div style=""width:240px; margin: auto;"">
                                <img src=""images/map05_Spectral_scaleDef_orientDef_270.png"" style= ""width:200px""alt=""img"">
                            </div>
                        </div>",0.5875,"",0,"",NA,"","images/map05_Spectral_scaleDef_orientDef_270.png","happy",1,5,5,"Spectral","orientDef","scaleDef","270",NA,NA
"","","","","","html-slider-response",164,366012,"0.0-156.0","h5nofx51vd",29,NA,"<div style=""width:500px;"">
                            <p style=""font-size:50px; font-weight:bold;""
                            >happy</p>
