"success","timeout","failed_images","failed_audio","failed_video","trial_type","trial_index","time_elapsed","internal_node_id","subject_id","condition_num","rt","stimulus","response","question_order","slider_start","practiceTrial","practiceTrialNum","correct","image_path","concept","repetition","map_id","map_num","scale_name","orientation_code","mapping_code","rotation_code","ishihara_plate","correct_response"
"true","false","[]","[]","[]","preload",0,339,"0.0-0.0","g2l44a46gg",29,NA,"",NA,"",NA,"",NA,"","","",NA,NA,NA,"","","","",NA,NA
"","","","","","html-button-response",1,4661,"0.0-1.0","g2l44a46gg",29,4321,"Welcome to our experiment!<p>At the bottom of this screen, you will see a button that says ""Begin Experiment"".<br>Please only click that button when you are ready to complete the 30 minute experiment in one sitting.</p><p> Once you click that button, it will not be possible to restart the experiment.",0.5,"",NA,"",NA,"","","",NA,NA,NA,"","","","",NA,NA
"true","","","","","fullscreen",2,6812,"0.0-2.0","g2l44a46gg",29,1146,"",NA,"",NA,"",NA,"","","",NA,NA,NA,"","","","",NA,NA
"","","","","","survey-multi-select",3,11772,"0.0-3.0","g2l44a46gg",29,4957,"",NA,"[0]",NA,"",NA,"","","",NA,NA,NA,"","","","",NA,NA
"","","","","","html-button-response",4,13190,"0.0-4.0","g2l44a46gg",29,1417,"Welcome! <p> This experiment involves two parts: demographic information, followed by the experimental task.<p> It will take about 30 minutes to complete both parts.",0.5,"",NA,"",NA,"","","",NA,NA,NA,"","","","",NA,NA
"","","","","","survey-text",5,36239,"0.0-5.0","g2l44a46gg",29,23044,"",NA,"",NA,"",NA,"","","",NA,NA,NA,"","","","",NA,NA
"","","","","","html-slider-response",6,39053,"0.0-6.0","g2l44a46gg",29,2809,"<div style='text-align:left; font-size:20px; line-height:25px; width: 1000px;'>
                                During this experiment you will be asked to rate how much you associate maps with                    different concepts.<br> Below, you can see some examples of the maps you will be asked to rate. Above the maps
                    is the list of concepts.<br>You will be asked                    to rate how much you associate each map with each concept on a scale from 'not at all' to 'very much' like the
                    one below. <br><br>
                    Now, please look at the list of concepts and maps. For each concept, think about the map you associate 'very
                    much' with the concept.<br>                     When you see that map during the experiment, please rate it near the 'very much' endpoint of the
                    scale.<br>Now, please think about which map you associate 'not at all'                     with each concept. When you see that map during the experiment, please rate it near the 'not at all' endpoint
                    of the scale.<br>
                    Please use the full range of the scale. That is, if a map is somewhat associated with the concept, you would
                    click partway between the middle point and right side of the scale.                    You will be asked to rate each map for a given concept before moving on to the next concept.<br>Press the
                    'Continue' button for instructions on how to use the slider.                    <br>
                </div>

                <div style=""width: 500px; margin: 0 auto;"">
                    <!-- Centered text paragraphs -->
                    <div style=""text-align: center; width: 500px;"">
                        <p style=""font-size:25px; line-height:15px;"">
                            angry&nbsp;&nbsp;&nbsp;&nbsp;
                            happy&nbsp;&nbsp;&nbsp;&nbsp;
                            sad&nbsp;&nbsp;&nbsp;&nbsp;
                            disgust&nbsp;&nbsp;&nbsp;&nbsp;
                            fearful
                        </p>
                        <!-- <p style=""font-size:20px; line-height:15px;"">happy</p>
                        <p style=""font-size:20px;line-height:15px;"">sad</p>
                        <p style=""font-size:20px;line-height:15px;"">disgust</p>
                        <p style=""font-size:20px;line-height:15px;"">fearful</p> -->
                    </div>
            

                    <!-- Grid section -->
                   <div style=""display: flex; justify-content: center; padding-top: 15px;"">
                    <div style=""display: grid; grid-template-columns: repeat(10, 55px); grid-gap: 5px; width: auto;"">
                        <img src=""images/map02_RdBu_scaleDef_orientMir_090.png"" alt=""map"" style=""width: 100%;""><img src=""images/map23_PuRd_scaleRev_orientDef_180.png"" alt=""map"" style=""width: 100%;""><img src=""images/map26_PuBu_scaleDef_orientDef_090.png"" alt=""map"" style=""width: 100%;""><img src=""images/map27_BuGn_scaleRev_orientDef_000.png"" alt=""map"" style=""width: 100%;""><img src=""images/map10_viridis_scaleDef_orientMir_090.png"" alt=""map"" style=""width: 100%;""><img src=""images/map12_inferno_scaleRev_orientDef_180.png"" alt=""map"" style=""width: 100%;""><img src=""images/map15_Oranges_scaleRev_orientDef_000.png"" alt=""map"" style=""width: 100%;""><img src=""images/map10_turbo_scaleRev_orientMir_000.png"" alt=""map"" style=""width: 100%;""><img src=""images/map05_RdYlBu_scaleRev_orientDef_000.png"" alt=""map"" style=""width: 100%;""><img src=""images/map05_Spectral_scaleDef_orientDef_270.png"" alt=""map"" style=""width: 100%;""><img src=""images/map05_coolwarm_scaleDef_orientMir_090.png"" alt=""map"" style=""width: 100%;""><img src=""images/map23_GnBu_scaleDef_orientMir_270.png"" alt=""map"" style=""width: 100%;""><img src=""images/map10_plasma_scaleDef_orientMir_270.png"" alt=""map"" style=""width: 100%;""><img src=""images/map23_BuPu_scaleDef_orientMir_090.png"" alt=""map"" style=""width: 100%;""><img src=""images/map15_Reds_scaleDef_orientDef_090.png"" alt=""map"" style=""width: 100%;""><img src=""images/map27_YlGn_scaleRev_orientDef_180.png"" alt=""map"" style=""width: 100%;""><img src=""images/map12_Greys_scaleDef_orientMir_270.png"" alt=""map"" style=""width: 100%;""><img src=""images/map13_Purples_scaleRev_orientDef_180.png"" alt=""map"" style=""width: 100%;""><img src=""images/map13_Blues_scaleDef_orientDef_270.png"" alt=""map"" style=""width: 100%;""><img src=""images/map07_seismic_scaleRev_orientDef_180.png"" alt=""map"" style=""width: 100%;""><img src=""images/map26_YlGnBu_scaleRev_orientMir_000.png"" alt=""map"" style=""width: 100%;""><img src=""images/map27_PiYG_scaleRev_orientMir_000.png"" alt=""map"" style=""width: 100%;""><img src=""images/map12_cividis_scaleRev_orientMir_180.png"" alt=""map"" style=""width: 100%;""><img src=""images/map23_OrRd_scaleRev_orientDef_000.png"" alt=""map"" style=""width: 100%;""><img src=""images/map13_Greens_scaleRev_orientMir_180.png"" alt=""map"" style=""width: 100%;""><img src=""images/map07_berlin_scaleDef_orientDef_270.png"" alt=""map"" style=""width: 100%;""><img src=""images/map27_PRGn_scaleDef_orientMir_090.png"" alt=""map"" style=""width: 100%;""><img src=""images/map05_RdYlGn_scaleDef_orientDef_090.png"" alt=""map"" style=""width: 100%;""><img src=""images/map02_PuOr_scaleRev_orientDef_180.png"" alt=""map"" style=""width: 100%;""><img src=""images/map15_YlOrRd_scaleRev_orientMir_180.png"" alt=""map"" style=""width: 100%;""><img src=""images/map15_YlOrBr_scaleDef_orientDef_270.png"" alt=""map"" style=""width: 100%;""><img src=""images/map10_vanimo_scaleRev_orientDef_000.png"" alt=""map"" style=""width: 100%;""><img src=""images/map12_magma_scaleRev_orientMir_000.png"" alt=""map"" style=""width: 100%;""><img src=""images/map26_PuBuGn_scaleDef_orientMir_090.png"" alt=""map"" style=""width: 100%;""><img src=""images/map07_bwr_scaleRev_orientDef_000.png"" alt=""map"" style=""width: 100%;""><img src=""images/map07_managua_scaleDef_orientMir_090.png"" alt=""map"" style=""width: 100%;""><img src=""images/map23_RdPu_scaleRev_orientMir_000.png"" alt=""map"" style=""width: 100%;""><img src=""images/map02_RdGy_scaleRev_orientMir_000.png"" alt=""map"" style=""width: 100%;""><img src=""images/map02_BrBG_scaleRev_orientDef_000.png"" alt=""map"" style=""width: 100%;""><img src=""images/map10_gist_earth_scaleDef_orientDef_090.png"" alt=""map"" style=""width: 100%;"">
                    </div>
                </div>

                    <!-- Clear floats -->
                    <div style=""clear: both;""></div>
                </div>
                            ",NA,"",0,"true",NA,"","","",NA,NA,NA,"","","","",NA,NA
"","","","","","html-button-response",7,42411,"0.0-7.0","g2l44a46gg",29,3357,"<div style=""width:800px;""><p style=""text-align:left"">To move the slider, click and drag your cursor to the location of the scale where you would like to make your rating and then let go. When you let go of the slider, your response will be recorded and the next trial will begin. <br>
                    We are interested in your initial impressions of each map for the given concept, so please go with your first intuition. <br>
                    Before you begin the experiment, there will be four training trials for you to practice using the scale. <br>
                     When you are ready to start the training trials, please click ""Continue"".</p><br></div>",0.5,"",NA,"",NA,"","","",NA,NA,NA,"","","","",NA,NA
"","","","","","html-slider-response",8,44325,"0.0-8.0-0.0","g2l44a46gg",29,NA,"<div style=""width:500px;"">
                                    <p style=""font-size:25px;"">Please move the slider all the way to the <br> right endpoint of the scale</p>

                                    </div>
                                </div>",1,"",0,"true",0,"true","","",NA,NA,NA,"","","","",NA,NA
"","","","","","html-button-response",9,45949,"0.0-8.0-1.0","g2l44a46gg",29,1109,"<p align='center'><b>Good job!</b> Click on 'Continue' to proceed.</p>",0.5,"",NA,"",NA,"","","",NA,NA,NA,"","","","",NA,NA
"","","","","","html-slider-response",10,47688,"0.0-9.0-0.0","g2l44a46gg",29,NA,"<div style=""width:500px;"">
                                    <p style=""font-size:25px;"">Please move the slider all the way to the <br> left endpoint of the scale</p>

                                    </div>
                                </div>",0,"",0,"true",1,"true","","",NA,NA,NA,"","","","",NA,NA
"","","","","","html-button-response",11,49025,"0.0-9.0-1.0","g2l44a46gg",29,831,"<p align='center'><b>Good job!</b> Click on 'Continue' to proceed.</p>",0.5,"",NA,"",NA,"","","",NA,NA,NA,"","","","",NA,NA
"","","","","","html-slider-response",12,53400,"0.0-10.0-0.0","g2l44a46gg",29,NA,"<div style=""width:500px;"">
                                    <p style=""font-size:25px;"">Please move the slider halfway between the center and right endpoint of the scale</p>

                                    </div>
                                </div>",0.775,"",0,"true",2,"true","","",NA,NA,NA,"","","","",NA,NA
"","","","","","html-button-response",13,54814,"0.0-10.0-1.0","g2l44a46gg",29,908,"<p align='center'><b>Good job!</b> Click on 'Continue' to proceed.</p>",0.5,"",NA,"",NA,"","","",NA,NA,NA,"","","","",NA,NA
"","","","","","html-slider-response",14,58160,"0.0-11.0-0.0","g2l44a46gg",29,NA,"<div style=""width:500px;"">
                                    <p style=""font-size:25px;"">Please move the slider halfway between the center and left endpoint of the scale</p>

                                    </div>
                                </div>",0.2125,"",0,"true",3,"false","","",NA,NA,NA,"","","","",NA,NA
"","","","","","html-button-response",15,61780,"0.0-11.0-1.0","g2l44a46gg",29,3117,"<p align='center'><b>Not quite!</b> The slider was not placed near the instructed located. Click on 'Continue' to try again. </p>",0.5,"",NA,"",NA,"","","",NA,NA,NA,"","","","",NA,NA
"","","","","","html-slider-response",16,68137,"0.0-11.1-0.1","g2l44a46gg",29,NA,"<div style=""width:500px;"">
                                    <p style=""font-size:25px;"">Please move the slider halfway between the center and left endpoint of the scale</p>

                                    </div>
                                </div>",0.24,"",0,"true",3,"true","","",NA,NA,NA,"","","","",NA,NA
"","","","","","html-button-response",17,69345,"0.0-11.1-1.1","g2l44a46gg",29,698,"<p align='center'><b>Good job!</b> Click on 'Continue' to proceed.</p>",0.5,"",NA,"",NA,"","","",NA,NA,NA,"","","","",NA,NA
"","","","","","html-button-response",18,71504,"0.0-12.0","g2l44a46gg",29,2159,"<p>Great job! You've completed the practice trials. Now you will begin the main task.</p>",0.5,"",NA,"",NA,"","","",NA,NA,NA,"","","","",NA,NA
"","","","","","html-button-response",19,75071,"0.0-13.0","g2l44a46gg",29,3566,"<p>In this block of trials, you will be asked to rate how much you associate each map with:</p > <p style = 'font-size:150%; font-weight: bold'>angry</p><br></br>",0.5,"",NA,"",NA,"","","",NA,NA,NA,"","","","",NA,NA
"","","","","","html-slider-response",20,81107,"0.0-14.0","g2l44a46gg",29,NA,"<div style=""width:500px;"">
                            <p style=""font-size:50px; font-weight:bold;""
                            >angry</p>
                            <div style=""width:240px; margin: auto;"">
                                <img src=""images/map26_PuBuGn_scaleDef_orientMir_090.png"" style= ""width:200px""alt=""img"">
                            </div>
                        </div>",0.0475,"",0,"",NA,"","images/map26_PuBuGn_scaleDef_orientMir_090.png","angry",1,26,26,"PuBuGn","orientMir","scaleDef","090",NA,NA
"","","","","","html-slider-response",21,84309,"0.0-15.0","g2l44a46gg",29,NA,"<div style=""width:500px;"">
                            <p style=""font-size:50px; font-weight:bold;""
                            >angry</p>
                            <div style=""width:240px; margin: auto;"">
                                <img src=""images/map05_Spectral_scaleRev_orientMir_000.png"" style= ""width:200px""alt=""img"">
                            </div>
                        </div>",0.595,"",0,"",NA,"","images/map05_Spectral_scaleRev_orientMir_000.png","angry",1,5,5,"Spectral","orientMir","scaleRev","000",NA,NA
"","","","","","html-slider-response",22,87696,"0.0-16.0","g2l44a46gg",29,NA,"<div style=""width:500px;"">
                            <p style=""font-size:50px; font-weight:bold;""
                            >angry</p>
                            <div style=""width:240px; margin: auto;"">
                                <img src=""images/map13_Blues_scaleDef_orientDef_270.png"" style= ""width:200px""alt=""img"">
                            </div>
                        </div>",0.0325,"",0,"",NA,"","images/map13_Blues_scaleDef_orientDef_270.png","angry",1,13,13,"Blues","orientDef","scaleDef","270",NA,NA
"","","","","","html-slider-response",23,90531,"0.0-17.0","g2l44a46gg",29,NA,"<div style=""width:500px;"">
                            <p style=""font-size:50px; font-weight:bold;""
                            >angry</p>
                            <div style=""width:240px; margin: auto;"">
                                <img src=""images/map05_bwr_scaleDef_orientMir_270.png"" style= ""width:200px""alt=""img"">
                            </div>
                        </div>",0.8525,"",0,"",NA,"","images/map05_bwr_scaleDef_orientMir_270.png","angry",1,5,5,"bwr","orientMir","scaleDef","270",NA,NA
"","","","","","html-slider-response",24,93604,"0.0-18.0","g2l44a46gg",29,NA,"<div style=""width:500px;"">
                            <p style=""font-size:50px; font-weight:bold;""
                            >angry</p>
                            <div style=""width:240px; margin: auto;"">
                                <img src=""images/map15_Oranges_scaleRev_orientDef_000.png"" style= ""width:200px""alt=""img"">
                            </div>
                        </div>",0.96,"",0,"",NA,"","images/map15_Oranges_scaleRev_orientDef_000.png","angry",1,15,15,"Oranges","orientDef","scaleRev","000",NA,NA
"","","","","","html-slider-response",25,96603,"0.0-19.0","g2l44a46gg",29,NA,"<div style=""width:500px;"">
                            <p style=""font-size:50px; font-weight:bold;""
                            >angry</p>
                            <div style=""width:240px; margin: auto;"">
                                <img src=""images/map10_turbo_scaleDef_orientDef_270.png"" style= ""width:200px""alt=""img"">
                            </div>
                        </div>",0.9525,"",0,"",NA,"","images/map10_turbo_scaleDef_orientDef_270.png","angry",1,10,10,"turbo","orientDef","scaleDef","270",NA,NA
"","","","","","html-slider-response",26,99006,"0.0-20.0","g2l44a46gg",29,NA,"<div style=""width:500px;"">
                            <p style=""font-size:50px; font-weight:bold;""
                            >angry</p>
                            <div style=""width:240px; margin: auto;"">
                                <img src=""images/map27_PiYG_scaleDef_orientDef_270.png"" style= ""width:200px""alt=""img"">
                            </div>
                        </div>",0.3875,"",0,"",NA,"","images/map27_PiYG_scaleDef_orientDef_270.png","angry",1,27,27,"PiYG","orientDef","scaleDef","270",NA,NA
"","","","","","html-slider-response",27,100977,"0.0-21.0","g2l44a46gg",29,NA,"<div style=""width:500px;"">
                            <p style=""font-size:50px; font-weight:bold;""
                            >angry</p>
                            <div style=""width:240px; margin: auto;"">
                                <img src=""images/map07_berlin_scaleRev_orientMir_000.png"" style= ""width:200px""alt=""img"">
                            </div>
                        </div>",0.6425,"",0,"",NA,"","images/map07_berlin_scaleRev_orientMir_000.png","angry",1,7,7,"berlin","orientMir","scaleRev","000",NA,NA
"","","","","","html-slider-response",28,102603,"0.0-22.0","g2l44a46gg",29,NA,"<div style=""width:500px;"">
                            <p style=""font-size:50px; font-weight:bold;""
                            >angry</p>
                            <div style=""width:240px; margin: auto;"">
                                <img src=""images/map12_inferno_scaleDef_orientDef_090.png"" style= ""width:200px""alt=""img"">
                            </div>
                        </div>",1,"",0,"",NA,"","images/map12_inferno_scaleDef_orientDef_090.png","angry",1,12,12,"inferno","orientDef","scaleDef","090",NA,NA
"","","","","","html-slider-response",29,108896,"0.0-23.0","g2l44a46gg",29,NA,"<div style=""width:500px;"">
                            <p style=""font-size:50px; font-weight:bold;""
                            >angry</p>
                            <div style=""width:240px; margin: auto;"">
                                <img src=""images/map07_managua_scaleDef_orientMir_090.png"" style= ""width:200px""alt=""img"">
                            </div>
                        </div>",0.635,"",0,"",NA,"","images/map07_managua_scaleDef_orientMir_090.png","angry",1,7,7,"managua","orientMir","scaleDef","090",NA,NA
"","","","","","html-slider-response",30,111806,"0.0-24.0","g2l44a46gg",29,NA,"<div style=""width:500px;"">
                            <p style=""font-size:50px; font-weight:bold;""
                            >angry</p>
                            <div style=""width:240px; margin: auto;"">
                                <img src=""images/map05_RdYlGn_scaleRev_orientDef_180.png"" style= ""width:200px""alt=""img"">
                            </div>
                        </div>",0.305,"",0,"",NA,"","images/map05_RdYlGn_scaleRev_orientDef_180.png","angry",1,5,5,"RdYlGn","orientDef","scaleRev","180",NA,NA
"","","","","","html-slider-response",31,114045,"0.0-25.0","g2l44a46gg",29,NA,"<div style=""width:500px;"">
                            <p style=""font-size:50px; font-weight:bold;""
                            >angry</p>
                            <div style=""width:240px; margin: auto;"">
                                <img src=""images/map12_magma_scaleDef_orientDef_270.png"" style= ""width:200px""alt=""img"">
                            </div>
                        </div>",0.65,"",0,"",NA,"","images/map12_magma_scaleDef_orientDef_270.png","angry",1,12,12,"magma","orientDef","scaleDef","270",NA,NA
"","","","","","html-slider-response",32,116553,"0.0-26.0","g2l44a46gg",29,NA,"<div style=""width:500px;"">
                            <p style=""font-size:50px; font-weight:bold;""
                            >angry</p>
                            <div style=""width:240px; margin: auto;"">
                                <img src=""images/map23_PuRd_scaleRev_orientDef_180.png"" style= ""width:200px""alt=""img"">
                            </div>
                        </div>",0.8225,"",0,"",NA,"","images/map23_PuRd_scaleRev_orientDef_180.png","angry",1,23,23,"PuRd","orientDef","scaleRev","180",NA,NA
"","","","","","html-slider-response",33,118370,"0.0-27.0","g2l44a46gg",29,NA,"<div style=""width:500px;"">
                            <p style=""font-size:50px; font-weight:bold;""
                            >angry</p>
                            <div style=""width:240px; margin: auto;"">
                                <img src=""images/map02_RdGy_scaleRev_orientMir_000.png"" style= ""width:200px""alt=""img"">
                            </div>
                        </div>",0.645,"",0,"",NA,"","images/map02_RdGy_scaleRev_orientMir_000.png","angry",1,2,2,"RdGy","orientMir","scaleRev","000",NA,NA
"","","","","","html-slider-response",34,120108,"0.0-28.0","g2l44a46gg",29,NA,"<div style=""width:500px;"">
                            <p style=""font-size:50px; font-weight:bold;""
                            >angry</p>
                            <div style=""width:240px; margin: auto;"">
                                <img src=""images/map23_GnBu_scaleDef_orientMir_270.png"" style= ""width:200px""alt=""img"">
                            </div>
                        </div>",0.34,"",0,"",NA,"","images/map23_GnBu_scaleDef_orientMir_270.png","angry",1,23,23,"GnBu","orientMir","scaleDef","270",NA,NA
"","","","","","html-slider-response",35,122244,"0.0-29.0","g2l44a46gg",29,NA,"<div style=""width:500px;"">
                            <p style=""font-size:50px; font-weight:bold;""
                            >angry</p>
                            <div style=""width:240px; margin: auto;"">
                                <img src=""images/map15_OrRd_scaleDef_orientMir_270.png"" style= ""width:200px""alt=""img"">
                            </div>
                        </div>",0.795,"",0,"",NA,"","images/map15_OrRd_scaleDef_orientMir_270.png","angry",1,15,15,"OrRd","orientMir","scaleDef","270",NA,NA
"","","","","","html-slider-response",36,123988,"0.0-30.0","g2l44a46gg",29,NA,"<div style=""width:500px;"">
                            <p style=""font-size:50px; font-weight:bold;""
                            >angry</p>
                            <div style=""width:240px; margin: auto;"">
                                <img src=""images/map13_Purples_scaleDef_orientDef_090.png"" style= ""width:200px""alt=""img"">
                            </div>
                        </div>",0.1775,"",0,"",NA,"","images/map13_Purples_scaleDef_orientDef_090.png","angry",1,13,13,"Purples","orientDef","scaleDef","090",NA,NA
"","","","","","html-slider-response",37,125542,"0.0-31.0","g2l44a46gg",29,NA,"<div style=""width:500px;"">
                            <p style=""font-size:50px; font-weight:bold;""
                            >angry</p>
                            <div style=""width:240px; margin: auto;"">
                                <img src=""images/map05_coolwarm_scaleDef_orientMir_090.png"" style= ""width:200px""alt=""img"">
                            </div>
                        </div>",0.585,"",0,"",NA,"","images/map05_coolwarm_scaleDef_orientMir_090.png","angry",1,5,5,"coolwarm","orientMir","scaleDef","090",NA,NA
"","","","","","html-slider-response",38,127106,"0.0-32.0","g2l44a46gg",29,NA,"<div style=""width:500px;"">
                            <p style=""font-size:50px; font-weight:bold;""
                            >angry</p>
                            <div style=""width:240px; margin: auto;"">
                                <img src=""images/map10_viridis_scaleDef_orientMir_090.png"" style= ""width:200px""alt=""img"">
                            </div>
                        </div>",0.295,"",0,"",NA,"","images/map10_viridis_scaleDef_orientMir_090.png","angry",1,10,10,"viridis","orientMir","scaleDef","090",NA,NA
"","","","","","html-slider-response",39,128597,"0.0-33.0","g2l44a46gg",29,NA,"<div style=""width:500px;"">
                            <p style=""font-size:50px; font-weight:bold;""
                            >angry</p>
                            <div style=""width:240px; margin: auto;"">
                                <img src=""images/map02_RdBu_scaleRev_orientMir_180.png"" style= ""width:200px""alt=""img"">
                            </div>
                        </div>",0.555,"",0,"",NA,"","images/map02_RdBu_scaleRev_orientMir_180.png","angry",1,2,2,"RdBu","orientMir","scaleRev","180",NA,NA
"","","","","","html-slider-response",40,130827,"0.0-34.0","g2l44a46gg",29,NA,"<div style=""width:500px;"">
                            <p style=""font-size:50px; font-weight:bold;""
                            >angry</p>
                            <div style=""width:240px; margin: auto;"">
                                <img src=""images/map23_BuPu_scaleRev_orientMir_180.png"" style= ""width:200px""alt=""img"">
                            </div>
                        </div>",0.4525,"",0,"",NA,"","images/map23_BuPu_scaleRev_orientMir_180.png","angry",1,23,23,"BuPu","orientMir","scaleRev","180",NA,NA
"","","","","","html-slider-response",41,132907,"0.0-35.0","g2l44a46gg",29,NA,"<div style=""width:500px;"">
                            <p style=""font-size:50px; font-weight:bold;""
                            >angry</p>
                            <div style=""width:240px; margin: auto;"">
                                <img src=""images/map12_cividis_scaleDef_orientMir_090.png"" style= ""width:200px""alt=""img"">
                            </div>
                        </div>",0.4125,"",0,"",NA,"","images/map12_cividis_scaleDef_orientMir_090.png","angry",1,12,12,"cividis","orientMir","scaleDef","090",NA,NA
"","","","","","html-slider-response",42,137697,"0.0-36.0","g2l44a46gg",29,NA,"<div style=""width:500px;"">
                            <p style=""font-size:50px; font-weight:bold;""
                            >angry</p>
                            <div style=""width:240px; margin: auto;"">
                                <img src=""images/map27_YlGn_scaleRev_orientDef_180.png"" style= ""width:200px""alt=""img"">
                            </div>
                        </div>",0.375,"",0,"",NA,"","images/map27_YlGn_scaleRev_orientDef_180.png","angry",1,27,27,"YlGn","orientDef","scaleRev","180",NA,NA
"","","","","","html-slider-response",43,139337,"0.0-37.0","g2l44a46gg",29,NA,"<div style=""width:500px;"">
                            <p style=""font-size:50px; font-weight:bold;""
                            >angry</p>
                            <div style=""width:240px; margin: auto;"">
                                <img src=""images/map27_BuGn_scaleRev_orientDef_000.png"" style= ""width:200px""alt=""img"">
                            </div>
                        </div>",0.395,"",0,"",NA,"","images/map27_BuGn_scaleRev_orientDef_000.png","angry",1,27,27,"BuGn","orientDef","scaleRev","000",NA,NA
"","","","","","html-slider-response",44,141668,"0.0-38.0","g2l44a46gg",29,NA,"<div style=""width:500px;"">
                            <p style=""font-size:50px; font-weight:bold;""
                            >angry</p>
                            <div style=""width:240px; margin: auto;"">
                                <img src=""images/map12_plasma_scaleRev_orientDef_000.png"" style= ""width:200px""alt=""img"">
                            </div>
                        </div>",0.655,"",0,"",NA,"","images/map12_plasma_scaleRev_orientDef_000.png","angry",1,12,12,"plasma","orientDef","scaleRev","000",NA,NA
"","","","","","html-slider-response",45,143587,"0.0-39.0","g2l44a46gg",29,NA,"<div style=""width:500px;"">
                            <p style=""font-size:50px; font-weight:bold;""
                            >angry</p>
                            <div style=""width:240px; margin: auto;"">
                                <img src=""images/map10_gist_earth_scaleDef_orientDef_090.png"" style= ""width:200px""alt=""img"">
                            </div>
                        </div>",0.3675,"",0,"",NA,"","images/map10_gist_earth_scaleDef_orientDef_090.png","angry",1,10,10,"gist","scaleDef","earth","orientDef",NA,NA
"","","","","","html-slider-response",46,147183,"0.0-40.0","g2l44a46gg",29,NA,"<div style=""width:500px;"">
                            <p style=""font-size:50px; font-weight:bold;""
                            >angry</p>
                            <div style=""width:240px; margin: auto;"">
                                <img src=""images/map05_RdYlGn_scaleDef_orientDef_090.png"" style= ""width:200px""alt=""img"">
                            </div>
                        </div>",0.6325,"",0,"",NA,"","images/map05_RdYlGn_scaleDef_orientDef_090.png","angry",1,5,5,"RdYlGn","orientDef","scaleDef","090",NA,NA
"","","","","","html-slider-response",47,149470,"0.0-41.0","g2l44a46gg",29,NA,"<div style=""width:500px;"">
                            <p style=""font-size:50px; font-weight:bold;""
                            >angry</p>
                            <div style=""width:240px; margin: auto;"">
                                <img src=""images/map13_Blues_scaleRev_orientMir_000.png"" style= ""width:200px""alt=""img"">
                            </div>
                        </div>",0.315,"",0,"",NA,"","images/map13_Blues_scaleRev_orientMir_000.png","angry",1,13,13,"Blues","orientMir","scaleRev","000",NA,NA
"","","","","","html-slider-response",48,151981,"0.0-42.0","g2l44a46gg",29,NA,"<div style=""width:500px;"">
                            <p style=""font-size:50px; font-weight:bold;""
                            >angry</p>
                            <div style=""width:240px; margin: auto;"">
                                <img src=""images/map07_berlin_scaleDef_orientDef_270.png"" style= ""width:200px""alt=""img"">
                            </div>
                        </div>",0.7025,"",0,"",NA,"","images/map07_berlin_scaleDef_orientDef_270.png","angry",1,7,7,"berlin","orientDef","scaleDef","270",NA,NA
"","","","","","html-slider-response",49,153847,"0.0-43.0","g2l44a46gg",29,NA,"<div style=""width:500px;"">
                            <p style=""font-size:50px; font-weight:bold;""
                            >angry</p>
                            <div style=""width:240px; margin: auto;"">
                                <img src=""images/map13_Oranges_scaleDef_orientMir_270.png"" style= ""width:200px""alt=""img"">
                            </div>
                        </div>",0.9225,"",0,"",NA,"","images/map13_Oranges_scaleDef_orientMir_270.png","angry",1,13,13,"Oranges","orientMir","scaleDef","270",NA,NA
"","","","","","html-slider-response",50,155898,"0.0-44.0","g2l44a46gg",29,NA,"<div style=""width:500px;"">
                            <p style=""font-size:50px; font-weight:bold;""
                            >angry</p>
                            <div style=""width:240px; margin: auto;"">
                                <img src=""images/map15_YlOrRd_scaleRev_orientMir_180.png"" style= ""width:200px""alt=""img"">
                            </div>
                        </div>",0.9475,"",0,"",NA,"","images/map15_YlOrRd_scaleRev_orientMir_180.png","angry",1,15,15,"YlOrRd","orientMir","scaleRev","180",NA,NA
"","","","","","html-slider-response",51,157694,"0.0-45.0","g2l44a46gg",29,NA,"<div style=""width:500px;"">
                            <p style=""font-size:50px; font-weight:bold;""
                            >angry</p>
                            <div style=""width:240px; margin: auto;"">
                                <img src=""images/map15_Reds_scaleRev_orientDef_180.png"" style= ""width:200px""alt=""img"">
                            </div>
                        </div>",0.9625,"",0,"",NA,"","images/map15_Reds_scaleRev_orientDef_180.png","angry",1,15,15,"Reds","orientDef","scaleRev","180",NA,NA
"","","","","","html-slider-response",52,159344,"0.0-46.0","g2l44a46gg",29,NA,"<div style=""width:500px;"">
                            <p style=""font-size:50px; font-weight:bold;""
                            >angry</p>
                            <div style=""width:240px; margin: auto;"">
                                <img src=""images/map15_YlOrBr_scaleDef_orientDef_270.png"" style= ""width:200px""alt=""img"">
                            </div>
                        </div>",0.865,"",0,"",NA,"","images/map15_YlOrBr_scaleDef_orientDef_270.png","angry",1,15,15,"YlOrBr","orientDef","scaleDef","270",NA,NA
"","","","","","html-slider-response",53,161124,"0.0-47.0","g2l44a46gg",29,NA,"<div style=""width:500px;"">
                            <p style=""font-size:50px; font-weight:bold;""
                            >angry</p>
                            <div style=""width:240px; margin: auto;"">
                                <img src=""images/map10_viridis_scaleRev_orientMir_180.png"" style= ""width:200px""alt=""img"">
                            </div>
                        </div>",0.3225,"",0,"",NA,"","images/map10_viridis_scaleRev_orientMir_180.png","angry",1,10,10,"viridis","orientMir","scaleRev","180",NA,NA
"","","","","","html-slider-response",54,163321,"0.0-48.0","g2l44a46gg",29,NA,"<div style=""width:500px;"">
                            <p style=""font-size:50px; font-weight:bold;""
                            >angry</p>
                            <div style=""width:240px; margin: auto;"">
                                <img src=""images/map13_Greens_scaleDef_orientMir_090.png"" style= ""width:200px""alt=""img"">
                            </div>
                        </div>",0.4525,"",0,"",NA,"","images/map13_Greens_scaleDef_orientMir_090.png","angry",1,13,13,"Greens","orientMir","scaleDef","090",NA,NA
"","","","","","html-slider-response",55,165252,"0.0-49.0","g2l44a46gg",29,NA,"<div style=""width:500px;"">
                            <p style=""font-size:50px; font-weight:bold;""
                            >angry</p>
                            <div style=""width:240px; margin: auto;"">
                                <img src=""images/map26_YlGnBu_scaleRev_orientMir_000.png"" style= ""width:200px""alt=""img"">
                            </div>
                        </div>",0.365,"",0,"",NA,"","images/map26_YlGnBu_scaleRev_orientMir_000.png","angry",1,26,26,"YlGnBu","orientMir","scaleRev","000",NA,NA
"","","","","","html-slider-response",56,168006,"0.0-50.0","g2l44a46gg",29,NA,"<div style=""width:500px;"">
                            <p style=""font-size:50px; font-weight:bold;""
                            >angry</p>
                            <div style=""width:240px; margin: auto;"">
                                <img src=""images/map12_inferno_scaleRev_orientDef_180.png"" style= ""width:200px""alt=""img"">
                            </div>
                        </div>",0.9875,"",0,"",NA,"","images/map12_inferno_scaleRev_orientDef_180.png","angry",1,12,12,"inferno","orientDef","scaleRev","180",NA,NA
"","","","","","html-slider-response",57,170016,"0.0-51.0","g2l44a46gg",29,NA,"<div style=""width:500px;"">
                            <p style=""font-size:50px; font-weight:bold;""
                            >angry</p>
                            <div style=""width:240px; margin: auto;"">
                                <img src=""images/map26_YlGnBu_scaleDef_orientDef_270.png"" style= ""width:200px""alt=""img"">
                            </div>
                        </div>",0.34,"",0,"",NA,"","images/map26_YlGnBu_scaleDef_orientDef_270.png","angry",1,26,26,"YlGnBu","orientDef","scaleDef","270",NA,NA
"","","","","","html-slider-response",58,172959,"0.0-52.0","g2l44a46gg",29,NA,"<div style=""width:500px;"">
                            <p style=""font-size:50px; font-weight:bold;""
                            >angry</p>
                            <div style=""width:240px; margin: auto;"">
                                <img src=""images/map15_YlOrRd_scaleDef_orientMir_090.png"" style= ""width:200px""alt=""img"">
                            </div>
                        </div>",0.975,"",0,"",NA,"","images/map15_YlOrRd_scaleDef_orientMir_090.png","angry",1,15,15,"YlOrRd","orientMir","scaleDef","090",NA,NA
"","","","","","html-slider-response",59,181996,"0.0-53.0","g2l44a46gg",29,NA,"<div style=""width:500px;"">
                            <p style=""font-size:50px; font-weight:bold;""
                            >angry</p>
                            <div style=""width:240px; margin: auto;"">
                                <img src=""images/map23_RdPu_scaleDef_orientDef_270.png"" style= ""width:200px""alt=""img"">
                            </div>
                        </div>",0.805,"",0,"",NA,"","images/map23_RdPu_scaleDef_orientDef_270.png","angry",1,23,23,"RdPu","orientDef","scaleDef","270",NA,NA
"","","","","","html-button-response",60,184003,"0.0-54.0","g2l44a46gg",29,1497,"<p>You are doing great!<br></br> You are halway done with the current block. When you are ready to continue, click the 'Continue' button.</p>",0.5,"",NA,"",NA,"","","",NA,NA,NA,"","","","",NA,NA
"","","","","","html-slider-response",61,186460,"0.0-55.0","g2l44a46gg",29,NA,"<div style=""width:500px;"">
                            <p style=""font-size:50px; font-weight:bold;""
                            >angry</p>
                            <div style=""width:240px; margin: auto;"">
                                <img src=""images/map05_coolwarm_scaleRev_orientMir_180.png"" style= ""width:200px""alt=""img"">
                            </div>
                        </div>",0.275,"",0,"",NA,"","images/map05_coolwarm_scaleRev_orientMir_180.png","angry",1,5,5,"coolwarm","orientMir","scaleRev","180",NA,NA
"","","","","","html-slider-response",62,189046,"0.0-56.0","g2l44a46gg",29,NA,"<div style=""width:500px;"">
                            <p style=""font-size:50px; font-weight:bold;""
                            >angry</p>
                            <div style=""width:240px; margin: auto;"">
                                <img src=""images/map27_PiYG_scaleRev_orientMir_000.png"" style= ""width:200px""alt=""img"">
                            </div>
                        </div>",0.385,"",0,"",NA,"","images/map27_PiYG_scaleRev_orientMir_000.png","angry",1,27,27,"PiYG","orientMir","scaleRev","000",NA,NA
"","","","","","html-slider-response",63,191282,"0.0-57.0","g2l44a46gg",29,NA,"<div style=""width:500px;"">
                            <p style=""font-size:50px; font-weight:bold;""
                            >angry</p>
                            <div style=""width:240px; margin: auto;"">
                                <img src=""images/map12_cividis_scaleRev_orientMir_180.png"" style= ""width:200px""alt=""img"">
                            </div>
                        </div>",0.74,"",0,"",NA,"","images/map12_cividis_scaleRev_orientMir_180.png","angry",1,12,12,"cividis","orientMir","scaleRev","180",NA,NA
"","","","","","html-slider-response",64,193184,"0.0-58.0","g2l44a46gg",29,NA,"<div style=""width:500px;"">
                            <p style=""font-size:50px; font-weight:bold;""
                            >angry</p>
                            <div style=""width:240px; margin: auto;"">
                                <img src=""images/map10_vanimo_scaleRev_orientDef_000.png"" style= ""width:200px""alt=""img"">
                            </div>
                        </div>",0.305,"",0,"",NA,"","images/map10_vanimo_scaleRev_orientDef_000.png","angry",1,10,10,"vanimo","orientDef","scaleRev","000",NA,NA
"","","","","","html-slider-response",65,195515,"0.0-59.0","g2l44a46gg",29,NA,"<div style=""width:500px;"">
                            <p style=""font-size:50px; font-weight:bold;""
                            >angry</p>
                            <div style=""width:240px; margin: auto;"">
                                <img src=""images/map07_seismic_scaleDef_orientDef_090.png"" style= ""width:200px""alt=""img"">
                            </div>
                        </div>",0.8775,"",0,"",NA,"","images/map07_seismic_scaleDef_orientDef_090.png","angry",1,7,7,"seismic","orientDef","scaleDef","090",NA,NA
"","","","","","html-slider-response",66,198057,"0.0-60.0","g2l44a46gg",29,NA,"<div style=""width:500px;"">
                            <p style=""font-size:50px; font-weight:bold;""
                            >angry</p>
                            <div style=""width:240px; margin: auto;"">
                                <img src=""images/map02_RdGy_scaleDef_orientDef_270.png"" style= ""width:200px""alt=""img"">
                            </div>
                        </div>",0.82,"",0,"",NA,"","images/map02_RdGy_scaleDef_orientDef_270.png","angry",1,2,2,"RdGy","orientDef","scaleDef","270",NA,NA
"","","","","","html-slider-response",67,200025,"0.0-61.0","g2l44a46gg",29,NA,"<div style=""width:500px;"">
                            <p style=""font-size:50px; font-weight:bold;""
                            >angry</p>
                            <div style=""width:240px; margin: auto;"">
                                <img src=""images/map26_GnBu_scaleRev_orientDef_000.png"" style= ""width:200px""alt=""img"">
                            </div>
                        </div>",0.1725,"",0,"",NA,"","images/map26_GnBu_scaleRev_orientDef_000.png","angry",1,26,26,"GnBu","orientDef","scaleRev","000",NA,NA
"","","","","","html-slider-response",68,202880,"0.0-62.0","g2l44a46gg",29,NA,"<div style=""width:500px;"">
                            <p style=""font-size:50px; font-weight:bold;""
                            >angry</p>
                            <div style=""width:240px; margin: auto;"">
                                <img src=""images/map23_PuRd_scaleDef_orientDef_090.png"" style= ""width:200px""alt=""img"">
                            </div>
                        </div>",0.3575,"",0,"",NA,"","images/map23_PuRd_scaleDef_orientDef_090.png","angry",1,23,23,"PuRd","orientDef","scaleDef","090",NA,NA
"","","","","","html-slider-response",69,205308,"0.0-63.0","g2l44a46gg",29,NA,"<div style=""width:500px;"">
                            <p style=""font-size:50px; font-weight:bold;""
                            >angry</p>
                            <div style=""width:240px; margin: auto;"">
                                <img src=""images/map10_gist_earth_scaleRev_orientDef_180.png"" style= ""width:200px""alt=""img"">
                            </div>
                        </div>",0.3225,"",0,"",NA,"","images/map10_gist_earth_scaleRev_orientDef_180.png","angry",1,10,10,"gist","scaleRev","earth","orientDef",NA,NA
"","","","","","html-slider-response",70,207315,"0.0-64.0","g2l44a46gg",29,NA,"<div style=""width:500px;"">
                            <p style=""font-size:50px; font-weight:bold;""
                            >angry</p>
                            <div style=""width:240px; margin: auto;"">
                                <img src=""images/map15_YlOrBr_scaleRev_orientMir_000.png"" style= ""width:200px""alt=""img"">
                            </div>
                        </div>",0.835,"",0,"",NA,"","images/map15_YlOrBr_scaleRev_orientMir_000.png","angry",1,15,15,"YlOrBr","orientMir","scaleRev","000",NA,NA
"","","","","","html-slider-response",71,210783,"0.0-65.0","g2l44a46gg",29,NA,"<div style=""width:500px;"">
                            <p style=""font-size:50px; font-weight:bold;""
                            >angry</p>
                            <div style=""width:240px; margin: auto;"">
                                <img src=""images/map26_PuBuGn_scaleRev_orientMir_180.png"" style= ""width:200px""alt=""img"">
                            </div>
                        </div>",0.295,"",0,"",NA,"","images/map26_PuBuGn_scaleRev_orientMir_180.png","angry",1,26,26,"PuBuGn","orientMir","scaleRev","180",NA,NA
"","","","","","html-slider-response",72,212513,"0.0-66.0","g2l44a46gg",29,NA,"<div style=""width:500px;"">
                            <p style=""font-size:50px; font-weight:bold;""
                            >angry</p>
                            <div style=""width:240px; margin: auto;"">
                                <img src=""images/map07_seismic_scaleRev_orientDef_180.png"" style= ""width:200px""alt=""img"">
                            </div>
                        </div>",0.295,"",0,"",NA,"","images/map07_seismic_scaleRev_orientDef_180.png","angry",1,7,7,"seismic","orientDef","scaleRev","180",NA,NA
"","","","","","html-slider-response",73,214313,"0.0-67.0","g2l44a46gg",29,NA,"<div style=""width:500px;"">
                            <p style=""font-size:50px; font-weight:bold;""
                            >angry</p>
                            <div style=""width:240px; margin: auto;"">
                                <img src=""images/map07_managua_scaleRev_orientMir_180.png"" style= ""width:200px""alt=""img"">
                            </div>
                        </div>",0.3,"",0,"",NA,"","images/map07_managua_scaleRev_orientMir_180.png","angry",1,7,7,"managua","orientMir","scaleRev","180",NA,NA
"","","","","","html-slider-response",74,216633,"0.0-68.0","g2l44a46gg",29,NA,"<div style=""width:500px;"">
                            <p style=""font-size:50px; font-weight:bold;""
                            >angry</p>
                            <div style=""width:240px; margin: auto;"">
                                <img src=""images/map23_RdPu_scaleRev_orientMir_000.png"" style= ""width:200px""alt=""img"">
                            </div>
                        </div>",0.895,"",0,"",NA,"","images/map23_RdPu_scaleRev_orientMir_000.png","angry",1,23,23,"RdPu","orientMir","scaleRev","000",NA,NA
"","","","","","html-slider-response",75,218243,"0.0-69.0","g2l44a46gg",29,NA,"<div style=""width:500px;"">
                            <p style=""font-size:50px; font-weight:bold;""
                            >angry</p>
                            <div style=""width:240px; margin: auto;"">
                                <img src=""images/map27_YlGn_scaleDef_orientDef_090.png"" style= ""width:200px""alt=""img"">
                            </div>
                        </div>",0.2275,"",0,"",NA,"","images/map27_YlGn_scaleDef_orientDef_090.png","angry",1,27,27,"YlGn","orientDef","scaleDef","090",NA,NA
"","","","","","html-slider-response",76,219860,"0.0-70.0","g2l44a46gg",29,NA,"<div style=""width:500px;"">
                            <p style=""font-size:50px; font-weight:bold;""
                            >angry</p>
                            <div style=""width:240px; margin: auto;"">
                                <img src=""images/map07_bwr_scaleRev_orientDef_000.png"" style= ""width:200px""alt=""img"">
                            </div>
                        </div>",0.8325,"",0,"",NA,"","images/map07_bwr_scaleRev_orientDef_000.png","angry",1,7,7,"bwr","orientDef","scaleRev","000",NA,NA
"","","","","","html-slider-response",77,221664,"0.0-71.0","g2l44a46gg",29,NA,"<div style=""width:500px;"">
                            <p style=""font-size:50px; font-weight:bold;""
                            >angry</p>
                            <div style=""width:240px; margin: auto;"">
                                <img src=""images/map10_turbo_scaleRev_orientMir_000.png"" style= ""width:200px""alt=""img"">
                            </div>
                        </div>",0.275,"",0,"",NA,"","images/map10_turbo_scaleRev_orientMir_000.png","angry",1,10,10,"turbo","orientMir","scaleRev","000",NA,NA
"","","","","","html-slider-response",78,224536,"0.0-72.0","g2l44a46gg",29,NA,"<div style=""width:500px;"">
                            <p style=""font-size:50px; font-weight:bold;""
                            >angry</p>
                            <div style=""width:240px; margin: auto;"">
                                <img src=""images/map02_BrBG_scaleRev_orientDef_000.png"" style= ""width:200px""alt=""img"">
                            </div>
                        </div>",0.76,"",0,"",NA,"","images/map02_BrBG_scaleRev_orientDef_000.png","angry",1,2,2,"BrBG","orientDef","scaleRev","000",NA,NA
"","","","","","html-slider-response",79,227380,"0.0-73.0","g2l44a46gg",29,NA,"<div style=""width:500px;"">
                            <p style=""font-size:50px; font-weight:bold;""
                            >angry</p>
                            <div style=""width:240px; margin: auto;"">
                                <img src=""images/map23_BuPu_scaleDef_orientMir_090.png"" style= ""width:200px""alt=""img"">
                            </div>
                        </div>",0.175,"",0,"",NA,"","images/map23_BuPu_scaleDef_orientMir_090.png","angry",1,23,23,"BuPu","orientMir","scaleDef","090",NA,NA
"","","","","","html-slider-response",80,231879,"0.0-74.0","g2l44a46gg",29,NA,"<div style=""width:500px;"">
                            <p style=""font-size:50px; font-weight:bold;""
                            >angry</p>
                            <div style=""width:240px; margin: auto;"">
                                <img src=""images/map27_BrBG_scaleDef_orientMir_270.png"" style= ""width:200px""alt=""img"">
                            </div>
                        </div>",0.1475,"",0,"",NA,"","images/map27_BrBG_scaleDef_orientMir_270.png","angry",1,27,27,"BrBG","orientMir","scaleDef","270",NA,NA
"","","","","","html-slider-response",81,233803,"0.0-75.0","g2l44a46gg",29,NA,"<div style=""width:500px;"">
                            <p style=""font-size:50px; font-weight:bold;""
                            >angry</p>
                            <div style=""width:240px; margin: auto;"">
                                <img src=""images/map13_Greens_scaleRev_orientMir_180.png"" style= ""width:200px""alt=""img"">
                            </div>
                        </div>",0.175,"",0,"",NA,"","images/map13_Greens_scaleRev_orientMir_180.png","angry",1,13,13,"Greens","orientMir","scaleRev","180",NA,NA
"","","","","","html-slider-response",82,235865,"0.0-76.0","g2l44a46gg",29,NA,"<div style=""width:500px;"">
                            <p style=""font-size:50px; font-weight:bold;""
                            >angry</p>
                            <div style=""width:240px; margin: auto;"">
                                <img src=""images/map05_Spectral_scaleDef_orientDef_270.png"" style= ""width:200px""alt=""img"">
                            </div>
                        </div>",0.835,"",0,"",NA,"","images/map05_Spectral_scaleDef_orientDef_270.png","angry",1,5,5,"Spectral","orientDef","scaleDef","270",NA,NA
"","","","","","html-slider-response",83,238982,"0.0-77.0","g2l44a46gg",29,NA,"<div style=""width:500px;"">
                            <p style=""font-size:50px; font-weight:bold;""
                            >angry</p>
                            <div style=""width:240px; margin: auto;"">
                                <img src=""images/map12_magma_scaleRev_orientMir_000.png"" style= ""width:200px""alt=""img"">
                            </div>
                        </div>",0.84,"",0,"",NA,"","images/map12_magma_scaleRev_orientMir_000.png","angry",1,12,12,"magma","orientMir","scaleRev","000",NA,NA
"","","","","","html-slider-response",84,240908,"0.0-78.0","g2l44a46gg",29,NA,"<div style=""width:500px;"">
                            <p style=""font-size:50px; font-weight:bold;""
                            >angry</p>
                            <div style=""width:240px; margin: auto;"">
                                <img src=""images/map26_PuBu_scaleDef_orientDef_090.png"" style= ""width:200px""alt=""img"">
                            </div>
                        </div>",0.1175,"",0,"",NA,"","images/map26_PuBu_scaleDef_orientDef_090.png","angry",1,26,26,"PuBu","orientDef","scaleDef","090",NA,NA
"","","","","","html-slider-response",85,242592,"0.0-79.0","g2l44a46gg",29,NA,"<div style=""width:500px;"">
                            <p style=""font-size:50px; font-weight:bold;""
                            >angry</p>
                            <div style=""width:240px; margin: auto;"">
                                <img src=""images/map02_RdYlBu_scaleDef_orientMir_270.png"" style= ""width:200px""alt=""img"">
                            </div>
                        </div>",0.6925,"",0,"",NA,"","images/map02_RdYlBu_scaleDef_orientMir_270.png","angry",1,2,2,"RdYlBu","orientMir","scaleDef","270",NA,NA
"","","","","","html-slider-response",86,244707,"0.0-80.0","g2l44a46gg",29,NA,"<div style=""width:500px;"">
                            <p style=""font-size:50px; font-weight:bold;""
                            >angry</p>
                            <div style=""width:240px; margin: auto;"">
                                <img src=""images/map10_plasma_scaleDef_orientMir_270.png"" style= ""width:200px""alt=""img"">
                            </div>
                        </div>",0.875,"",0,"",NA,"","images/map10_plasma_scaleDef_orientMir_270.png","angry",1,10,10,"plasma","orientMir","scaleDef","270",NA,NA
"","","","","","html-slider-response",87,246498,"0.0-81.0","g2l44a46gg",29,NA,"<div style=""width:500px;"">
                            <p style=""font-size:50px; font-weight:bold;""
                            >angry</p>
                            <div style=""width:240px; margin: auto;"">
                                <img src=""images/map02_RdBu_scaleDef_orientMir_090.png"" style= ""width:200px""alt=""img"">
                            </div>
                        </div>",0.715,"",0,"",NA,"","images/map02_RdBu_scaleDef_orientMir_090.png","angry",1,2,2,"RdBu","orientMir","scaleDef","090",NA,NA
"","","","","","html-slider-response",88,248163,"0.0-82.0","g2l44a46gg",29,NA,"<div style=""width:500px;"">
                            <p style=""font-size:50px; font-weight:bold;""
                            >angry</p>
                            <div style=""width:240px; margin: auto;"">
                                <img src=""images/map27_PRGn_scaleRev_orientMir_180.png"" style= ""width:200px""alt=""img"">
                            </div>
                        </div>",0.14,"",0,"",NA,"","images/map27_PRGn_scaleRev_orientMir_180.png","angry",1,27,27,"PRGn","orientMir","scaleRev","180",NA,NA
"","","","","","html-slider-response",89,249964,"0.0-83.0","g2l44a46gg",29,NA,"<div style=""width:500px;"">
                            <p style=""font-size:50px; font-weight:bold;""
                            >angry</p>
                            <div style=""width:240px; margin: auto;"">
                                <img src=""images/map02_PuOr_scaleRev_orientDef_180.png"" style= ""width:200px""alt=""img"">
                            </div>
                        </div>",0.6775,"",0,"",NA,"","images/map02_PuOr_scaleRev_orientDef_180.png","angry",1,2,2,"PuOr","orientDef","scaleRev","180",NA,NA
"","","","","","html-slider-response",90,252699,"0.0-84.0","g2l44a46gg",29,NA,"<div style=""width:500px;"">
                            <p style=""font-size:50px; font-weight:bold;""
                            >angry</p>
                            <div style=""width:240px; margin: auto;"">
                                <img src=""images/map12_Greys_scaleDef_orientMir_270.png"" style= ""width:200px""alt=""img"">
                            </div>
                        </div>",0.0475,"",0,"",NA,"","images/map12_Greys_scaleDef_orientMir_270.png","angry",1,12,12,"Greys","orientMir","scaleDef","270",NA,NA
"","","","","","html-slider-response",91,254769,"0.0-85.0","g2l44a46gg",29,NA,"<div style=""width:500px;"">
                            <p style=""font-size:50px; font-weight:bold;""
                            >angry</p>
                            <div style=""width:240px; margin: auto;"">
                                <img src=""images/map02_PuOr_scaleDef_orientDef_090.png"" style= ""width:200px""alt=""img"">
                            </div>
                        </div>",0.1525,"",0,"",NA,"","images/map02_PuOr_scaleDef_orientDef_090.png","angry",1,2,2,"PuOr","orientDef","scaleDef","090",NA,NA
"","","","","","html-slider-response",92,257030,"0.0-86.0","g2l44a46gg",29,NA,"<div style=""width:500px;"">
                            <p style=""font-size:50px; font-weight:bold;""
                            >angry</p>
                            <div style=""width:240px; margin: auto;"">
                                <img src=""images/map13_Greys_scaleRev_orientDef_000.png"" style= ""width:200px""alt=""img"">
                            </div>
                        </div>",0.805,"",0,"",NA,"","images/map13_Greys_scaleRev_orientDef_000.png","angry",1,13,13,"Greys","orientDef","scaleRev","000",NA,NA
"","","","","","html-slider-response",93,259103,"0.0-87.0","g2l44a46gg",29,NA,"<div style=""width:500px;"">
                            <p style=""font-size:50px; font-weight:bold;""
                            >angry</p>
                            <div style=""width:240px; margin: auto;"">
                                <img src=""images/map15_Reds_scaleDef_orientDef_090.png"" style= ""width:200px""alt=""img"">
                            </div>
                        </div>",0.975,"",0,"",NA,"","images/map15_Reds_scaleDef_orientDef_090.png","angry",1,15,15,"Reds","orientDef","scaleDef","090",NA,NA
"","","","","","html-slider-response",94,260723,"0.0-88.0","g2l44a46gg",29,NA,"<div style=""width:500px;"">
                            <p style=""font-size:50px; font-weight:bold;""
                            >angry</p>
                            <div style=""width:240px; margin: auto;"">
                                <img src=""images/map13_Purples_scaleRev_orientDef_180.png"" style= ""width:200px""alt=""img"">
                            </div>
                        </div>",0.12,"",0,"",NA,"","images/map13_Purples_scaleRev_orientDef_180.png","angry",1,13,13,"Purples","orientDef","scaleRev","180",NA,NA
"","","","","","html-slider-response",95,262545,"0.0-89.0","g2l44a46gg",29,NA,"<div style=""width:500px;"">
                            <p style=""font-size:50px; font-weight:bold;""
                            >angry</p>
                            <div style=""width:240px; margin: auto;"">
                                <img src=""images/map07_vanimo_scaleDef_orientMir_270.png"" style= ""width:200px""alt=""img"">
                            </div>
                        </div>",0.315,"",0,"",NA,"","images/map07_vanimo_scaleDef_orientMir_270.png","angry",1,7,7,"vanimo","orientMir","scaleDef","270",NA,NA
"","","","","","html-slider-response",96,264068,"0.0-90.0","g2l44a46gg",29,NA,"<div style=""width:500px;"">
                            <p style=""font-size:50px; font-weight:bold;""
                            >angry</p>
                            <div style=""width:240px; margin: auto;"">
                                <img src=""images/map05_RdYlBu_scaleRev_orientDef_000.png"" style= ""width:200px""alt=""img"">
                            </div>
                        </div>",0.7125,"",0,"",NA,"","images/map05_RdYlBu_scaleRev_orientDef_000.png","angry",1,5,5,"RdYlBu","orientDef","scaleRev","000",NA,NA
"","","","","","html-slider-response",97,265808,"0.0-91.0","g2l44a46gg",29,NA,"<div style=""width:500px;"">
                            <p style=""font-size:50px; font-weight:bold;""
                            >angry</p>
                            <div style=""width:240px; margin: auto;"">
                                <img src=""images/map27_PRGn_scaleDef_orientMir_090.png"" style= ""width:200px""alt=""img"">
                            </div>
                        </div>",0.33,"",0,"",NA,"","images/map27_PRGn_scaleDef_orientMir_090.png","angry",1,27,27,"PRGn","orientMir","scaleDef","090",NA,NA
"","","","","","html-slider-response",98,267693,"0.0-92.0","g2l44a46gg",29,NA,"<div style=""width:500px;"">
                            <p style=""font-size:50px; font-weight:bold;""
                            >angry</p>
                            <div style=""width:240px; margin: auto;"">
                                <img src=""images/map26_PuBu_scaleRev_orientDef_180.png"" style= ""width:200px""alt=""img"">
                            </div>
                        </div>",0.0925,"",0,"",NA,"","images/map26_PuBu_scaleRev_orientDef_180.png","angry",1,26,26,"PuBu","orientDef","scaleRev","180",NA,NA
"","","","","","html-slider-response",99,269940,"0.0-93.0","g2l44a46gg",29,NA,"<div style=""width:500px;"">
                            <p style=""font-size:50px; font-weight:bold;""
                            >angry</p>
                            <div style=""width:240px; margin: auto;"">
                                <img src=""images/map23_OrRd_scaleRev_orientDef_000.png"" style= ""width:200px""alt=""img"">
                            </div>
                        </div>",1,"",0,"",NA,"","images/map23_OrRd_scaleRev_orientDef_000.png","angry",1,23,23,"OrRd","orientDef","scaleRev","000",NA,NA
"","","","","","html-slider-response",100,271921,"0.0-94.0","g2l44a46gg",29,NA,"<div style=""width:500px;"">
                            <p style=""font-size:50px; font-weight:bold;""
                            >angry</p>
                            <div style=""width:240px; margin: auto;"">
                                <img src=""images/map26_BuGn_scaleDef_orientMir_270.png"" style= ""width:200px""alt=""img"">
                            </div>
                        </div>",0.145,"",0,"",NA,"","images/map26_BuGn_scaleDef_orientMir_270.png","angry",1,26,26,"BuGn","orientMir","scaleDef","270",NA,NA
"","","","","","html-button-response",101,275543,"0.0-95.0","g2l44a46gg",29,3115,"<p>Great Job! You've finished block 1.<br></br> You have 4 block(s) left to go.<br></br></p>",0.5,"",NA,"",NA,"","","",NA,NA,NA,"","","","",NA,NA
"","","","","","html-button-response",102,276884,"0.0-96.0","g2l44a46gg",29,1340,"<p>In this block of trials, you will be asked to rate how much you associate each map with:</p > <p style = 'font-size:150%; font-weight: bold'>happy</p><br></br>",0.5,"",NA,"",NA,"","","",NA,NA,NA,"","","","",NA,NA
"","","","","","html-slider-response",103,279377,"0.0-97.0","g2l44a46gg",29,NA,"<div style=""width:500px;"">
                            <p style=""font-size:50px; font-weight:bold;""
                            >happy</p>
                            <div style=""width:240px; margin: auto;"">
                                <img src=""images/map12_magma_scaleDef_orientDef_270.png"" style= ""width:200px""alt=""img"">
                            </div>
                        </div>",0.06,"",0,"",NA,"","images/map12_magma_scaleDef_orientDef_270.png","happy",1,12,12,"magma","orientDef","scaleDef","270",NA,NA
"","","","","","html-slider-response",104,282598,"0.0-98.0","g2l44a46gg",29,NA,"<div style=""width:500px;"">
                            <p style=""font-size:50px; font-weight:bold;""
                            >happy</p>
                            <div style=""width:240px; margin: auto;"">
                                <img src=""images/map02_RdBu_scaleRev_orientMir_180.png"" style= ""width:200px""alt=""img"">
                            </div>
                        </div>",0.915,"",0,"",NA,"","images/map02_RdBu_scaleRev_orientMir_180.png","happy",1,2,2,"RdBu","orientMir","scaleRev","180",NA,NA
"","","","","","html-slider-response",105,284140,"0.0-99.0","g2l44a46gg",29,NA,"<div style=""width:500px;"">
                            <p style=""font-size:50px; font-weight:bold;""
                            >happy</p>
                            <div style=""width:240px; margin: auto;"">
                                <img src=""images/map26_PuBuGn_scaleRev_orientMir_180.png"" style= ""width:200px""alt=""img"">
                            </div>
                        </div>",0.915,"",0,"",NA,"","images/map26_PuBuGn_scaleRev_orientMir_180.png","happy",1,26,26,"PuBuGn","orientMir","scaleRev","180",NA,NA
"","","","","","html-slider-response",106,286267,"0.0-100.0","g2l44a46gg",29,NA,"<div style=""width:500px;"">
                            <p style=""font-size:50px; font-weight:bold;""
                            >happy</p>
                            <div style=""width:240px; margin: auto;"">
                                <img src=""images/map13_Blues_scaleDef_orientDef_270.png"" style= ""width:200px""alt=""img"">
                            </div>
                        </div>",0.915,"",0,"",NA,"","images/map13_Blues_scaleDef_orientDef_270.png","happy",1,13,13,"Blues","orientDef","scaleDef","270",NA,NA
"","","","","","html-slider-response",107,288263,"0.0-101.0","g2l44a46gg",29,NA,"<div style=""width:500px;"">
                            <p style=""font-size:50px; font-weight:bold;""
                            >happy</p>
                            <div style=""width:240px; margin: auto;"">
                                <img src=""images/map02_RdYlBu_scaleDef_orientMir_270.png"" style= ""width:200px""alt=""img"">
                            </div>
                        </div>",0.895,"",0,"",NA,"","images/map02_RdYlBu_scaleDef_orientMir_270.png","happy",1,2,2,"RdYlBu","orientMir","scaleDef","270",NA,NA
"","","","","","html-slider-response",108,290265,"0.0-102.0","g2l44a46gg",29,NA,"<div style=""width:500px;"">
                            <p style=""font-size:50px; font-weight:bold;""
                            >happy</p>
                            <div style=""width:240px; margin: auto;"">
                                <img src=""images/map15_YlOrBr_scaleDef_orientDef_270.png"" style= ""width:200px""alt=""img"">
                            </div>
                        </div>",0.895,"",0,"",NA,"","images/map15_YlOrBr_scaleDef_orientDef_270.png","happy",1,15,15,"YlOrBr","orientDef","scaleDef","270",NA,NA
"","","","","","html-slider-response",109,292204,"0.0-103.0","g2l44a46gg",29,NA,"<div style=""width:500px;"">
                            <p style=""font-size:50px; font-weight:bold;""
                            >happy</p>
                            <div style=""width:240px; margin: auto;"">
                                <img src=""images/map05_coolwarm_scaleDef_orientMir_090.png"" style= ""width:200px""alt=""img"">
                            </div>
                        </div>",0.2275,"",0,"",NA,"","images/map05_coolwarm_scaleDef_orientMir_090.png","happy",1,5,5,"coolwarm","orientMir","scaleDef","090",NA,NA
"","","","","","html-slider-response",110,294924,"0.0-104.0","g2l44a46gg",29,NA,"<div style=""width:500px;"">
                            <p style=""font-size:50px; font-weight:bold;""
                            >happy</p>
                            <div style=""width:240px; margin: auto;"">
                                <img src=""images/map10_turbo_scaleRev_orientMir_000.png"" style= ""width:200px""alt=""img"">
                            </div>
                        </div>",0.285,"",0,"",NA,"","images/map10_turbo_scaleRev_orientMir_000.png","happy",1,10,10,"turbo","orientMir","scaleRev","000",NA,NA
"","","","","","html-slider-response",111,297182,"0.0-105.0","g2l44a46gg",29,NA,"<div style=""width:500px;"">
                            <p style=""font-size:50px; font-weight:bold;""
                            >happy</p>
                            <div style=""width:240px; margin: auto;"">
                                <img src=""images/map23_PuRd_scaleRev_orientDef_180.png"" style= ""width:200px""alt=""img"">
                            </div>
                        </div>",0.94,"",0,"",NA,"","images/map23_PuRd_scaleRev_orientDef_180.png","happy",1,23,23,"PuRd","orientDef","scaleRev","180",NA,NA
"","","","","","html-slider-response",112,300193,"0.0-106.0","g2l44a46gg",29,NA,"<div style=""width:500px;"">
                            <p style=""font-size:50px; font-weight:bold;""
                            >happy</p>
                            <div style=""width:240px; margin: auto;"">
                                <img src=""images/map26_YlGnBu_scaleRev_orientMir_000.png"" style= ""width:200px""alt=""img"">
                            </div>
                        </div>",0.475,"",0,"",NA,"","images/map26_YlGnBu_scaleRev_orientMir_000.png","happy",1,26,26,"YlGnBu","orientMir","scaleRev","000",NA,NA
"","","","","","html-slider-response",113,302291,"0.0-107.0","g2l44a46gg",29,NA,"<div style=""width:500px;"">
                            <p style=""font-size:50px; font-weight:bold;""
                            >happy</p>
                            <div style=""width:240px; margin: auto;"">
                                <img src=""images/map15_OrRd_scaleDef_orientMir_270.png"" style= ""width:200px""alt=""img"">
                            </div>
                        </div>",0.74,"",0,"",NA,"","images/map15_OrRd_scaleDef_orientMir_270.png","happy",1,15,15,"OrRd","orientMir","scaleDef","270",NA,NA
"","","","","","html-slider-response",114,304437,"0.0-108.0","g2l44a46gg",29,NA,"<div style=""width:500px;"">
                            <p style=""font-size:50px; font-weight:bold;""
                            >happy</p>
                            <div style=""width:240px; margin: auto;"">
                                <img src=""images/map05_RdYlGn_scaleRev_orientDef_180.png"" style= ""width:200px""alt=""img"">
                            </div>
                        </div>",0.77,"",0,"",NA,"","images/map05_RdYlGn_scaleRev_orientDef_180.png","happy",1,5,5,"RdYlGn","orientDef","scaleRev","180",NA,NA
"","","","","","html-slider-response",115,306362,"0.0-109.0","g2l44a46gg",29,NA,"<div style=""width:500px;"">
                            <p style=""font-size:50px; font-weight:bold;""
                            >happy</p>
                            <div style=""width:240px; margin: auto;"">
                                <img src=""images/map27_PRGn_scaleDef_orientMir_090.png"" style= ""width:200px""alt=""img"">
                            </div>
                        </div>",0.84,"",0,"",NA,"","images/map27_PRGn_scaleDef_orientMir_090.png","happy",1,27,27,"PRGn","orientMir","scaleDef","090",NA,NA
"","","","","","html-slider-response",116,308315,"0.0-110.0","g2l44a46gg",29,NA,"<div style=""width:500px;"">
                            <p style=""font-size:50px; font-weight:bold;""
                            >happy</p>
                            <div style=""width:240px; margin: auto;"">
                                <img src=""images/map12_magma_scaleRev_orientMir_000.png"" style= ""width:200px""alt=""img"">
                            </div>
                        </div>",0.84,"",0,"",NA,"","images/map12_magma_scaleRev_orientMir_000.png","happy",1,12,12,"magma","orientMir","scaleRev","000",NA,NA
"","","","","","html-slider-response",117,310845,"0.0-111.0","g2l44a46gg",29,NA,"<div style=""width:500px;"">
                            <p style=""font-size:50px; font-weight:bold;""
                            >happy</p>
                            <div style=""width:240px; margin: auto;"">
                                <img src=""images/map12_cividis_scaleDef_orientMir_090.png"" style= ""width:200px""alt=""img"">
                            </div>
                        </div>",0.1325,"",0,"",NA,"","images/map12_cividis_scaleDef_orientMir_090.png","happy",1,12,12,"cividis","orientMir","scaleDef","090",NA,NA
"","","","","","html-slider-response",118,313130,"0.0-112.0","g2l44a46gg",29,NA,"<div style=""width:500px;"">
                            <p style=""font-size:50px; font-weight:bold;""
                            >happy</p>
                            <div style=""width:240px; margin: auto;"">
                                <img src=""images/map07_managua_scaleRev_orientMir_180.png"" style= ""width:200px""alt=""img"">
                            </div>
                        </div>",0.7725,"",0,"",NA,"","images/map07_managua_scaleRev_orientMir_180.png","happy",1,7,7,"managua","orientMir","scaleRev","180",NA,NA
"","","","","","html-slider-response",119,314834,"0.0-113.0","g2l44a46gg",29,NA,"<div style=""width:500px;"">
                            <p style=""font-size:50px; font-weight:bold;""
                            >happy</p>
                            <div style=""width:240px; margin: auto;"">
                                <img src=""images/map15_Reds_scaleDef_orientDef_090.png"" style= ""width:200px""alt=""img"">
                            </div>
                        </div>",0.825,"",0,"",NA,"","images/map15_Reds_scaleDef_orientDef_090.png","happy",1,15,15,"Reds","orientDef","scaleDef","090",NA,NA
"","","","","","html-slider-response",120,317378,"0.0-114.0","g2l44a46gg",29,NA,"<div style=""width:500px;"">
                            <p style=""font-size:50px; font-weight:bold;""
                            >happy</p>
                            <div style=""width:240px; margin: auto;"">
                                <img src=""images/map13_Blues_scaleRev_orientMir_000.png"" style= ""width:200px""alt=""img"">
                            </div>
                        </div>",0.795,"",0,"",NA,"","images/map13_Blues_scaleRev_orientMir_000.png","happy",1,13,13,"Blues","orientMir","scaleRev","000",NA,NA
"","","","","","html-slider-response",121,319358,"0.0-115.0","g2l44a46gg",29,NA,"<div style=""width:500px;"">
                            <p style=""font-size:50px; font-weight:bold;""
                            >happy</p>
                            <div style=""width:240px; margin: auto;"">
                                <img src=""images/map07_managua_scaleDef_orientMir_090.png"" style= ""width:200px""alt=""img"">
                            </div>
                        </div>",0.0275,"",0,"",NA,"","images/map07_managua_scaleDef_orientMir_090.png","happy",1,7,7,"managua","orientMir","scaleDef","090",NA,NA
"","","","","","html-slider-response",122,325031,"0.0-116.0","g2l44a46gg",29,NA,"<div style=""width:500px;"">
                            <p style=""font-size:50px; font-weight:bold;""
                            >happy</p>
                            <div style=""width:240px; margin: auto;"">
                                <img src=""images/map15_YlOrRd_scaleDef_orientMir_090.png"" style= ""width:200px""alt=""img"">
                            </div>
                        </div>",0.7275,"",0,"",NA,"","images/map15_YlOrRd_scaleDef_orientMir_090.png","happy",1,15,15,"YlOrRd","orientMir","scaleDef","090",NA,NA
"","","","","","html-slider-response",123,379832,"0.0-117.0","g2l44a46gg",29,NA,"<div style=""width:500px;"">
                            <p style=""font-size:50px; font-weight:bold;""
                            >happy</p>
                            <div style=""width:240px; margin: auto;"">
                                <img src=""images/map05_RdYlGn_scaleDef_orientDef_090.png"" style= ""width:200px""alt=""img"">
                            </div>
                        </div>",0.8175,"",0,"",NA,"","images/map05_RdYlGn_scaleDef_orientDef_090.png","happy",1,5,5,"RdYlGn","orientDef","scaleDef","090",NA,NA
"","","","","","html-slider-response",124,381477,"0.0-118.0","g2l44a46gg",29,NA,"<div style=""width:500px;"">
                            <p style=""font-size:50px; font-weight:bold;""
                            >happy</p>
                            <div style=""width:240px; margin: auto;"">
                                <img src=""images/map05_coolwarm_scaleRev_orientMir_180.png"" style= ""width:200px""alt=""img"">
                            </div>
                        </div>",0.745,"",0,"",NA,"","images/map05_coolwarm_scaleRev_orientMir_180.png","happy",1,5,5,"coolwarm","orientMir","scaleRev","180",NA,NA
"","","","","","html-slider-response",125,383307,"0.0-119.0","g2l44a46gg",29,NA,"<div style=""width:500px;"">
                            <p style=""font-size:50px; font-weight:bold;""
                            >happy</p>
                            <div style=""width:240px; margin: auto;"">
                                <img src=""images/map10_turbo_scaleDef_orientDef_270.png"" style= ""width:200px""alt=""img"">
                            </div>
                        </div>",0.8175,"",0,"",NA,"","images/map10_turbo_scaleDef_orientDef_270.png","happy",1,10,10,"turbo","orientDef","scaleDef","270",NA,NA
"","","","","","html-slider-response",126,384892,"0.0-120.0","g2l44a46gg",29,NA,"<div style=""width:500px;"">
                            <p style=""font-size:50px; font-weight:bold;""
                            >happy</p>
                            <div style=""width:240px; margin: auto;"">
                                <img src=""images/map27_YlGn_scaleRev_orientDef_180.png"" style= ""width:200px""alt=""img"">
                            </div>
                        </div>",0.835,"",0,"",NA,"","images/map27_YlGn_scaleRev_orientDef_180.png","happy",1,27,27,"YlGn","orientDef","scaleRev","180",NA,NA
"","","","","","html-slider-response",127,386763,"0.0-121.0","g2l44a46gg",29,NA,"<div style=""width:500px;"">
                            <p style=""font-size:50px; font-weight:bold;""
                            >happy</p>
                            <div style=""width:240px; margin: auto;"">
                                <img src=""images/map12_Greys_scaleDef_orientMir_270.png"" style= ""width:200px""alt=""img"">
                            </div>
                        </div>",0.075,"",0,"",NA,"","images/map12_Greys_scaleDef_orientMir_270.png","happy",1,12,12,"Greys","orientMir","scaleDef","270",NA,NA
"","","","","","html-slider-response",128,388104,"0.0-122.0","g2l44a46gg",29,NA,"<div style=""width:500px;"">
                            <p style=""font-size:50px; font-weight:bold;""
                            >happy</p>
                            <div style=""width:240px; margin: auto;"">
                                <img src=""images/map07_bwr_scaleRev_orientDef_000.png"" style= ""width:200px""alt=""img"">
                            </div>
                        </div>",0.795,"",0,"",NA,"","images/map07_bwr_scaleRev_orientDef_000.png","happy",1,7,7,"bwr","orientDef","scaleRev","000",NA,NA
"","","","","","html-slider-response",129,389269,"0.0-123.0","g2l44a46gg",29,NA,"<div style=""width:500px;"">
                            <p style=""font-size:50px; font-weight:bold;""
                            >happy</p>
                            <div style=""width:240px; margin: auto;"">
                                <img src=""images/map02_RdBu_scaleDef_orientMir_090.png"" style= ""width:200px""alt=""img"">
                            </div>
                        </div>",0.7875,"",0,"",NA,"","images/map02_RdBu_scaleDef_orientMir_090.png","happy",1,2,2,"RdBu","orientMir","scaleDef","090",NA,NA
"","","","","","html-slider-response",130,391604,"0.0-124.0","g2l44a46gg",29,NA,"<div style=""width:500px;"">
                            <p style=""font-size:50px; font-weight:bold;""
                            >happy</p>
                            <div style=""width:240px; margin: auto;"">
                                <img src=""images/map26_YlGnBu_scaleDef_orientDef_270.png"" style= ""width:200px""alt=""img"">
                            </div>
                        </div>",0.7675,"",0,"",NA,"","images/map26_YlGnBu_scaleDef_orientDef_270.png","happy",1,26,26,"YlGnBu","orientDef","scaleDef","270",NA,NA
"","","","","","html-slider-response",131,392685,"0.0-125.0","g2l44a46gg",29,NA,"<div style=""width:500px;"">
                            <p style=""font-size:50px; font-weight:bold;""
                            >happy</p>
                            <div style=""width:240px; margin: auto;"">
                                <img src=""images/map26_PuBu_scaleDef_orientDef_090.png"" style= ""width:200px""alt=""img"">
                            </div>
                        </div>",0.77,"",0,"",NA,"","images/map26_PuBu_scaleDef_orientDef_090.png","happy",1,26,26,"PuBu","orientDef","scaleDef","090",NA,NA
"","","","","","html-slider-response",132,394474,"0.0-126.0","g2l44a46gg",29,NA,"<div style=""width:500px;"">
                            <p style=""font-size:50px; font-weight:bold;""
                            >happy</p>
                            <div style=""width:240px; margin: auto;"">
                                <img src=""images/map13_Purples_scaleDef_orientDef_090.png"" style= ""width:200px""alt=""img"">
                            </div>
                        </div>",0.84,"",0,"",NA,"","images/map13_Purples_scaleDef_orientDef_090.png","happy",1,13,13,"Purples","orientDef","scaleDef","090",NA,NA
"","","","","","html-slider-response",133,395726,"0.0-127.0","g2l44a46gg",29,NA,"<div style=""width:500px;"">
                            <p style=""font-size:50px; font-weight:bold;""
                            >happy</p>
                            <div style=""width:240px; margin: auto;"">
                                <img src=""images/map10_viridis_scaleDef_orientMir_090.png"" style= ""width:200px""alt=""img"">
                            </div>
                        </div>",0.82,"",0,"",NA,"","images/map10_viridis_scaleDef_orientMir_090.png","happy",1,10,10,"viridis","orientMir","scaleDef","090",NA,NA
"","","","","","html-slider-response",134,397403,"0.0-128.0","g2l44a46gg",29,NA,"<div style=""width:500px;"">
                            <p style=""font-size:50px; font-weight:bold;""
                            >happy</p>
                            <div style=""width:240px; margin: auto;"">
                                <img src=""images/map23_BuPu_scaleRev_orientMir_180.png"" style= ""width:200px""alt=""img"">
                            </div>
                        </div>",0.9,"",0,"",NA,"","images/map23_BuPu_scaleRev_orientMir_180.png","happy",1,23,23,"BuPu","orientMir","scaleRev","180",NA,NA
"","","","","","html-slider-response",135,398743,"0.0-129.0","g2l44a46gg",29,NA,"<div style=""width:500px;"">
                            <p style=""font-size:50px; font-weight:bold;""
                            >happy</p>
                            <div style=""width:240px; margin: auto;"">
                                <img src=""images/map02_BrBG_scaleRev_orientDef_000.png"" style= ""width:200px""alt=""img"">
                            </div>
                        </div>",0.8625,"",0,"",NA,"","images/map02_BrBG_scaleRev_orientDef_000.png","happy",1,2,2,"BrBG","orientDef","scaleRev","000",NA,NA
"","","","","","html-slider-response",136,400075,"0.0-130.0","g2l44a46gg",29,NA,"<div style=""width:500px;"">
                            <p style=""font-size:50px; font-weight:bold;""
                            >happy</p>
                            <div style=""width:240px; margin: auto;"">
                                <img src=""images/map07_berlin_scaleRev_orientMir_000.png"" style= ""width:200px""alt=""img"">
                            </div>
                        </div>",0.8625,"",0,"",NA,"","images/map07_berlin_scaleRev_orientMir_000.png","happy",1,7,7,"berlin","orientMir","scaleRev","000",NA,NA
"","","","","","html-slider-response",137,402246,"0.0-131.0","g2l44a46gg",29,NA,"<div style=""width:500px;"">
                            <p style=""font-size:50px; font-weight:bold;""
                            >happy</p>
                            <div style=""width:240px; margin: auto;"">
                                <img src=""images/map07_seismic_scaleDef_orientDef_090.png"" style= ""width:200px""alt=""img"">
                            </div>
                        </div>",0.8675,"",0,"",NA,"","images/map07_seismic_scaleDef_orientDef_090.png","happy",1,7,7,"seismic","orientDef","scaleDef","090",NA,NA
"","","","","","html-slider-response",138,404266,"0.0-132.0","g2l44a46gg",29,NA,"<div style=""width:500px;"">
                            <p style=""font-size:50px; font-weight:bold;""
                            >happy</p>
                            <div style=""width:240px; margin: auto;"">
                                <img src=""images/map10_plasma_scaleDef_orientMir_270.png"" style= ""width:200px""alt=""img"">
                            </div>
                        </div>",0.8475,"",0,"",NA,"","images/map10_plasma_scaleDef_orientMir_270.png","happy",1,10,10,"plasma","orientMir","scaleDef","270",NA,NA
"","","","","","html-slider-response",139,410236,"0.0-133.0","g2l44a46gg",29,NA,"<div style=""width:500px;"">
                            <p style=""font-size:50px; font-weight:bold;""
                            >happy</p>
                            <div style=""width:240px; margin: auto;"">
                                <img src=""images/map05_Spectral_scaleDef_orientDef_270.png"" style= ""width:200px""alt=""img"">
                            </div>
                        </div>",0.9,"",0,"",NA,"","images/map05_Spectral_scaleDef_orientDef_270.png","happy",1,5,5,"Spectral","orientDef","scaleDef","270",NA,NA
"","","","","","html-slider-response",140,411741,"0.0-134.0","g2l44a46gg",29,NA,"<div style=""width:500px;"">
                            <p style=""font-size:50px; font-weight:bold;""
                            >happy</p>
                            <div style=""width:240px; margin: auto;"">
                                <img src=""images/map07_vanimo_scaleDef_orientMir_270.png"" style= ""width:200px""alt=""img"">
                            </div>
                        </div>",0.8775,"",0,"",NA,"","images/map07_vanimo_scaleDef_orientMir_270.png","happy",1,7,7,"vanimo","orientMir","scaleDef","270",NA,NA
"","","","","","html-slider-response",141,413509,"0.0-135.0","g2l44a46gg",29,NA,"<div style=""width:500px;"">
                            <p style=""font-size:50px; font-weight:bold;""
                            >happy</p>
                            <div style=""width:240px; margin: auto;"">
                                <img src=""images/map26_PuBuGn_scaleDef_orientMir_090.png"" style= ""width:200px""alt=""img"">
                            </div>
                        </div>",0.8675,"",0,"",NA,"","images/map26_PuBuGn_scaleDef_orientMir_090.png","happy",1,26,26,"PuBuGn","orientMir","scaleDef","090",NA,NA
"","","","","","html-slider-response",142,414855,"0.0-136.0","g2l44a46gg",29,NA,"<div style=""width:500px;"">
                            <p style=""font-size:50px; font-weight:bold;""
                            >happy</p>
                            <div style=""width:240px; margin: auto;"">
                                <img src=""images/map07_seismic_scaleRev_orientDef_180.png"" style= ""width:200px""alt=""img"">
                            </div>
                        </div>",0.8675,"",0,"",NA,"","images/map07_seismic_scaleRev_orientDef_180.png","happy",1,7,7,"seismic","orientDef","scaleRev","180",NA,NA
"","","","","","html-button-response",143,418126,"0.0-137.0","g2l44a46gg",29,2763,"<p>You are doing great!<br></br> You are halway done with the current block. When you are ready to continue, click the 'Continue' button.</p>",0.5,"",NA,"",NA,"","","",NA,NA,NA,"","","","",NA,NA
"","","","","","html-slider-response",144,419476,"0.0-138.0","g2l44a46gg",29,NA,"<div style=""width:500px;"">
                            <p style=""font-size:50px; font-weight:bold;""
                            >happy</p>
                            <div style=""width:240px; margin: auto;"">
                                <img src=""images/map26_PuBu_scaleRev_orientDef_180.png"" style= ""width:200px""alt=""img"">
                            </div>
                        </div>",0.9075,"",0,"",NA,"","images/map26_PuBu_scaleRev_orientDef_180.png","happy",1,26,26,"PuBu","orientDef","scaleRev","180",NA,NA
"","","","","","html-slider-response",145,421096,"0.0-139.0","g2l44a46gg",29,NA,"<div style=""width:500px;"">
                            <p style=""font-size:50px; font-weight:bold;""
                            >happy</p>
                            <div style=""width:240px; margin: auto;"">
                                <img src=""images/map23_RdPu_scaleRev_orientMir_000.png"" style= ""width:200px""alt=""img"">
                            </div>
                        </div>",0.8575,"",0,"",NA,"","images/map23_RdPu_scaleRev_orientMir_000.png","happy",1,23,23,"RdPu","orientMir","scaleRev","000",NA,NA
"","","","","","html-slider-response",146,422797,"0.0-140.0","g2l44a46gg",29,NA,"<div style=""width:500px;"">
                            <p style=""font-size:50px; font-weight:bold;""
                            >happy</p>
                            <div style=""width:240px; margin: auto;"">
                                <img src=""images/map15_YlOrRd_scaleRev_orientMir_180.png"" style= ""width:200px""alt=""img"">
                            </div>
                        </div>",0.865,"",0,"",NA,"","images/map15_YlOrRd_scaleRev_orientMir_180.png","happy",1,15,15,"YlOrRd","orientMir","scaleRev","180",NA,NA
"","","","","","html-slider-response",147,426257,"0.0-141.0","g2l44a46gg",29,NA,"<div style=""width:500px;"">
                            <p style=""font-size:50px; font-weight:bold;""
                            >happy</p>
                            <div style=""width:240px; margin: auto;"">
                                <img src=""images/map13_Greens_scaleRev_orientMir_180.png"" style= ""width:200px""alt=""img"">
                            </div>
                        </div>",0.885,"",0,"",NA,"","images/map13_Greens_scaleRev_orientMir_180.png","happy",1,13,13,"Greens","orientMir","scaleRev","180",NA,NA
"","","","","","html-slider-response",148,430107,"0.0-142.0","g2l44a46gg",29,NA,"<div style=""width:500px;"">
                            <p style=""font-size:50px; font-weight:bold;""
                            >happy</p>
                            <div style=""width:240px; margin: auto;"">
                                <img src=""images/map23_RdPu_scaleDef_orientDef_270.png"" style= ""width:200px""alt=""img"">
                            </div>
                        </div>",0.875,"",0,"",NA,"","images/map23_RdPu_scaleDef_orientDef_270.png","happy",1,23,23,"RdPu","orientDef","scaleDef","270",NA,NA
"","","","","","html-slider-response",149,439534,"0.0-143.0","g2l44a46gg",29,NA,"<div style=""width:500px;"">
                            <p style=""font-size:50px; font-weight:bold;""
                            >happy</p>
                            <div style=""width:240px; margin: auto;"">
                                <img src=""images/map02_PuOr_scaleDef_orientDef_090.png"" style= ""width:200px""alt=""img"">
                            </div>
                        </div>",0.835,"",0,"",NA,"","images/map02_PuOr_scaleDef_orientDef_090.png","happy",1,2,2,"PuOr","orientDef","scaleDef","090",NA,NA
"","","","","","html-slider-response",150,441344,"0.0-144.0","g2l44a46gg",29,NA,"<div style=""width:500px;"">
                            <p style=""font-size:50px; font-weight:bold;""
                            >happy</p>
                            <div style=""width:240px; margin: auto;"">
                                <img src=""images/map27_PRGn_scaleRev_orientMir_180.png"" style= ""width:200px""alt=""img"">
                            </div>
                        </div>",0.925,"",0,"",NA,"","images/map27_PRGn_scaleRev_orientMir_180.png","happy",1,27,27,"PRGn","orientMir","scaleRev","180",NA,NA
"","","","","","html-slider-response",151,443936,"0.0-145.0","g2l44a46gg",29,NA,"<div style=""width:500px;"">
                            <p style=""font-size:50px; font-weight:bold;""
                            >happy</p>
                            <div style=""width:240px; margin: auto;"">
                                <img src=""images/map27_PiYG_scaleRev_orientMir_000.png"" style= ""width:200px""alt=""img"">
                            </div>
                        </div>",0.89,"",0,"",NA,"","images/map27_PiYG_scaleRev_orientMir_000.png","happy",1,27,27,"PiYG","orientMir","scaleRev","000",NA,NA
"","","","","","html-slider-response",152,446205,"0.0-146.0","g2l44a46gg",29,NA,"<div style=""width:500px;"">
                            <p style=""font-size:50px; font-weight:bold;""
                            >happy</p>
                            <div style=""width:240px; margin: auto;"">
                                <img src=""images/map27_YlGn_scaleDef_orientDef_090.png"" style= ""width:200px""alt=""img"">
                            </div>
                        </div>",0.8625,"",0,"",NA,"","images/map27_YlGn_scaleDef_orientDef_090.png","happy",1,27,27,"YlGn","orientDef","scaleDef","090",NA,NA
"","","","","","html-slider-response",153,448726,"0.0-147.0","g2l44a46gg",29,NA,"<div style=""width:500px;"">
                            <p style=""font-size:50px; font-weight:bold;""
                            >happy</p>
                            <div style=""width:240px; margin: auto;"">
                                <img src=""images/map05_RdYlBu_scaleRev_orientDef_000.png"" style= ""width:200px""alt=""img"">
                            </div>
                        </div>",0.8775,"",0,"",NA,"","images/map05_RdYlBu_scaleRev_orientDef_000.png","happy",1,5,5,"RdYlBu","orientDef","scaleRev","000",NA,NA
"","","","","","html-slider-response",154,455932,"0.0-148.0","g2l44a46gg",29,NA,"<div style=""width:500px;"">
                            <p style=""font-size:50px; font-weight:bold;""
                            >happy</p>
                            <div style=""width:240px; margin: auto;"">
                                <img src=""images/map12_inferno_scaleRev_orientDef_180.png"" style= ""width:200px""alt=""img"">
                            </div>
                        </div>",0.8875,"",0,"",NA,"","images/map12_inferno_scaleRev_orientDef_180.png","happy",1,12,12,"inferno","orientDef","scaleRev","180",NA,NA
"","","","","","html-slider-response",155,461513,"0.0-149.0","g2l44a46gg",29,NA,"<div style=""width:500px;"">
                            <p style=""font-size:50px; font-weight:bold;""
                            >happy</p>
                            <div style=""width:240px; margin: auto;"">
                                <img src=""images/map13_Greys_scaleRev_orientDef_000.png"" style= ""width:200px""alt=""img"">
                            </div>
                        </div>",0.1225,"",0,"",NA,"","images/map13_Greys_scaleRev_orientDef_000.png","happy",1,13,13,"Greys","orientDef","scaleRev","000",NA,NA
"","","","","","html-slider-response",156,464690,"0.0-150.0","g2l44a46gg",29,NA,"<div style=""width:500px;"">
                            <p style=""font-size:50px; font-weight:bold;""
                            >happy</p>
                            <div style=""width:240px; margin: auto;"">
                                <img src=""images/map02_RdGy_scaleDef_orientDef_270.png"" style= ""width:200px""alt=""img"">
                            </div>
                        </div>",0.92,"",0,"",NA,"","images/map02_RdGy_scaleDef_orientDef_270.png","happy",1,2,2,"RdGy","orientDef","scaleDef","270",NA,NA
"","","","","","html-slider-response",157,466300,"0.0-151.0","g2l44a46gg",29,NA,"<div style=""width:500px;"">
                            <p style=""font-size:50px; font-weight:bold;""
                            >happy</p>
                            <div style=""width:240px; margin: auto;"">
                                <img src=""images/map27_BuGn_scaleRev_orientDef_000.png"" style= ""width:200px""alt=""img"">
                            </div>
                        </div>",0.935,"",0,"",NA,"","images/map27_BuGn_scaleRev_orientDef_000.png","happy",1,27,27,"BuGn","orientDef","scaleRev","000",NA,NA
"","","","","","html-slider-response",158,468000,"0.0-152.0","g2l44a46gg",29,NA,"<div style=""width:500px;"">
                            <p style=""font-size:50px; font-weight:bold;""
                            >happy</p>
                            <div style=""width:240px; margin: auto;"">
                                <img src=""images/map13_Purples_scaleRev_orientDef_180.png"" style= ""width:200px""alt=""img"">
                            </div>
                        </div>",0.925,"",0,"",NA,"","images/map13_Purples_scaleRev_orientDef_180.png","happy",1,13,13,"Purples","orientDef","scaleRev","180",NA,NA
"","","","","","html-slider-response",159,470177,"0.0-153.0","g2l44a46gg",29,NA,"<div style=""width:500px;"">
                            <p style=""font-size:50px; font-weight:bold;""
                            >happy</p>
                            <div style=""width:240px; margin: auto;"">
                                <img src=""images/map12_cividis_scaleRev_orientMir_180.png"" style= ""width:200px""alt=""img"">
                            </div>
                        </div>",0.1,"",0,"",NA,"","images/map12_cividis_scaleRev_orientMir_180.png","happy",1,12,12,"cividis","orientMir","scaleRev","180",NA,NA
"","","","","","html-slider-response",160,471848,"0.0-154.0","g2l44a46gg",29,NA,"<div style=""width:500px;"">
                            <p style=""font-size:50px; font-weight:bold;""
                            >happy</p>
                            <div style=""width:240px; margin: auto;"">
                                <img src=""images/map27_BrBG_scaleDef_orientMir_270.png"" style= ""width:200px""alt=""img"">
                            </div>
                        </div>",0.6175,"",0,"",NA,"","images/map27_BrBG_scaleDef_orientMir_270.png","happy",1,27,27,"BrBG","orientMir","scaleDef","270",NA,NA
"","","","","","html-slider-response",161,473844,"0.0-155.0","g2l44a46gg",29,NA,"<div style=""width:500px;"">
                            <p style=""font-size:50px; font-weight:bold;""
                            >happy</p>
                            <div style=""width:240px; margin: auto;"">
                                <img src=""images/map10_viridis_scaleRev_orientMir_180.png"" style= ""width:200px""alt=""img"">
                            </div>
                        </div>",0.865,"",0,"",NA,"","images/map10_viridis_scaleRev_orientMir_180.png","happy",1,10,10,"viridis","orientMir","scaleRev","180",NA,NA
"","","","","","html-slider-response",162,475568,"0.0-156.0","g2l44a46gg",29,NA,"<div style=""width:500px;"">
                            <p style=""font-size:50px; font-weight:bold;""
                            >happy</p>
                            <div style=""width:240px; margin: auto;"">
                                <img src=""images/map15_Oranges_scaleRev_orientDef_000.png"" style= ""width:200px""alt=""img"">
                            </div>
                        </div>",0.9375,"",0,"",NA,"","images/map15_Oranges_scaleRev_orientDef_000.png","happy",1,15,15,"Oranges","orientDef","scaleRev","000",NA,NA
"","","","","","html-slider-response",163,478349,"0.0-157.0","g2l44a46gg",29,NA,"<div style=""width:500px;"">
                            <p style=""font-size:50px; font-weight:bold;""
                            >happy</p>
                            <div style=""width:240px; margin: auto;"">
                                <img src=""images/map10_gist_earth_scaleDef_orientDef_090.png"" style= ""width:200px""alt=""img"">
                            </div>
