"success","timeout","failed_images","failed_audio","failed_video","trial_type","trial_index","time_elapsed","internal_node_id","subject_id","condition_num","rt","stimulus","response","question_order","slider_start","practiceTrial","practiceTrialNum","correct","image_path","concept","repetition","map_id","map_num","scale_name","orientation_code","mapping_code","rotation_code","ishihara_plate","correct_response"
"true","false","[]","[]","[]","preload",0,1337,"0.0-0.0","c0ktpqvcbz",1,NA,"",NA,"",NA,"",NA,"","","",NA,NA,NA,"","","","",NA,NA
"","","","","","html-button-response",1,9832,"0.0-1.0","c0ktpqvcbz",1,8491,"Welcome to our experiment!<p>At the bottom of this screen, you will see a button that says ""Begin Experiment"".<br>Please only click that button when you are ready to complete the 30 minute experiment in one sitting.</p><p> Once you click that button, it will not be possible to restart the experiment.",0.5,"",NA,"",NA,"","","",NA,NA,NA,"","","","",NA,NA
"true","","","","","fullscreen",2,20098,"0.0-2.0","c0ktpqvcbz",1,9261,"",NA,"",NA,"",NA,"","","",NA,NA,NA,"","","","",NA,NA
"","","","","","survey-multi-select",3,54497,"0.0-3.0","c0ktpqvcbz",1,34394,"",NA,"[0]",NA,"",NA,"","","",NA,NA,NA,"","","","",NA,NA
"","","","","","html-button-response",4,56978,"0.0-4.0","c0ktpqvcbz",1,2478,"Welcome! <p> This experiment involves two parts: demographic information, followed by the experimental task.<p> It will take about 30 minutes to complete both parts.",0.5,"",NA,"",NA,"","","",NA,NA,NA,"","","","",NA,NA
"","","","","","survey-text",5,80181,"0.0-5.0","c0ktpqvcbz",1,23192,"",NA,"",NA,"",NA,"","","",NA,NA,NA,"","","","",NA,NA
"","","","","","html-slider-response",6,95979,"0.0-6.0","c0ktpqvcbz",1,15794,"<div style='text-align:left; font-size:20px; line-height:25px; width: 1000px;'>
                                During this experiment you will be asked to rate how much you associate maps with                    different concepts.<br> Below, you can see some examples of the maps you will be asked to rate. Above the maps
                    is the list of concepts.<br>You will be asked                    to rate how much you associate each map with each concept on a scale from 'not at all' to 'very much' like the
                    one below. <br><br>
                    Now, please look at the list of concepts and maps. For each concept, think about the map you associate 'very
                    much' with the concept.<br>                     When you see that map during the experiment, please rate it near the 'very much' endpoint of the
                    scale.<br>Now, please think about which map you associate 'not at all'                     with each concept. When you see that map during the experiment, please rate it near the 'not at all' endpoint
                    of the scale.<br>
                    Please use the full range of the scale. That is, if a map is somewhat associated with the concept, you would
                    click partway between the middle point and right side of the scale.                    You will be asked to rate each map for a given concept before moving on to the next concept.<br>Press the
                    'Continue' button for instructions on how to use the slider.                    <br>
                </div>

                <div style=""width: 500px; margin: 0 auto;"">
                    <!-- Centered text paragraphs -->
                    <div style=""text-align: center; width: 500px;"">
                        <p style=""font-size:25px; line-height:15px;"">
                            angry&nbsp;&nbsp;&nbsp;&nbsp;
                            happy&nbsp;&nbsp;&nbsp;&nbsp;
                            fearful&nbsp;&nbsp;&nbsp;&nbsp;
                            sad&nbsp;&nbsp;&nbsp;&nbsp;
                            disgust
                        </p>
                        <!-- <p style=""font-size:20px; line-height:15px;"">happy</p>
                        <p style=""font-size:20px;line-height:15px;"">fearful</p>
                        <p style=""font-size:20px;line-height:15px;"">sad</p>
                        <p style=""font-size:20px;line-height:15px;"">disgust</p> -->
                    </div>
            

                    <!-- Grid section -->
                   <div style=""display: flex; justify-content: center; padding-top: 15px;"">
                    <div style=""display: grid; grid-template-columns: repeat(10, 55px); grid-gap: 5px; width: auto;"">
                        <img src=""images/map13_PiYG_scaleDef_orientMir_270.png"" alt=""map"" style=""width: 100%;""><img src=""images/map23_RdBu_scaleDef_orientDef_090.png"" alt=""map"" style=""width: 100%;""><img src=""images/map26_bwr_scaleDef_orientDef_270.png"" alt=""map"" style=""width: 100%;""><img src=""images/map12_YlGnBu_scaleDef_orientMir_270.png"" alt=""map"" style=""width: 100%;""><img src=""images/map13_PuBuGn_scaleDef_orientDef_090.png"" alt=""map"" style=""width: 100%;""><img src=""images/map26_seismic_scaleDef_orientMir_090.png"" alt=""map"" style=""width: 100%;""><img src=""images/map07_Blues_scaleRev_orientDef_000.png"" alt=""map"" style=""width: 100%;""><img src=""images/map13_YlGn_scaleDef_orientMir_090.png"" alt=""map"" style=""width: 100%;""><img src=""images/map12_RdPu_scaleRev_orientDef_000.png"" alt=""map"" style=""width: 100%;""><img src=""images/map07_Reds_scaleRev_orientMir_180.png"" alt=""map"" style=""width: 100%;""><img src=""images/map15_BrBG_scaleDef_orientDef_270.png"" alt=""map"" style=""width: 100%;""><img src=""images/map15_PuOr_scaleRev_orientMir_180.png"" alt=""map"" style=""width: 100%;""><img src=""images/map10_PuRd_scaleDef_orientMir_090.png"" alt=""map"" style=""width: 100%;""><img src=""images/map07_Oranges_scaleRev_orientMir_000.png"" alt=""map"" style=""width: 100%;""><img src=""images/map02_inferno_scaleRev_orientMir_180.png"" alt=""map"" style=""width: 100%;""><img src=""images/map02_magma_scaleDef_orientMir_270.png"" alt=""map"" style=""width: 100%;""><img src=""images/map05_Greys_scaleDef_orientDef_270.png"" alt=""map"" style=""width: 100%;""><img src=""images/map12_PuBu_scaleRev_orientMir_180.png"" alt=""map"" style=""width: 100%;""><img src=""images/map02_viridis_scaleRev_orientDef_180.png"" alt=""map"" style=""width: 100%;""><img src=""images/map26_coolwarm_scaleRev_orientDef_180.png"" alt=""map"" style=""width: 100%;""><img src=""images/map07_YlOrBr_scaleDef_orientMir_270.png"" alt=""map"" style=""width: 100%;""><img src=""images/map05_cividis_scaleRev_orientDef_180.png"" alt=""map"" style=""width: 100%;""><img src=""images/map23_RdYlBu_scaleRev_orientMir_000.png"" alt=""map"" style=""width: 100%;""><img src=""images/map12_GnBu_scaleDef_orientDef_270.png"" alt=""map"" style=""width: 100%;""><img src=""images/map27_vanimo_scaleDef_orientDef_270.png"" alt=""map"" style=""width: 100%;""><img src=""images/map02_plasma_scaleDef_orientDef_270.png"" alt=""map"" style=""width: 100%;""><img src=""images/map15_RdGy_scaleDef_orientMir_270.png"" alt=""map"" style=""width: 100%;""><img src=""images/map13_BuGn_scaleRev_orientMir_000.png"" alt=""map"" style=""width: 100%;""><img src=""images/map27_managua_scaleRev_orientDef_180.png"" alt=""map"" style=""width: 100%;""><img src=""images/map26_berlin_scaleDef_orientMir_270.png"" alt=""map"" style=""width: 100%;""><img src=""images/map23_RdYlGn_scaleDef_orientMir_090.png"" alt=""map"" style=""width: 100%;""><img src=""images/map05_Purples_scaleRev_orientMir_180.png"" alt=""map"" style=""width: 100%;""><img src=""images/map27_turbo_scaleDef_orientMir_270.png"" alt=""map"" style=""width: 100%;""><img src=""images/map10_OrRd_scaleDef_orientDef_270.png"" alt=""map"" style=""width: 100%;""><img src=""images/map07_Greens_scaleDef_orientDef_090.png"" alt=""map"" style=""width: 100%;""><img src=""images/map27_gist_earth_scaleRev_orientMir_180.png"" alt=""map"" style=""width: 100%;""><img src=""images/map10_YlOrRd_scaleRev_orientDef_180.png"" alt=""map"" style=""width: 100%;""><img src=""images/map26_Spectral_scaleRev_orientDef_000.png"" alt=""map"" style=""width: 100%;""><img src=""images/map12_BuPu_scaleRev_orientDef_180.png"" alt=""map"" style=""width: 100%;""><img src=""images/map15_PRGn_scaleRev_orientDef_180.png"" alt=""map"" style=""width: 100%;"">
                    </div>
                </div>

                    <!-- Clear floats -->
                    <div style=""clear: both;""></div>
                </div>
                            ",0.5,"",0,"true",NA,"","","",NA,NA,NA,"","","","",NA,NA
"","","","","","html-button-response",7,107294,"0.0-7.0","c0ktpqvcbz",1,11314,"<div style=""width:800px;""><p style=""text-align:left"">To move the slider, click and drag your cursor to the location of the scale where you would like to make your rating and then let go. When you let go of the slider, your response will be recorded and the next trial will begin. <br>
                    We are interested in your initial impressions of each map for the given concept, so please go with your first intuition. <br>
                    Before you begin the experiment, there will be four training trials for you to practice using the scale. <br>
                     When you are ready to start the training trials, please click ""Continue"".</p><br></div>",0.5,"",NA,"",NA,"","","",NA,NA,NA,"","","","",NA,NA
"","","","","","html-slider-response",8,112223,"0.0-8.0-0.0","c0ktpqvcbz",1,NA,"<div style=""width:500px;"">
                                    <p style=""font-size:25px;"">Please move the slider all the way to the <br> right endpoint of the scale</p>

                                    </div>
                                </div>",1,"",0,"true",0,"true","","",NA,NA,NA,"","","","",NA,NA
"","","","","","html-button-response",9,113944,"0.0-8.0-1.0","c0ktpqvcbz",1,1217,"<p align='center'><b>Good job!</b> Click on 'Continue' to proceed.</p>",0.5,"",NA,"",NA,"","","",NA,NA,NA,"","","","",NA,NA
"","","","","","html-slider-response",10,116373,"0.0-9.0-0.0","c0ktpqvcbz",1,NA,"<div style=""width:500px;"">
                                    <p style=""font-size:25px;"">Please move the slider all the way to the <br> left endpoint of the scale</p>

                                    </div>
                                </div>",0,"",0,"true",1,"true","","",NA,NA,NA,"","","","",NA,NA
"","","","","","html-button-response",11,117961,"0.0-9.0-1.0","c0ktpqvcbz",1,1085,"<p align='center'><b>Good job!</b> Click on 'Continue' to proceed.</p>",0.5,"",NA,"",NA,"","","",NA,NA,NA,"","","","",NA,NA
"","","","","","html-slider-response",12,129257,"0.0-10.0-0.0","c0ktpqvcbz",1,NA,"<div style=""width:500px;"">
                                    <p style=""font-size:25px;"">Please move the slider halfway between the center and right endpoint of the scale</p>

                                    </div>
                                </div>",0.7575,"",0,"true",2,"true","","",NA,NA,NA,"","","","",NA,NA
"","","","","","html-button-response",13,130645,"0.0-10.0-1.0","c0ktpqvcbz",1,885,"<p align='center'><b>Good job!</b> Click on 'Continue' to proceed.</p>",0.5,"",NA,"",NA,"","","",NA,NA,NA,"","","","",NA,NA
"","","","","","html-slider-response",14,134222,"0.0-11.0-0.0","c0ktpqvcbz",1,NA,"<div style=""width:500px;"">
                                    <p style=""font-size:25px;"">Please move the slider halfway between the center and left endpoint of the scale</p>

                                    </div>
                                </div>",0.225,"",0,"true",3,"true","","",NA,NA,NA,"","","","",NA,NA
"","","","","","html-button-response",15,135494,"0.0-11.0-1.0","c0ktpqvcbz",1,769,"<p align='center'><b>Good job!</b> Click on 'Continue' to proceed.</p>",0.5,"",NA,"",NA,"","","",NA,NA,NA,"","","","",NA,NA
"","","","","","html-button-response",16,136344,"0.0-12.0","c0ktpqvcbz",1,849,"<p>Great job! You've completed the practice trials. Now you will begin the main task.</p>",0.5,"",NA,"",NA,"","","",NA,NA,NA,"","","","",NA,NA
"","","","","","html-button-response",17,139945,"0.0-13.0","c0ktpqvcbz",1,3599,"<p>In this block of trials, you will be asked to rate how much you associate each map with:</p > <p style = 'font-size:150%; font-weight: bold'>angry</p><br></br>",0.5,"",NA,"",NA,"","","",NA,NA,NA,"","","","",NA,NA
"","","","","","html-slider-response",18,145438,"0.0-14.0","c0ktpqvcbz",1,NA,"<div style=""width:500px;"">
                            <p style=""font-size:50px; font-weight:bold;""
                            >angry</p>
                            <div style=""width:240px; margin: auto;"">
                                <img src=""images/map12_BuPu_scaleDef_orientDef_090.png"" style= ""width:200px""alt=""img"">
                            </div>
                        </div>",0.335,"",0,"",NA,"","images/map12_BuPu_scaleDef_orientDef_090.png","angry",1,12,12,"BuPu","orientDef","scaleDef","090",NA,NA
"","","","","","html-slider-response",19,148389,"0.0-15.0","c0ktpqvcbz",1,NA,"<div style=""width:500px;"">
                            <p style=""font-size:50px; font-weight:bold;""
                            >angry</p>
                            <div style=""width:240px; margin: auto;"">
                                <img src=""images/map23_RdGy_scaleRev_orientDef_000.png"" style= ""width:200px""alt=""img"">
                            </div>
                        </div>",0.15,"",0,"",NA,"","images/map23_RdGy_scaleRev_orientDef_000.png","angry",1,23,23,"RdGy","orientDef","scaleRev","000",NA,NA
"","","","","","html-slider-response",20,152106,"0.0-16.0","c0ktpqvcbz",1,NA,"<div style=""width:500px;"">
                            <p style=""font-size:50px; font-weight:bold;""
                            >angry</p>
                            <div style=""width:240px; margin: auto;"">
                                <img src=""images/map07_Reds_scaleRev_orientMir_180.png"" style= ""width:200px""alt=""img"">
                            </div>
                        </div>",0.7625,"",0,"",NA,"","images/map07_Reds_scaleRev_orientMir_180.png","angry",1,7,7,"Reds","orientMir","scaleRev","180",NA,NA
"","","","","","html-slider-response",21,154473,"0.0-17.0","c0ktpqvcbz",1,NA,"<div style=""width:500px;"">
                            <p style=""font-size:50px; font-weight:bold;""
                            >angry</p>
                            <div style=""width:240px; margin: auto;"">
                                <img src=""images/map12_YlGnBu_scaleDef_orientMir_270.png"" style= ""width:200px""alt=""img"">
                            </div>
                        </div>",0.375,"",0,"",NA,"","images/map12_YlGnBu_scaleDef_orientMir_270.png","angry",1,12,12,"YlGnBu","orientMir","scaleDef","270",NA,NA
"","","","","","html-slider-response",22,158041,"0.0-18.0","c0ktpqvcbz",1,NA,"<div style=""width:500px;"">
                            <p style=""font-size:50px; font-weight:bold;""
                            >angry</p>
                            <div style=""width:240px; margin: auto;"">
                                <img src=""images/map10_RdPu_scaleDef_orientMir_270.png"" style= ""width:200px""alt=""img"">
                            </div>
                        </div>",0.7675,"",0,"",NA,"","images/map10_RdPu_scaleDef_orientMir_270.png","angry",1,10,10,"RdPu","orientMir","scaleDef","270",NA,NA
"","","","","","html-slider-response",23,160389,"0.0-19.0","c0ktpqvcbz",1,NA,"<div style=""width:500px;"">
                            <p style=""font-size:50px; font-weight:bold;""
                            >angry</p>
                            <div style=""width:240px; margin: auto;"">
                                <img src=""images/map10_OrRd_scaleDef_orientDef_270.png"" style= ""width:200px""alt=""img"">
                            </div>
                        </div>",0.8425,"",0,"",NA,"","images/map10_OrRd_scaleDef_orientDef_270.png","angry",1,10,10,"OrRd","orientDef","scaleDef","270",NA,NA
"","","","","","html-slider-response",24,163624,"0.0-20.0","c0ktpqvcbz",1,NA,"<div style=""width:500px;"">
                            <p style=""font-size:50px; font-weight:bold;""
                            >angry</p>
                            <div style=""width:240px; margin: auto;"">
                                <img src=""images/map13_BuGn_scaleDef_orientDef_270.png"" style= ""width:200px""alt=""img"">
                            </div>
                        </div>",0.43,"",0,"",NA,"","images/map13_BuGn_scaleDef_orientDef_270.png","angry",1,13,13,"BuGn","orientDef","scaleDef","270",NA,NA
"","","","","","html-slider-response",25,166373,"0.0-21.0","c0ktpqvcbz",1,NA,"<div style=""width:500px;"">
                            <p style=""font-size:50px; font-weight:bold;""
                            >angry</p>
                            <div style=""width:240px; margin: auto;"">
                                <img src=""images/map15_PuOr_scaleRev_orientMir_180.png"" style= ""width:200px""alt=""img"">
                            </div>
                        </div>",0.335,"",0,"",NA,"","images/map15_PuOr_scaleRev_orientMir_180.png","angry",1,15,15,"PuOr","orientMir","scaleRev","180",NA,NA
"","","","","","html-slider-response",26,168473,"0.0-22.0","c0ktpqvcbz",1,NA,"<div style=""width:500px;"">
                            <p style=""font-size:50px; font-weight:bold;""
                            >angry</p>
                            <div style=""width:240px; margin: auto;"">
                                <img src=""images/map23_RdBu_scaleDef_orientDef_090.png"" style= ""width:200px""alt=""img"">
                            </div>
                        </div>",0.5575,"",0,"",NA,"","images/map23_RdBu_scaleDef_orientDef_090.png","angry",1,23,23,"RdBu","orientDef","scaleDef","090",NA,NA
"","","","","","html-slider-response",27,170590,"0.0-23.0","c0ktpqvcbz",1,NA,"<div style=""width:500px;"">
                            <p style=""font-size:50px; font-weight:bold;""
                            >angry</p>
                            <div style=""width:240px; margin: auto;"">
                                <img src=""images/map12_BuPu_scaleRev_orientDef_180.png"" style= ""width:200px""alt=""img"">
                            </div>
                        </div>",0.4325,"",0,"",NA,"","images/map12_BuPu_scaleRev_orientDef_180.png","angry",1,12,12,"BuPu","orientDef","scaleRev","180",NA,NA
"","","","","","html-slider-response",28,172790,"0.0-24.0","c0ktpqvcbz",1,NA,"<div style=""width:500px;"">
                            <p style=""font-size:50px; font-weight:bold;""
                            >angry</p>
                            <div style=""width:240px; margin: auto;"">
                                <img src=""images/map10_PuRd_scaleDef_orientMir_090.png"" style= ""width:200px""alt=""img"">
                            </div>
                        </div>",0.5925,"",0,"",NA,"","images/map10_PuRd_scaleDef_orientMir_090.png","angry",1,10,10,"PuRd","orientMir","scaleDef","090",NA,NA
"","","","","","html-slider-response",29,174999,"0.0-25.0","c0ktpqvcbz",1,NA,"<div style=""width:500px;"">
                            <p style=""font-size:50px; font-weight:bold;""
                            >angry</p>
                            <div style=""width:240px; margin: auto;"">
                                <img src=""images/map07_Reds_scaleDef_orientMir_090.png"" style= ""width:200px""alt=""img"">
                            </div>
                        </div>",0.745,"",0,"",NA,"","images/map07_Reds_scaleDef_orientMir_090.png","angry",1,7,7,"Reds","orientMir","scaleDef","090",NA,NA
"","","","","","html-slider-response",30,177090,"0.0-26.0","c0ktpqvcbz",1,NA,"<div style=""width:500px;"">
                            <p style=""font-size:50px; font-weight:bold;""
                            >angry</p>
                            <div style=""width:240px; margin: auto;"">
                                <img src=""images/map05_magma_scaleRev_orientDef_000.png"" style= ""width:200px""alt=""img"">
                            </div>
                        </div>",0.7975,"",0,"",NA,"","images/map05_magma_scaleRev_orientDef_000.png","angry",1,5,5,"magma","orientDef","scaleRev","000",NA,NA
"","","","","","html-slider-response",31,179206,"0.0-27.0","c0ktpqvcbz",1,NA,"<div style=""width:500px;"">
                            <p style=""font-size:50px; font-weight:bold;""
                            >angry</p>
                            <div style=""width:240px; margin: auto;"">
                                <img src=""images/map07_Greens_scaleRev_orientDef_180.png"" style= ""width:200px""alt=""img"">
                            </div>
                        </div>",0.3675,"",0,"",NA,"","images/map07_Greens_scaleRev_orientDef_180.png","angry",1,7,7,"Greens","orientDef","scaleRev","180",NA,NA
"","","","","","html-slider-response",32,180992,"0.0-28.0","c0ktpqvcbz",1,NA,"<div style=""width:500px;"">
                            <p style=""font-size:50px; font-weight:bold;""
                            >angry</p>
                            <div style=""width:240px; margin: auto;"">
                                <img src=""images/map05_Purples_scaleRev_orientMir_180.png"" style= ""width:200px""alt=""img"">
                            </div>
                        </div>",0.395,"",0,"",NA,"","images/map05_Purples_scaleRev_orientMir_180.png","angry",1,5,5,"Purples","orientMir","scaleRev","180",NA,NA
"","","","","","html-slider-response",33,182855,"0.0-29.0","c0ktpqvcbz",1,NA,"<div style=""width:500px;"">
                            <p style=""font-size:50px; font-weight:bold;""
                            >angry</p>
                            <div style=""width:240px; margin: auto;"">
                                <img src=""images/map12_GnBu_scaleRev_orientMir_000.png"" style= ""width:200px""alt=""img"">
                            </div>
                        </div>",0.3075,"",0,"",NA,"","images/map12_GnBu_scaleRev_orientMir_000.png","angry",1,12,12,"GnBu","orientMir","scaleRev","000",NA,NA
"","","","","","html-slider-response",34,184889,"0.0-30.0","c0ktpqvcbz",1,NA,"<div style=""width:500px;"">
                            <p style=""font-size:50px; font-weight:bold;""
                            >angry</p>
                            <div style=""width:240px; margin: auto;"">
                                <img src=""images/map26_Spectral_scaleRev_orientDef_000.png"" style= ""width:200px""alt=""img"">
                            </div>
                        </div>",0.5825,"",0,"",NA,"","images/map26_Spectral_scaleRev_orientDef_000.png","angry",1,26,26,"Spectral","orientDef","scaleRev","000",NA,NA
"","","","","","html-slider-response",35,186840,"0.0-31.0","c0ktpqvcbz",1,NA,"<div style=""width:500px;"">
                            <p style=""font-size:50px; font-weight:bold;""
                            >angry</p>
                            <div style=""width:240px; margin: auto;"">
                                <img src=""images/map27_managua_scaleDef_orientDef_090.png"" style= ""width:200px""alt=""img"">
                            </div>
                        </div>",0.4075,"",0,"",NA,"","images/map27_managua_scaleDef_orientDef_090.png","angry",1,27,27,"managua","orientDef","scaleDef","090",NA,NA
"","","","","","html-slider-response",36,188906,"0.0-32.0","c0ktpqvcbz",1,NA,"<div style=""width:500px;"">
                            <p style=""font-size:50px; font-weight:bold;""
                            >angry</p>
                            <div style=""width:240px; margin: auto;"">
                                <img src=""images/map23_Spectral_scaleDef_orientMir_270.png"" style= ""width:200px""alt=""img"">
                            </div>
                        </div>",0.565,"",0,"",NA,"","images/map23_Spectral_scaleDef_orientMir_270.png","angry",1,23,23,"Spectral","orientMir","scaleDef","270",NA,NA
"","","","","","html-slider-response",37,190589,"0.0-33.0","c0ktpqvcbz",1,NA,"<div style=""width:500px;"">
                            <p style=""font-size:50px; font-weight:bold;""
                            >angry</p>
                            <div style=""width:240px; margin: auto;"">
                                <img src=""images/map15_PiYG_scaleRev_orientDef_000.png"" style= ""width:200px""alt=""img"">
                            </div>
                        </div>",0.415,"",0,"",NA,"","images/map15_PiYG_scaleRev_orientDef_000.png","angry",1,15,15,"PiYG","orientDef","scaleRev","000",NA,NA
"","","","","","html-slider-response",38,192455,"0.0-34.0","c0ktpqvcbz",1,NA,"<div style=""width:500px;"">
                            <p style=""font-size:50px; font-weight:bold;""
                            >angry</p>
                            <div style=""width:240px; margin: auto;"">
                                <img src=""images/map26_coolwarm_scaleDef_orientDef_090.png"" style= ""width:200px""alt=""img"">
                            </div>
                        </div>",0.3775,"",0,"",NA,"","images/map26_coolwarm_scaleDef_orientDef_090.png","angry",1,26,26,"coolwarm","orientDef","scaleDef","090",NA,NA
"","","","","","html-slider-response",39,194089,"0.0-35.0","c0ktpqvcbz",1,NA,"<div style=""width:500px;"">
                            <p style=""font-size:50px; font-weight:bold;""
                            >angry</p>
                            <div style=""width:240px; margin: auto;"">
                                <img src=""images/map12_GnBu_scaleDef_orientDef_270.png"" style= ""width:200px""alt=""img"">
                            </div>
                        </div>",0.2925,"",0,"",NA,"","images/map12_GnBu_scaleDef_orientDef_270.png","angry",1,12,12,"GnBu","orientDef","scaleDef","270",NA,NA
"","","","","","html-slider-response",40,196056,"0.0-36.0","c0ktpqvcbz",1,NA,"<div style=""width:500px;"">
                            <p style=""font-size:50px; font-weight:bold;""
                            >angry</p>
                            <div style=""width:240px; margin: auto;"">
                                <img src=""images/map23_RdYlBu_scaleRev_orientMir_000.png"" style= ""width:200px""alt=""img"">
                            </div>
                        </div>",0.58,"",0,"",NA,"","images/map23_RdYlBu_scaleRev_orientMir_000.png","angry",1,23,23,"RdYlBu","orientMir","scaleRev","000",NA,NA
"","","","","","html-slider-response",41,198007,"0.0-37.0","c0ktpqvcbz",1,NA,"<div style=""width:500px;"">
                            <p style=""font-size:50px; font-weight:bold;""
                            >angry</p>
                            <div style=""width:240px; margin: auto;"">
                                <img src=""images/map02_viridis_scaleDef_orientDef_090.png"" style= ""width:200px""alt=""img"">
                            </div>
                        </div>",0.34,"",0,"",NA,"","images/map02_viridis_scaleDef_orientDef_090.png","angry",1,2,2,"viridis","orientDef","scaleDef","090",NA,NA
"","","","","","html-slider-response",42,200109,"0.0-38.0","c0ktpqvcbz",1,NA,"<div style=""width:500px;"">
                            <p style=""font-size:50px; font-weight:bold;""
                            >angry</p>
                            <div style=""width:240px; margin: auto;"">
                                <img src=""images/map26_bwr_scaleRev_orientMir_000.png"" style= ""width:200px""alt=""img"">
                            </div>
                        </div>",0.505,"",0,"",NA,"","images/map26_bwr_scaleRev_orientMir_000.png","angry",1,26,26,"bwr","orientMir","scaleRev","000",NA,NA
"","","","","","html-slider-response",43,202107,"0.0-39.0","c0ktpqvcbz",1,NA,"<div style=""width:500px;"">
                            <p style=""font-size:50px; font-weight:bold;""
                            >angry</p>
                            <div style=""width:240px; margin: auto;"">
                                <img src=""images/map23_RdYlGn_scaleRev_orientMir_180.png"" style= ""width:200px""alt=""img"">
                            </div>
                        </div>",0.545,"",0,"",NA,"","images/map23_RdYlGn_scaleRev_orientMir_180.png","angry",1,23,23,"RdYlGn","orientMir","scaleRev","180",NA,NA
"","","","","","html-slider-response",44,203707,"0.0-40.0","c0ktpqvcbz",1,NA,"<div style=""width:500px;"">
                            <p style=""font-size:50px; font-weight:bold;""
                            >angry</p>
                            <div style=""width:240px; margin: auto;"">
                                <img src=""images/map27_gist_earth_scaleRev_orientMir_180.png"" style= ""width:200px""alt=""img"">
                            </div>
                        </div>",0.3775,"",0,"",NA,"","images/map27_gist_earth_scaleRev_orientMir_180.png","angry",1,27,27,"gist","scaleRev","earth","orientMir",NA,NA
"","","","","","html-slider-response",45,206223,"0.0-41.0","c0ktpqvcbz",1,NA,"<div style=""width:500px;"">
                            <p style=""font-size:50px; font-weight:bold;""
                            >angry</p>
                            <div style=""width:240px; margin: auto;"">
                                <img src=""images/map02_plasma_scaleDef_orientDef_270.png"" style= ""width:200px""alt=""img"">
                            </div>
                        </div>",0.385,"",0,"",NA,"","images/map02_plasma_scaleDef_orientDef_270.png","angry",1,2,2,"plasma","orientDef","scaleDef","270",NA,NA
"","","","","","html-slider-response",46,208039,"0.0-42.0","c0ktpqvcbz",1,NA,"<div style=""width:500px;"">
                            <p style=""font-size:50px; font-weight:bold;""
                            >angry</p>
                            <div style=""width:240px; margin: auto;"">
                                <img src=""images/map02_turbo_scaleRev_orientDef_000.png"" style= ""width:200px""alt=""img"">
                            </div>
                        </div>",0.395,"",0,"",NA,"","images/map02_turbo_scaleRev_orientDef_000.png","angry",1,2,2,"turbo","orientDef","scaleRev","000",NA,NA
"","","","","","html-slider-response",47,211288,"0.0-43.0","c0ktpqvcbz",1,NA,"<div style=""width:500px;"">
                            <p style=""font-size:50px; font-weight:bold;""
                            >angry</p>
                            <div style=""width:240px; margin: auto;"">
                                <img src=""images/map13_BuGn_scaleRev_orientMir_000.png"" style= ""width:200px""alt=""img"">
                            </div>
                        </div>",0.355,"",0,"",NA,"","images/map13_BuGn_scaleRev_orientMir_000.png","angry",1,13,13,"BuGn","orientMir","scaleRev","000",NA,NA
"","","","","","html-slider-response",48,212973,"0.0-44.0","c0ktpqvcbz",1,NA,"<div style=""width:500px;"">
                            <p style=""font-size:50px; font-weight:bold;""
                            >angry</p>
                            <div style=""width:240px; margin: auto;"">
                                <img src=""images/map27_managua_scaleRev_orientDef_180.png"" style= ""width:200px""alt=""img"">
                            </div>
                        </div>",0.3325,"",0,"",NA,"","images/map27_managua_scaleRev_orientDef_180.png","angry",1,27,27,"managua","orientDef","scaleRev","180",NA,NA
"","","","","","html-slider-response",49,215438,"0.0-45.0","c0ktpqvcbz",1,NA,"<div style=""width:500px;"">
                            <p style=""font-size:50px; font-weight:bold;""
                            >angry</p>
                            <div style=""width:240px; margin: auto;"">
                                <img src=""images/map26_berlin_scaleDef_orientMir_270.png"" style= ""width:200px""alt=""img"">
                            </div>
                        </div>",0.2725,"",0,"",NA,"","images/map26_berlin_scaleDef_orientMir_270.png","angry",1,26,26,"berlin","orientMir","scaleDef","270",NA,NA
"","","","","","html-slider-response",50,217540,"0.0-46.0","c0ktpqvcbz",1,NA,"<div style=""width:500px;"">
                            <p style=""font-size:50px; font-weight:bold;""
                            >angry</p>
                            <div style=""width:240px; margin: auto;"">
                                <img src=""images/map10_YlOrBr_scaleRev_orientDef_000.png"" style= ""width:200px""alt=""img"">
                            </div>
                        </div>",0.555,"",0,"",NA,"","images/map10_YlOrBr_scaleRev_orientDef_000.png","angry",1,10,10,"YlOrBr","orientDef","scaleRev","000",NA,NA
"","","","","","html-slider-response",51,219189,"0.0-47.0","c0ktpqvcbz",1,NA,"<div style=""width:500px;"">
                            <p style=""font-size:50px; font-weight:bold;""
                            >angry</p>
                            <div style=""width:240px; margin: auto;"">
                                <img src=""images/map12_PuBu_scaleRev_orientMir_180.png"" style= ""width:200px""alt=""img"">
                            </div>
                        </div>",0.3175,"",0,"",NA,"","images/map12_PuBu_scaleRev_orientMir_180.png","angry",1,12,12,"PuBu","orientMir","scaleRev","180",NA,NA
"","","","","","html-slider-response",52,220623,"0.0-48.0","c0ktpqvcbz",1,NA,"<div style=""width:500px;"">
                            <p style=""font-size:50px; font-weight:bold;""
                            >angry</p>
                            <div style=""width:240px; margin: auto;"">
                                <img src=""images/map02_viridis_scaleRev_orientDef_180.png"" style= ""width:200px""alt=""img"">
                            </div>
                        </div>",0.32,"",0,"",NA,"","images/map02_viridis_scaleRev_orientDef_180.png","angry",1,2,2,"viridis","orientDef","scaleRev","180",NA,NA
"","","","","","html-slider-response",53,224473,"0.0-49.0","c0ktpqvcbz",1,NA,"<div style=""width:500px;"">
                            <p style=""font-size:50px; font-weight:bold;""
                            >angry</p>
                            <div style=""width:240px; margin: auto;"">
                                <img src=""images/map15_RdGy_scaleDef_orientMir_270.png"" style= ""width:200px""alt=""img"">
                            </div>
                        </div>",0.3175,"",0,"",NA,"","images/map15_RdGy_scaleDef_orientMir_270.png","angry",1,15,15,"RdGy","orientMir","scaleDef","270",NA,NA
"","","","","","html-slider-response",54,225940,"0.0-50.0","c0ktpqvcbz",1,NA,"<div style=""width:500px;"">
                            <p style=""font-size:50px; font-weight:bold;""
                            >angry</p>
                            <div style=""width:240px; margin: auto;"">
                                <img src=""images/map07_Oranges_scaleRev_orientMir_000.png"" style= ""width:200px""alt=""img"">
                            </div>
                        </div>",0.67,"",0,"",NA,"","images/map07_Oranges_scaleRev_orientMir_000.png","angry",1,7,7,"Oranges","orientMir","scaleRev","000",NA,NA
"","","","","","html-slider-response",55,228756,"0.0-51.0","c0ktpqvcbz",1,NA,"<div style=""width:500px;"">
                            <p style=""font-size:50px; font-weight:bold;""
                            >angry</p>
                            <div style=""width:240px; margin: auto;"">
                                <img src=""images/map05_Greys_scaleRev_orientMir_000.png"" style= ""width:200px""alt=""img"">
                            </div>
                        </div>",0.6925,"",0,"",NA,"","images/map05_Greys_scaleRev_orientMir_000.png","angry",1,5,5,"Greys","orientMir","scaleRev","000",NA,NA
"","","","","","html-slider-response",56,230406,"0.0-52.0","c0ktpqvcbz",1,NA,"<div style=""width:500px;"">
                            <p style=""font-size:50px; font-weight:bold;""
                            >angry</p>
                            <div style=""width:240px; margin: auto;"">
                                <img src=""images/map27_vanimo_scaleDef_orientDef_270.png"" style= ""width:200px""alt=""img"">
                            </div>
                        </div>",0.315,"",0,"",NA,"","images/map27_vanimo_scaleDef_orientDef_270.png","angry",1,27,27,"vanimo","orientDef","scaleDef","270",NA,NA
"","","","","","html-slider-response",57,232072,"0.0-53.0","c0ktpqvcbz",1,NA,"<div style=""width:500px;"">
                            <p style=""font-size:50px; font-weight:bold;""
                            >angry</p>
                            <div style=""width:240px; margin: auto;"">
                                <img src=""images/map07_Oranges_scaleDef_orientDef_270.png"" style= ""width:200px""alt=""img"">
                            </div>
                        </div>",0.645,"",0,"",NA,"","images/map07_Oranges_scaleDef_orientDef_270.png","angry",1,7,7,"Oranges","orientDef","scaleDef","270",NA,NA
"","","","","","html-button-response",58,235945,"0.0-54.0","c0ktpqvcbz",1,3369,"<p>You are doing great!<br></br> You are halway done with the current block. When you are ready to continue, click the 'Continue' button.</p>",0.5,"",NA,"",NA,"","","",NA,NA,NA,"","","","",NA,NA
"","","","","","html-slider-response",59,238590,"0.0-55.0","c0ktpqvcbz",1,NA,"<div style=""width:500px;"">
                            <p style=""font-size:50px; font-weight:bold;""
                            >angry</p>
                            <div style=""width:240px; margin: auto;"">
                                <img src=""images/map07_Blues_scaleRev_orientDef_000.png"" style= ""width:200px""alt=""img"">
                            </div>
                        </div>",0.2925,"",0,"",NA,"","images/map07_Blues_scaleRev_orientDef_000.png","angry",1,7,7,"Blues","orientDef","scaleRev","000",NA,NA
"","","","","","html-slider-response",60,239655,"0.0-56.0","c0ktpqvcbz",1,NA,"<div style=""width:500px;"">
                            <p style=""font-size:50px; font-weight:bold;""
                            >angry</p>
                            <div style=""width:240px; margin: auto;"">
                                <img src=""images/map05_Purples_scaleDef_orientMir_090.png"" style= ""width:200px""alt=""img"">
                            </div>
                        </div>",0.2925,"",0,"",NA,"","images/map05_Purples_scaleDef_orientMir_090.png","angry",1,5,5,"Purples","orientMir","scaleDef","090",NA,NA
"","","","","","html-slider-response",61,240673,"0.0-57.0","c0ktpqvcbz",1,NA,"<div style=""width:500px;"">
                            <p style=""font-size:50px; font-weight:bold;""
                            >angry</p>
                            <div style=""width:240px; margin: auto;"">
                                <img src=""images/map13_YlGn_scaleRev_orientMir_180.png"" style= ""width:200px""alt=""img"">
                            </div>
                        </div>",0.2925,"",0,"",NA,"","images/map13_YlGn_scaleRev_orientMir_180.png","angry",1,13,13,"YlGn","orientMir","scaleRev","180",NA,NA
"","","","","","html-slider-response",62,241873,"0.0-58.0","c0ktpqvcbz",1,NA,"<div style=""width:500px;"">
                            <p style=""font-size:50px; font-weight:bold;""
                            >angry</p>
                            <div style=""width:240px; margin: auto;"">
                                <img src=""images/map13_YlGnBu_scaleRev_orientDef_000.png"" style= ""width:200px""alt=""img"">
                            </div>
                        </div>",0.345,"",0,"",NA,"","images/map13_YlGnBu_scaleRev_orientDef_000.png","angry",1,13,13,"YlGnBu","orientDef","scaleRev","000",NA,NA
"","","","","","html-slider-response",63,243056,"0.0-59.0","c0ktpqvcbz",1,NA,"<div style=""width:500px;"">
                            <p style=""font-size:50px; font-weight:bold;""
                            >angry</p>
                            <div style=""width:240px; margin: auto;"">
                                <img src=""images/map05_cividis_scaleRev_orientDef_180.png"" style= ""width:200px""alt=""img"">
                            </div>
                        </div>",0.4,"",0,"",NA,"","images/map05_cividis_scaleRev_orientDef_180.png","angry",1,5,5,"cividis","orientDef","scaleRev","180",NA,NA
"","","","","","html-slider-response",64,245057,"0.0-60.0","c0ktpqvcbz",1,NA,"<div style=""width:500px;"">
                            <p style=""font-size:50px; font-weight:bold;""
                            >angry</p>
                            <div style=""width:240px; margin: auto;"">
                                <img src=""images/map23_RdYlBu_scaleDef_orientDef_270.png"" style= ""width:200px""alt=""img"">
                            </div>
                        </div>",0.655,"",0,"",NA,"","images/map23_RdYlBu_scaleDef_orientDef_270.png","angry",1,23,23,"RdYlBu","orientDef","scaleDef","270",NA,NA
"","","","","","html-slider-response",65,246672,"0.0-61.0","c0ktpqvcbz",1,NA,"<div style=""width:500px;"">
                            <p style=""font-size:50px; font-weight:bold;""
                            >angry</p>
                            <div style=""width:240px; margin: auto;"">
                                <img src=""images/map05_cividis_scaleDef_orientDef_090.png"" style= ""width:200px""alt=""img"">
                            </div>
                        </div>",0.45,"",0,"",NA,"","images/map05_cividis_scaleDef_orientDef_090.png","angry",1,5,5,"cividis","orientDef","scaleDef","090",NA,NA
"","","","","","html-slider-response",66,248089,"0.0-62.0","c0ktpqvcbz",1,NA,"<div style=""width:500px;"">
                            <p style=""font-size:50px; font-weight:bold;""
                            >angry</p>
                            <div style=""width:240px; margin: auto;"">
                                <img src=""images/map15_PRGn_scaleDef_orientDef_090.png"" style= ""width:200px""alt=""img"">
                            </div>
                        </div>",0.415,"",0,"",NA,"","images/map15_PRGn_scaleDef_orientDef_090.png","angry",1,15,15,"PRGn","orientDef","scaleDef","090",NA,NA
"","","","","","html-slider-response",67,249290,"0.0-63.0","c0ktpqvcbz",1,NA,"<div style=""width:500px;"">
                            <p style=""font-size:50px; font-weight:bold;""
                            >angry</p>
                            <div style=""width:240px; margin: auto;"">
                                <img src=""images/map02_plasma_scaleRev_orientMir_000.png"" style= ""width:200px""alt=""img"">
                            </div>
                        </div>",0.595,"",0,"",NA,"","images/map02_plasma_scaleRev_orientMir_000.png","angry",1,2,2,"plasma","orientMir","scaleRev","000",NA,NA
"","","","","","html-slider-response",68,250490,"0.0-64.0","c0ktpqvcbz",1,NA,"<div style=""width:500px;"">
                            <p style=""font-size:50px; font-weight:bold;""
                            >angry</p>
                            <div style=""width:240px; margin: auto;"">
                                <img src=""images/map26_bwr_scaleDef_orientDef_270.png"" style= ""width:200px""alt=""img"">
                            </div>
                        </div>",0.635,"",0,"",NA,"","images/map26_bwr_scaleDef_orientDef_270.png","angry",1,26,26,"bwr","orientDef","scaleDef","270",NA,NA
"","","","","","html-slider-response",69,251623,"0.0-65.0","c0ktpqvcbz",1,NA,"<div style=""width:500px;"">
                            <p style=""font-size:50px; font-weight:bold;""
                            >angry</p>
                            <div style=""width:240px; margin: auto;"">
                                <img src=""images/map02_inferno_scaleDef_orientMir_090.png"" style= ""width:200px""alt=""img"">
                            </div>
                        </div>",0.605,"",0,"",NA,"","images/map02_inferno_scaleDef_orientMir_090.png","angry",1,2,2,"inferno","orientMir","scaleDef","090",NA,NA
"","","","","","html-slider-response",70,252623,"0.0-66.0","c0ktpqvcbz",1,NA,"<div style=""width:500px;"">
                            <p style=""font-size:50px; font-weight:bold;""
                            >angry</p>
                            <div style=""width:240px; margin: auto;"">
                                <img src=""images/map12_PuBu_scaleDef_orientMir_090.png"" style= ""width:200px""alt=""img"">
                            </div>
                        </div>",0.645,"",0,"",NA,"","images/map12_PuBu_scaleDef_orientMir_090.png","angry",1,12,12,"PuBu","orientMir","scaleDef","090",NA,NA
"","","","","","html-slider-response",71,253606,"0.0-67.0","c0ktpqvcbz",1,NA,"<div style=""width:500px;"">
                            <p style=""font-size:50px; font-weight:bold;""
                            >angry</p>
                            <div style=""width:240px; margin: auto;"">
                                <img src=""images/map07_YlOrBr_scaleDef_orientMir_270.png"" style= ""width:200px""alt=""img"">
                            </div>
                        </div>",0.355,"",0,"",NA,"","images/map07_YlOrBr_scaleDef_orientMir_270.png","angry",1,7,7,"YlOrBr","orientMir","scaleDef","270",NA,NA
"","","","","","html-slider-response",72,255422,"0.0-68.0","c0ktpqvcbz",1,NA,"<div style=""width:500px;"">
                            <p style=""font-size:50px; font-weight:bold;""
                            >angry</p>
                            <div style=""width:240px; margin: auto;"">
                                <img src=""images/map27_turbo_scaleDef_orientMir_270.png"" style= ""width:200px""alt=""img"">
                            </div>
                        </div>",0.67,"",0,"",NA,"","images/map27_turbo_scaleDef_orientMir_270.png","angry",1,27,27,"turbo","orientMir","scaleDef","270",NA,NA
"","","","","","html-slider-response",73,256722,"0.0-69.0","c0ktpqvcbz",1,NA,"<div style=""width:500px;"">
                            <p style=""font-size:50px; font-weight:bold;""
                            >angry</p>
                            <div style=""width:240px; margin: auto;"">
                                <img src=""images/map26_seismic_scaleDef_orientMir_090.png"" style= ""width:200px""alt=""img"">
                            </div>
                        </div>",0.585,"",0,"",NA,"","images/map26_seismic_scaleDef_orientMir_090.png","angry",1,26,26,"seismic","orientMir","scaleDef","090",NA,NA
"","","","","","html-slider-response",74,258139,"0.0-70.0","c0ktpqvcbz",1,NA,"<div style=""width:500px;"">
                            <p style=""font-size:50px; font-weight:bold;""
                            >angry</p>
                            <div style=""width:240px; margin: auto;"">
                                <img src=""images/map15_BrBG_scaleRev_orientMir_000.png"" style= ""width:200px""alt=""img"">
                            </div>
                        </div>",0.42,"",0,"",NA,"","images/map15_BrBG_scaleRev_orientMir_000.png","angry",1,15,15,"BrBG","orientMir","scaleRev","000",NA,NA
"","","","","","html-slider-response",75,259539,"0.0-71.0","c0ktpqvcbz",1,NA,"<div style=""width:500px;"">
                            <p style=""font-size:50px; font-weight:bold;""
                            >angry</p>
                            <div style=""width:240px; margin: auto;"">
                                <img src=""images/map27_berlin_scaleRev_orientDef_000.png"" style= ""width:200px""alt=""img"">
                            </div>
                        </div>",0.37,"",0,"",NA,"","images/map27_berlin_scaleRev_orientDef_000.png","angry",1,27,27,"berlin","orientDef","scaleRev","000",NA,NA
"","","","","","html-slider-response",76,260705,"0.0-72.0","c0ktpqvcbz",1,NA,"<div style=""width:500px;"">
                            <p style=""font-size:50px; font-weight:bold;""
                            >angry</p>
                            <div style=""width:240px; margin: auto;"">
                                <img src=""images/map05_Greys_scaleDef_orientDef_270.png"" style= ""width:200px""alt=""img"">
                            </div>
                        </div>",0.37,"",0,"",NA,"","images/map05_Greys_scaleDef_orientDef_270.png","angry",1,5,5,"Greys","orientDef","scaleDef","270",NA,NA
"","","","","","html-slider-response",77,261907,"0.0-73.0","c0ktpqvcbz",1,NA,"<div style=""width:500px;"">
                            <p style=""font-size:50px; font-weight:bold;""
                            >angry</p>
                            <div style=""width:240px; margin: auto;"">
                                <img src=""images/map15_BrBG_scaleDef_orientDef_270.png"" style= ""width:200px""alt=""img"">
                            </div>
                        </div>",0.37,"",0,"",NA,"","images/map15_BrBG_scaleDef_orientDef_270.png","angry",1,15,15,"BrBG","orientDef","scaleDef","270",NA,NA
"","","","","","html-slider-response",78,263055,"0.0-74.0","c0ktpqvcbz",1,NA,"<div style=""width:500px;"">
                            <p style=""font-size:50px; font-weight:bold;""
                            >angry</p>
                            <div style=""width:240px; margin: auto;"">
                                <img src=""images/map02_inferno_scaleRev_orientMir_180.png"" style= ""width:200px""alt=""img"">
                            </div>
                        </div>",0.405,"",0,"",NA,"","images/map02_inferno_scaleRev_orientMir_180.png","angry",1,2,2,"inferno","orientMir","scaleRev","180",NA,NA
"","","","","","html-slider-response",79,264506,"0.0-75.0","c0ktpqvcbz",1,NA,"<div style=""width:500px;"">
                            <p style=""font-size:50px; font-weight:bold;""
                            >angry</p>
                            <div style=""width:240px; margin: auto;"">
                                <img src=""images/map15_PRGn_scaleRev_orientDef_180.png"" style= ""width:200px""alt=""img"">
                            </div>
                        </div>",0.3975,"",0,"",NA,"","images/map15_PRGn_scaleRev_orientDef_180.png","angry",1,15,15,"PRGn","orientDef","scaleRev","180",NA,NA
"","","","","","html-slider-response",80,265872,"0.0-76.0","c0ktpqvcbz",1,NA,"<div style=""width:500px;"">
                            <p style=""font-size:50px; font-weight:bold;""
                            >angry</p>
                            <div style=""width:240px; margin: auto;"">
                                <img src=""images/map13_PuBuGn_scaleRev_orientDef_180.png"" style= ""width:200px""alt=""img"">
                            </div>
                        </div>",0.41,"",0,"",NA,"","images/map13_PuBuGn_scaleRev_orientDef_180.png","angry",1,13,13,"PuBuGn","orientDef","scaleRev","180",NA,NA
"","","","","","html-slider-response",81,267456,"0.0-77.0","c0ktpqvcbz",1,NA,"<div style=""width:500px;"">
                            <p style=""font-size:50px; font-weight:bold;""
                            >angry</p>
                            <div style=""width:240px; margin: auto;"">
                                <img src=""images/map07_Greens_scaleDef_orientDef_090.png"" style= ""width:200px""alt=""img"">
                            </div>
                        </div>",0.2775,"",0,"",NA,"","images/map07_Greens_scaleDef_orientDef_090.png","angry",1,7,7,"Greens","orientDef","scaleDef","090",NA,NA
"","","","","","html-slider-response",82,269238,"0.0-78.0","c0ktpqvcbz",1,NA,"<div style=""width:500px;"">
                            <p style=""font-size:50px; font-weight:bold;""
                            >angry</p>
                            <div style=""width:240px; margin: auto;"">
                                <img src=""images/map12_RdPu_scaleRev_orientDef_000.png"" style= ""width:200px""alt=""img"">
                            </div>
                        </div>",0.6175,"",0,"",NA,"","images/map12_RdPu_scaleRev_orientDef_000.png","angry",1,12,12,"RdPu","orientDef","scaleRev","000",NA,NA
"","","","","","html-slider-response",83,270740,"0.0-79.0","c0ktpqvcbz",1,NA,"<div style=""width:500px;"">
                            <p style=""font-size:50px; font-weight:bold;""
                            >angry</p>
                            <div style=""width:240px; margin: auto;"">
                                <img src=""images/map10_PuRd_scaleRev_orientMir_180.png"" style= ""width:200px""alt=""img"">
                            </div>
                        </div>",0.6225,"",0,"",NA,"","images/map10_PuRd_scaleRev_orientMir_180.png","angry",1,10,10,"PuRd","orientMir","scaleRev","180",NA,NA
"","","","","","html-slider-response",84,272373,"0.0-80.0","c0ktpqvcbz",1,NA,"<div style=""width:500px;"">
                            <p style=""font-size:50px; font-weight:bold;""
                            >angry</p>
                            <div style=""width:240px; margin: auto;"">
                                <img src=""images/map13_PiYG_scaleDef_orientMir_270.png"" style= ""width:200px""alt=""img"">
                            </div>
                        </div>",0.195,"",0,"",NA,"","images/map13_PiYG_scaleDef_orientMir_270.png","angry",1,13,13,"PiYG","orientMir","scaleDef","270",NA,NA
"","","","","","html-slider-response",85,273690,"0.0-81.0","c0ktpqvcbz",1,NA,"<div style=""width:500px;"">
                            <p style=""font-size:50px; font-weight:bold;""
                            >angry</p>
                            <div style=""width:240px; margin: auto;"">
                                <img src=""images/map27_vanimo_scaleRev_orientMir_000.png"" style= ""width:200px""alt=""img"">
                            </div>
                        </div>",0.2075,"",0,"",NA,"","images/map27_vanimo_scaleRev_orientMir_000.png","angry",1,27,27,"vanimo","orientMir","scaleRev","000",NA,NA
"","","","","","html-slider-response",86,275372,"0.0-82.0","c0ktpqvcbz",1,NA,"<div style=""width:500px;"">
                            <p style=""font-size:50px; font-weight:bold;""
                            >angry</p>
                            <div style=""width:240px; margin: auto;"">
                                <img src=""images/map10_YlOrRd_scaleRev_orientDef_180.png"" style= ""width:200px""alt=""img"">
                            </div>
                        </div>",0.6775,"",0,"",NA,"","images/map10_YlOrRd_scaleRev_orientDef_180.png","angry",1,10,10,"YlOrRd","orientDef","scaleRev","180",NA,NA
"","","","","","html-slider-response",87,277240,"0.0-83.0","c0ktpqvcbz",1,NA,"<div style=""width:500px;"">
                            <p style=""font-size:50px; font-weight:bold;""
                            >angry</p>
                            <div style=""width:240px; margin: auto;"">
                                <img src=""images/map15_PuOr_scaleDef_orientMir_090.png"" style= ""width:200px""alt=""img"">
                            </div>
                        </div>",0.3225,"",0,"",NA,"","images/map15_PuOr_scaleDef_orientMir_090.png","angry",1,15,15,"PuOr","orientMir","scaleDef","090",NA,NA
"","","","","","html-slider-response",88,278889,"0.0-84.0","c0ktpqvcbz",1,NA,"<div style=""width:500px;"">
                            <p style=""font-size:50px; font-weight:bold;""
                            >angry</p>
                            <div style=""width:240px; margin: auto;"">
                                <img src=""images/map10_OrRd_scaleRev_orientMir_000.png"" style= ""width:200px""alt=""img"">
                            </div>
                        </div>",0.705,"",0,"",NA,"","images/map10_OrRd_scaleRev_orientMir_000.png","angry",1,10,10,"OrRd","orientMir","scaleRev","000",NA,NA
"","","","","","html-slider-response",89,280404,"0.0-85.0","c0ktpqvcbz",1,NA,"<div style=""width:500px;"">
                            <p style=""font-size:50px; font-weight:bold;""
                            >angry</p>
                            <div style=""width:240px; margin: auto;"">
                                <img src=""images/map13_YlGn_scaleDef_orientMir_090.png"" style= ""width:200px""alt=""img"">
                            </div>
                        </div>",0.265,"",0,"",NA,"","images/map13_YlGn_scaleDef_orientMir_090.png","angry",1,13,13,"YlGn","orientMir","scaleDef","090",NA,NA
"","","","","","html-slider-response",90,282790,"0.0-86.0","c0ktpqvcbz",1,NA,"<div style=""width:500px;"">
                            <p style=""font-size:50px; font-weight:bold;""
                            >angry</p>
                            <div style=""width:240px; margin: auto;"">
                                <img src=""images/map26_seismic_scaleRev_orientMir_180.png"" style= ""width:200px""alt=""img"">
                            </div>
                        </div>",0.745,"",0,"",NA,"","images/map26_seismic_scaleRev_orientMir_180.png","angry",1,26,26,"seismic","orientMir","scaleRev","180",NA,NA
"","","","","","html-slider-response",91,284255,"0.0-87.0","c0ktpqvcbz",1,NA,"<div style=""width:500px;"">
                            <p style=""font-size:50px; font-weight:bold;""
                            >angry</p>
                            <div style=""width:240px; margin: auto;"">
                                <img src=""images/map27_gist_earth_scaleDef_orientMir_090.png"" style= ""width:200px""alt=""img"">
                            </div>
                        </div>",0.3275,"",0,"",NA,"","images/map27_gist_earth_scaleDef_orientMir_090.png","angry",1,27,27,"gist","scaleDef","earth","orientMir",NA,NA
"","","","","","html-slider-response",92,285939,"0.0-88.0","c0ktpqvcbz",1,NA,"<div style=""width:500px;"">
                            <p style=""font-size:50px; font-weight:bold;""
                            >angry</p>
                            <div style=""width:240px; margin: auto;"">
                                <img src=""images/map02_magma_scaleDef_orientMir_270.png"" style= ""width:200px""alt=""img"">
                            </div>
                        </div>",0.77,"",0,"",NA,"","images/map02_magma_scaleDef_orientMir_270.png","angry",1,2,2,"magma","orientMir","scaleDef","270",NA,NA
"","","","","","html-slider-response",93,287873,"0.0-89.0","c0ktpqvcbz",1,NA,"<div style=""width:500px;"">
                            <p style=""font-size:50px; font-weight:bold;""
                            >angry</p>
                            <div style=""width:240px; margin: auto;"">
                                <img src=""images/map23_RdBu_scaleRev_orientDef_180.png"" style= ""width:200px""alt=""img"">
                            </div>
                        </div>",0.555,"",0,"",NA,"","images/map23_RdBu_scaleRev_orientDef_180.png","angry",1,23,23,"RdBu","orientDef","scaleRev","180",NA,NA
"","","","","","html-slider-response",94,289172,"0.0-90.0","c0ktpqvcbz",1,NA,"<div style=""width:500px;"">
                            <p style=""font-size:50px; font-weight:bold;""
                            >angry</p>
                            <div style=""width:240px; margin: auto;"">
                                <img src=""images/map13_PuBuGn_scaleDef_orientDef_090.png"" style= ""width:200px""alt=""img"">
                            </div>
                        </div>",0.345,"",0,"",NA,"","images/map13_PuBuGn_scaleDef_orientDef_090.png","angry",1,13,13,"PuBuGn","orientDef","scaleDef","090",NA,NA
"","","","","","html-slider-response",95,297656,"0.0-91.0","c0ktpqvcbz",1,NA,"<div style=""width:500px;"">
                            <p style=""font-size:50px; font-weight:bold;""
                            >angry</p>
                            <div style=""width:240px; margin: auto;"">
                                <img src=""images/map23_RdYlGn_scaleDef_orientMir_090.png"" style= ""width:200px""alt=""img"">
                            </div>
                        </div>",0.245,"",0,"",NA,"","images/map23_RdYlGn_scaleDef_orientMir_090.png","angry",1,23,23,"RdYlGn","orientMir","scaleDef","090",NA,NA
"","","","","","html-slider-response",96,314940,"0.0-92.0","c0ktpqvcbz",1,NA,"<div style=""width:500px;"">
                            <p style=""font-size:50px; font-weight:bold;""
                            >angry</p>
                            <div style=""width:240px; margin: auto;"">
                                <img src=""images/map10_YlOrRd_scaleDef_orientDef_090.png"" style= ""width:200px""alt=""img"">
                            </div>
                        </div>",0.735,"",0,"",NA,"","images/map10_YlOrRd_scaleDef_orientDef_090.png","angry",1,10,10,"YlOrRd","orientDef","scaleDef","090",NA,NA
"","","","","","html-slider-response",97,316989,"0.0-93.0","c0ktpqvcbz",1,NA,"<div style=""width:500px;"">
                            <p style=""font-size:50px; font-weight:bold;""
                            >angry</p>
                            <div style=""width:240px; margin: auto;"">
                                <img src=""images/map05_Blues_scaleDef_orientMir_270.png"" style= ""width:200px""alt=""img"">
                            </div>
                        </div>",0.155,"",0,"",NA,"","images/map05_Blues_scaleDef_orientMir_270.png","angry",1,5,5,"Blues","orientMir","scaleDef","270",NA,NA
"","","","","","html-slider-response",98,318723,"0.0-94.0","c0ktpqvcbz",1,NA,"<div style=""width:500px;"">
                            <p style=""font-size:50px; font-weight:bold;""
                            >angry</p>
                            <div style=""width:240px; margin: auto;"">
                                <img src=""images/map26_coolwarm_scaleRev_orientDef_180.png"" style= ""width:200px""alt=""img"">
                            </div>
                        </div>",0.195,"",0,"",NA,"","images/map26_coolwarm_scaleRev_orientDef_180.png","angry",1,26,26,"coolwarm","orientDef","scaleRev","180",NA,NA
"","","","","","html-button-response",99,320512,"0.0-95.0","c0ktpqvcbz",1,1286,"<p>Great Job! You've finished block 1.<br></br> You have 4 block(s) left to go.<br></br></p>",0.5,"",NA,"",NA,"","","",NA,NA,NA,"","","","",NA,NA
"","","","","","html-button-response",100,321429,"0.0-96.0","c0ktpqvcbz",1,915,"<p>In this block of trials, you will be asked to rate how much you associate each map with:</p > <p style = 'font-size:150%; font-weight: bold'>happy</p><br></br>",0.5,"",NA,"",NA,"","","",NA,NA,NA,"","","","",NA,NA
"","","","","","html-slider-response",101,322921,"0.0-97.0","c0ktpqvcbz",1,NA,"<div style=""width:500px;"">
                            <p style=""font-size:50px; font-weight:bold;""
                            >happy</p>
                            <div style=""width:240px; margin: auto;"">
                                <img src=""images/map07_Reds_scaleDef_orientMir_090.png"" style= ""width:200px""alt=""img"">
                            </div>
                        </div>",0.38,"",0,"",NA,"","images/map07_Reds_scaleDef_orientMir_090.png","happy",1,7,7,"Reds","orientMir","scaleDef","090",NA,NA
"","","","","","html-slider-response",102,324440,"0.0-98.0","c0ktpqvcbz",1,NA,"<div style=""width:500px;"">
                            <p style=""font-size:50px; font-weight:bold;""
                            >happy</p>
                            <div style=""width:240px; margin: auto;"">
                                <img src=""images/map27_berlin_scaleRev_orientDef_000.png"" style= ""width:200px""alt=""img"">
                            </div>
                        </div>",0.35,"",0,"",NA,"","images/map27_berlin_scaleRev_orientDef_000.png","happy",1,27,27,"berlin","orientDef","scaleRev","000",NA,NA
"","","","","","html-slider-response",103,326090,"0.0-99.0","c0ktpqvcbz",1,NA,"<div style=""width:500px;"">
                            <p style=""font-size:50px; font-weight:bold;""
                            >happy</p>
                            <div style=""width:240px; margin: auto;"">
                                <img src=""images/map27_managua_scaleDef_orientDef_090.png"" style= ""width:200px""alt=""img"">
                            </div>
                        </div>",0.265,"",0,"",NA,"","images/map27_managua_scaleDef_orientDef_090.png","happy",1,27,27,"managua","orientDef","scaleDef","090",NA,NA
"","","","","","html-slider-response",104,327489,"0.0-100.0","c0ktpqvcbz",1,NA,"<div style=""width:500px;"">
                            <p style=""font-size:50px; font-weight:bold;""
                            >happy</p>
                            <div style=""width:240px; margin: auto;"">
                                <img src=""images/map02_inferno_scaleRev_orientMir_180.png"" style= ""width:200px""alt=""img"">
                            </div>
                        </div>",0.265,"",0,"",NA,"","images/map02_inferno_scaleRev_orientMir_180.png","happy",1,2,2,"inferno","orientMir","scaleRev","180",NA,NA
"","","","","","html-slider-response",105,328707,"0.0-101.0","c0ktpqvcbz",1,NA,"<div style=""width:500px;"">
                            <p style=""font-size:50px; font-weight:bold;""
                            >happy</p>
                            <div style=""width:240px; margin: auto;"">
                                <img src=""images/map07_Greens_scaleDef_orientDef_090.png"" style= ""width:200px""alt=""img"">
                            </div>
                        </div>",0.205,"",0,"",NA,"","images/map07_Greens_scaleDef_orientDef_090.png","happy",1,7,7,"Greens","orientDef","scaleDef","090",NA,NA
"","","","","","html-slider-response",106,331123,"0.0-102.0","c0ktpqvcbz",1,NA,"<div style=""width:500px;"">
                            <p style=""font-size:50px; font-weight:bold;""
                            >happy</p>
                            <div style=""width:240px; margin: auto;"">
                                <img src=""images/map15_PuOr_scaleDef_orientMir_090.png"" style= ""width:200px""alt=""img"">
                            </div>
                        </div>",0.63,"",0,"",NA,"","images/map15_PuOr_scaleDef_orientMir_090.png","happy",1,15,15,"PuOr","orientMir","scaleDef","090",NA,NA
"","","","","","html-slider-response",107,332757,"0.0-103.0","c0ktpqvcbz",1,NA,"<div style=""width:500px;"">
                            <p style=""font-size:50px; font-weight:bold;""
                            >happy</p>
                            <div style=""width:240px; margin: auto;"">
                                <img src=""images/map13_PuBuGn_scaleRev_orientDef_180.png"" style= ""width:200px""alt=""img"">
                            </div>
                        </div>",0.5825,"",0,"",NA,"","images/map13_PuBuGn_scaleRev_orientDef_180.png","happy",1,13,13,"PuBuGn","orientDef","scaleRev","180",NA,NA
"","","","","","html-slider-response",108,333939,"0.0-104.0","c0ktpqvcbz",1,NA,"<div style=""width:500px;"">
                            <p style=""font-size:50px; font-weight:bold;""
                            >happy</p>
                            <div style=""width:240px; margin: auto;"">
                                <img src=""images/map12_PuBu_scaleDef_orientMir_090.png"" style= ""width:200px""alt=""img"">
                            </div>
                        </div>",0.74,"",0,"",NA,"","images/map12_PuBu_scaleDef_orientMir_090.png","happy",1,12,12,"PuBu","orientMir","scaleDef","090",NA,NA
"","","","","","html-slider-response",109,335922,"0.0-105.0","c0ktpqvcbz",1,NA,"<div style=""width:500px;"">
                            <p style=""font-size:50px; font-weight:bold;""
                            >happy</p>
                            <div style=""width:240px; margin: auto;"">
                                <img src=""images/map27_turbo_scaleDef_orientMir_270.png"" style= ""width:200px""alt=""img"">
                            </div>
                        </div>",0.5775,"",0,"",NA,"","images/map27_turbo_scaleDef_orientMir_270.png","happy",1,27,27,"turbo","orientMir","scaleDef","270",NA,NA
"","","","","","html-slider-response",110,338039,"0.0-106.0","c0ktpqvcbz",1,NA,"<div style=""width:500px;"">
                            <p style=""font-size:50px; font-weight:bold;""
                            >happy</p>
                            <div style=""width:240px; margin: auto;"">
                                <img src=""images/map07_Oranges_scaleDef_orientDef_270.png"" style= ""width:200px""alt=""img"">
                            </div>
                        </div>",0.325,"",0,"",NA,"","images/map07_Oranges_scaleDef_orientDef_270.png","happy",1,7,7,"Oranges","orientDef","scaleDef","270",NA,NA
"","","","","","html-slider-response",111,339290,"0.0-107.0","c0ktpqvcbz",1,NA,"<div style=""width:500px;"">
                            <p style=""font-size:50px; font-weight:bold;""
                            >happy</p>
                            <div style=""width:240px; margin: auto;"">
                                <img src=""images/map05_magma_scaleRev_orientDef_000.png"" style= ""width:200px""alt=""img"">
                            </div>
                        </div>",0.325,"",0,"",NA,"","images/map05_magma_scaleRev_orientDef_000.png","happy",1,5,5,"magma","orientDef","scaleRev","000",NA,NA
"","","","","","html-slider-response",112,340673,"0.0-108.0","c0ktpqvcbz",1,NA,"<div style=""width:500px;"">
                            <p style=""font-size:50px; font-weight:bold;""
                            >happy</p>
                            <div style=""width:240px; margin: auto;"">
                                <img src=""images/map26_coolwarm_scaleDef_orientDef_090.png"" style= ""width:200px""alt=""img"">
                            </div>
                        </div>",0.425,"",0,"",NA,"","images/map26_coolwarm_scaleDef_orientDef_090.png","happy",1,26,26,"coolwarm","orientDef","scaleDef","090",NA,NA
"","","","","","html-slider-response",113,342505,"0.0-109.0","c0ktpqvcbz",1,NA,"<div style=""width:500px;"">
                            <p style=""font-size:50px; font-weight:bold;""
                            >happy</p>
                            <div style=""width:240px; margin: auto;"">
                                <img src=""images/map13_YlGn_scaleDef_orientMir_090.png"" style= ""width:200px""alt=""img"">
                            </div>
                        </div>",0.755,"",0,"",NA,"","images/map13_YlGn_scaleDef_orientMir_090.png","happy",1,13,13,"YlGn","orientMir","scaleDef","090",NA,NA
"","","","","","html-slider-response",114,344023,"0.0-110.0","c0ktpqvcbz",1,NA,"<div style=""width:500px;"">
                            <p style=""font-size:50px; font-weight:bold;""
                            >happy</p>
                            <div style=""width:240px; margin: auto;"">
                                <img src=""images/map26_Spectral_scaleRev_orientDef_000.png"" style= ""width:200px""alt=""img"">
                            </div>
                        </div>",0.815,"",0,"",NA,"","images/map26_Spectral_scaleRev_orientDef_000.png","happy",1,26,26,"Spectral","orientDef","scaleRev","000",NA,NA
"","","","","","html-slider-response",115,345405,"0.0-111.0","c0ktpqvcbz",1,NA,"<div style=""width:500px;"">
                            <p style=""font-size:50px; font-weight:bold;""
                            >happy</p>
                            <div style=""width:240px; margin: auto;"">
                                <img src=""images/map23_RdYlGn_scaleRev_orientMir_180.png"" style= ""width:200px""alt=""img"">
                            </div>
                        </div>",0.825,"",0,"",NA,"","images/map23_RdYlGn_scaleRev_orientMir_180.png","happy",1,23,23,"RdYlGn","orientMir","scaleRev","180",NA,NA
"","","","","","html-slider-response",116,347340,"0.0-112.0","c0ktpqvcbz",1,NA,"<div style=""width:500px;"">
                            <p style=""font-size:50px; font-weight:bold;""
                            >happy</p>
                            <div style=""width:240px; margin: auto;"">
                                <img src=""images/map10_YlOrRd_scaleRev_orientDef_180.png"" style= ""width:200px""alt=""img"">
                            </div>
                        </div>",0.2975,"",0,"",NA,"","images/map10_YlOrRd_scaleRev_orientDef_180.png","happy",1,10,10,"YlOrRd","orientDef","scaleRev","180",NA,NA
"","","","","","html-slider-response",117,348739,"0.0-113.0","c0ktpqvcbz",1,NA,"<div style=""width:500px;"">
                            <p style=""font-size:50px; font-weight:bold;""
                            >happy</p>
                            <div style=""width:240px; margin: auto;"">
                                <img src=""images/map05_cividis_scaleRev_orientDef_180.png"" style= ""width:200px""alt=""img"">
                            </div>
                        </div>",0.1625,"",0,"",NA,"","images/map05_cividis_scaleRev_orientDef_180.png","happy",1,5,5,"cividis","orientDef","scaleRev","180",NA,NA
"","","","","","html-slider-response",118,350424,"0.0-114.0","c0ktpqvcbz",1,NA,"<div style=""width:500px;"">
                            <p style=""font-size:50px; font-weight:bold;""
                            >happy</p>
                            <div style=""width:240px; margin: auto;"">
                                <img src=""images/map02_turbo_scaleRev_orientDef_000.png"" style= ""width:200px""alt=""img"">
                            </div>
                        </div>",0.66,"",0,"",NA,"","images/map02_turbo_scaleRev_orientDef_000.png","happy",1,2,2,"turbo","orientDef","scaleRev","000",NA,NA
"","","","","","html-slider-response",119,351923,"0.0-115.0","c0ktpqvcbz",1,NA,"<div style=""width:500px;"">
                            <p style=""font-size:50px; font-weight:bold;""
                            >happy</p>
                            <div style=""width:240px; margin: auto;"">
                                <img src=""images/map26_seismic_scaleDef_orientMir_090.png"" style= ""width:200px""alt=""img"">
                            </div>
                        </div>",0.75,"",0,"",NA,"","images/map26_seismic_scaleDef_orientMir_090.png","happy",1,26,26,"seismic","orientMir","scaleDef","090",NA,NA
"","","","","","html-slider-response",120,353506,"0.0-116.0","c0ktpqvcbz",1,NA,"<div style=""width:500px;"">
                            <p style=""font-size:50px; font-weight:bold;""
                            >happy</p>
                            <div style=""width:240px; margin: auto;"">
                                <img src=""images/map13_YlGn_scaleRev_orientMir_180.png"" style= ""width:200px""alt=""img"">
                            </div>
                        </div>",0.685,"",0,"",NA,"","images/map13_YlGn_scaleRev_orientMir_180.png","happy",1,13,13,"YlGn","orientMir","scaleRev","180",NA,NA
"","","","","","html-slider-response",121,354722,"0.0-117.0","c0ktpqvcbz",1,NA,"<div style=""width:500px;"">
                            <p style=""font-size:50px; font-weight:bold;""
                            >happy</p>
                            <div style=""width:240px; margin: auto;"">
                                <img src=""images/map26_bwr_scaleRev_orientMir_000.png"" style= ""width:200px""alt=""img"">
                            </div>
                        </div>",0.595,"",0,"",NA,"","images/map26_bwr_scaleRev_orientMir_000.png","happy",1,26,26,"bwr","orientMir","scaleRev","000",NA,NA
"","","","","","html-slider-response",122,357573,"0.0-118.0","c0ktpqvcbz",1,NA,"<div style=""width:500px;"">
                            <p style=""font-size:50px; font-weight:bold;""
                            >happy</p>
                            <div style=""width:240px; margin: auto;"">
                                <img src=""images/map27_gist_earth_scaleRev_orientMir_180.png"" style= ""width:200px""alt=""img"">
                            </div>
                        </div>",0.4325,"",0,"",NA,"","images/map27_gist_earth_scaleRev_orientMir_180.png","happy",1,27,27,"gist","scaleRev","earth","orientMir",NA,NA
"","","","","","html-slider-response",123,359122,"0.0-119.0","c0ktpqvcbz",1,NA,"<div style=""width:500px;"">
                            <p style=""font-size:50px; font-weight:bold;""
                            >happy</p>
                            <div style=""width:240px; margin: auto;"">
                                <img src=""images/map13_YlGnBu_scaleRev_orientDef_000.png"" style= ""width:200px""alt=""img"">
                            </div>
                        </div>",0.6125,"",0,"",NA,"","images/map13_YlGnBu_scaleRev_orientDef_000.png","happy",1,13,13,"YlGnBu","orientDef","scaleRev","000",NA,NA
"","","","","","html-slider-response",124,361107,"0.0-120.0","c0ktpqvcbz",1,NA,"<div style=""width:500px;"">
                            <p style=""font-size:50px; font-weight:bold;""
                            >happy</p>
                            <div style=""width:240px; margin: auto;"">
                                <img src=""images/map13_BuGn_scaleDef_orientDef_270.png"" style= ""width:200px""alt=""img"">
                            </div>
                        </div>",0.585,"",0,"",NA,"","images/map13_BuGn_scaleDef_orientDef_270.png","happy",1,13,13,"BuGn","orientDef","scaleDef","270",NA,NA
"","","","","","html-slider-response",125,362973,"0.0-121.0","c0ktpqvcbz",1,NA,"<div style=""width:500px;"">
                            <p style=""font-size:50px; font-weight:bold;""
                            >happy</p>
                            <div style=""width:240px; margin: auto;"">
                                <img src=""images/map05_Greys_scaleDef_orientDef_270.png"" style= ""width:200px""alt=""img"">
                            </div>
                        </div>",0.2675,"",0,"",NA,"","images/map05_Greys_scaleDef_orientDef_270.png","happy",1,5,5,"Greys","orientDef","scaleDef","270",NA,NA
"","","","","","html-slider-response",126,364323,"0.0-122.0","c0ktpqvcbz",1,NA,"<div style=""width:500px;"">
                            <p style=""font-size:50px; font-weight:bold;""
                            >happy</p>
                            <div style=""width:240px; margin: auto;"">
                                <img src=""images/map27_vanimo_scaleRev_orientMir_000.png"" style= ""width:200px""alt=""img"">
                            </div>
                        </div>",0.28,"",0,"",NA,"","images/map27_vanimo_scaleRev_orientMir_000.png","happy",1,27,27,"vanimo","orientMir","scaleRev","000",NA,NA
"","","","","","html-slider-response",127,365888,"0.0-123.0","c0ktpqvcbz",1,NA,"<div style=""width:500px;"">
                            <p style=""font-size:50px; font-weight:bold;""
                            >happy</p>
                            <div style=""width:240px; margin: auto;"">
                                <img src=""images/map02_magma_scaleDef_orientMir_270.png"" style= ""width:200px""alt=""img"">
                            </div>
                        </div>",0.295,"",0,"",NA,"","images/map02_magma_scaleDef_orientMir_270.png","happy",1,2,2,"magma","orientMir","scaleDef","270",NA,NA
"","","","","","html-slider-response",128,367507,"0.0-124.0","c0ktpqvcbz",1,NA,"<div style=""width:500px;"">
                            <p style=""font-size:50px; font-weight:bold;""
                            >happy</p>
                            <div style=""width:240px; margin: auto;"">
                                <img src=""images/map26_seismic_scaleRev_orientMir_180.png"" style= ""width:200px""alt=""img"">
                            </div>
                        </div>",0.6425,"",0,"",NA,"","images/map26_seismic_scaleRev_orientMir_180.png","happy",1,26,26,"seismic","orientMir","scaleRev","180",NA,NA
"","","","","","html-slider-response",129,369156,"0.0-125.0","c0ktpqvcbz",1,NA,"<div style=""width:500px;"">
                            <p style=""font-size:50px; font-weight:bold;""
                            >happy</p>
                            <div style=""width:240px; margin: auto;"">
                                <img src=""images/map23_RdYlBu_scaleRev_orientMir_000.png"" style= ""width:200px""alt=""img"">
                            </div>
                        </div>",0.685,"",0,"",NA,"","images/map23_RdYlBu_scaleRev_orientMir_000.png","happy",1,23,23,"RdYlBu","orientMir","scaleRev","000",NA,NA
"","","","","","html-slider-response",130,370606,"0.0-126.0","c0ktpqvcbz",1,NA,"<div style=""width:500px;"">
                            <p style=""font-size:50px; font-weight:bold;""
                            >happy</p>
                            <div style=""width:240px; margin: auto;"">
                                <img src=""images/map07_Blues_scaleRev_orientDef_000.png"" style= ""width:200px""alt=""img"">
                            </div>
                        </div>",0.5675,"",0,"",NA,"","images/map07_Blues_scaleRev_orientDef_000.png","happy",1,7,7,"Blues","orientDef","scaleRev","000",NA,NA
"","","","","","html-slider-response",131,372123,"0.0-127.0","c0ktpqvcbz",1,NA,"<div style=""width:500px;"">
                            <p style=""font-size:50px; font-weight:bold;""
                            >happy</p>
                            <div style=""width:240px; margin: auto;"">
                                <img src=""images/map15_PiYG_scaleRev_orientDef_000.png"" style= ""width:200px""alt=""img"">
                            </div>
                        </div>",0.58,"",0,"",NA,"","images/map15_PiYG_scaleRev_orientDef_000.png","happy",1,15,15,"PiYG","orientDef","scaleRev","000",NA,NA
"","","","","","html-slider-response",132,373706,"0.0-128.0","c0ktpqvcbz",1,NA,"<div style=""width:500px;"">
                            <p style=""font-size:50px; font-weight:bold;""
                            >happy</p>
                            <div style=""width:240px; margin: auto;"">
                                <img src=""images/map23_RdGy_scaleRev_orientDef_000.png"" style= ""width:200px""alt=""img"">
                            </div>
                        </div>",0.3575,"",0,"",NA,"","images/map23_RdGy_scaleRev_orientDef_000.png","happy",1,23,23,"RdGy","orientDef","scaleRev","000",NA,NA
"","","","","","html-slider-response",133,375457,"0.0-129.0","c0ktpqvcbz",1,NA,"<div style=""width:500px;"">
                            <p style=""font-size:50px; font-weight:bold;""
                            >happy</p>
                            <div style=""width:240px; margin: auto;"">
                                <img src=""images/map27_gist_earth_scaleDef_orientMir_090.png"" style= ""width:200px""alt=""img"">
                            </div>
                        </div>",0.63,"",0,"",NA,"","images/map27_gist_earth_scaleDef_orientMir_090.png","happy",1,27,27,"gist","scaleDef","earth","orientMir",NA,NA
"","","","","","html-slider-response",134,377806,"0.0-130.0","c0ktpqvcbz",1,NA,"<div style=""width:500px;"">
                            <p style=""font-size:50px; font-weight:bold;""
                            >happy</p>
                            <div style=""width:240px; margin: auto;"">
                                <img src=""images/map05_cividis_scaleDef_orientDef_090.png"" style= ""width:200px""alt=""img"">
                            </div>
                        </div>",0.1575,"",0,"",NA,"","images/map05_cividis_scaleDef_orientDef_090.png","happy",1,5,5,"cividis","orientDef","scaleDef","090",NA,NA
"","","","","","html-slider-response",135,380273,"0.0-131.0","c0ktpqvcbz",1,NA,"<div style=""width:500px;"">
                            <p style=""font-size:50px; font-weight:bold;""
                            >happy</p>
                            <div style=""width:240px; margin: auto;"">
                                <img src=""images/map23_RdYlGn_scaleDef_orientMir_090.png"" style= ""width:200px""alt=""img"">
                            </div>
                        </div>",0.575,"",0,"",NA,"","images/map23_RdYlGn_scaleDef_orientMir_090.png","happy",1,23,23,"RdYlGn","orientMir","scaleDef","090",NA,NA
"","","","","","html-slider-response",136,381989,"0.0-132.0","c0ktpqvcbz",1,NA,"<div style=""width:500px;"">
                            <p style=""font-size:50px; font-weight:bold;""
                            >happy</p>
                            <div style=""width:240px; margin: auto;"">
                                <img src=""images/map27_vanimo_scaleDef_orientDef_270.png"" style= ""width:200px""alt=""img"">
                            </div>
                        </div>",0.255,"",0,"",NA,"","images/map27_vanimo_scaleDef_orientDef_270.png","happy",1,27,27,"vanimo","orientDef","scaleDef","270",NA,NA
"","","","","","html-slider-response",137,383891,"0.0-133.0","c0ktpqvcbz",1,NA,"<div style=""width:500px;"">
                            <p style=""font-size:50px; font-weight:bold;""
                            >happy</p>
                            <div style=""width:240px; margin: auto;"">
                                <img src=""images/map05_Greys_scaleRev_orientMir_000.png"" style= ""width:200px""alt=""img"">
                            </div>
                        </div>",0.0625,"",0,"",NA,"","images/map05_Greys_scaleRev_orientMir_000.png","happy",1,5,5,"Greys","orientMir","scaleRev","000",NA,NA
"","","","","","html-slider-response",138,386989,"0.0-134.0","c0ktpqvcbz",1,NA,"<div style=""width:500px;"">
                            <p style=""font-size:50px; font-weight:bold;""
                            >happy</p>
                            <div style=""width:240px; margin: auto;"">
                                <img src=""images/map12_GnBu_scaleDef_orientDef_270.png"" style= ""width:200px""alt=""img"">
                            </div>
                        </div>",0.59,"",0,"",NA,"","images/map12_GnBu_scaleDef_orientDef_270.png","happy",1,12,12,"GnBu","orientDef","scaleDef","270",NA,NA
"","","","","","html-slider-response",139,389290,"0.0-135.0","c0ktpqvcbz",1,NA,"<div style=""width:500px;"">
                            <p style=""font-size:50px; font-weight:bold;""
                            >happy</p>
                            <div style=""width:240px; margin: auto;"">
                                <img src=""images/map15_PRGn_scaleRev_orientDef_180.png"" style= ""width:200px""alt=""img"">
                            </div>
                        </div>",0.53,"",0,"",NA,"","images/map15_PRGn_scaleRev_orientDef_180.png","happy",1,15,15,"PRGn","orientDef","scaleRev","180",NA,NA
"","","","","","html-slider-response",140,391056,"0.0-136.0","c0ktpqvcbz",1,NA,"<div style=""width:500px;"">
                            <p style=""font-size:50px; font-weight:bold;""
                            >happy</p>
                            <div style=""width:240px; margin: auto;"">
                                <img src=""images/map13_PiYG_scaleDef_orientMir_270.png"" style= ""width:200px""alt=""img"">
                            </div>
                        </div>",0.5625,"",0,"",NA,"","images/map13_PiYG_scaleDef_orientMir_270.png","happy",1,13,13,"PiYG","orientMir","scaleDef","270",NA,NA
"","","","","","html-button-response",141,393129,"0.0-137.0","c0ktpqvcbz",1,1570,"<p>You are doing great!<br></br> You are halway done with the current block. When you are ready to continue, click the 'Continue' button.</p>",0.5,"",NA,"",NA,"","","",NA,NA,NA,"","","","",NA,NA
"","","","","","html-slider-response",142,394922,"0.0-138.0","c0ktpqvcbz",1,NA,"<div style=""width:500px;"">
                            <p style=""font-size:50px; font-weight:bold;""
                            >happy</p>
                            <div style=""width:240px; margin: auto;"">
                                <img src=""images/map23_RdYlBu_scaleDef_orientDef_270.png"" style= ""width:200px""alt=""img"">
                            </div>
                        </div>",0.64,"",0,"",NA,"","images/map23_RdYlBu_scaleDef_orientDef_270.png","happy",1,23,23,"RdYlBu","orientDef","scaleDef","270",NA,NA
"","","","","","html-slider-response",143,396506,"0.0-139.0","c0ktpqvcbz",1,NA,"<div style=""width:500px;"">
                            <p style=""font-size:50px; font-weight:bold;""
                            >happy</p>
                            <div style=""width:240px; margin: auto;"">
                                <img src=""images/map15_BrBG_scaleDef_orientDef_270.png"" style= ""width:200px""alt=""img"">
                            </div>
                        </div>",0.265,"",0,"",NA,"","images/map15_BrBG_scaleDef_orientDef_270.png","happy",1,15,15,"BrBG","orientDef","scaleDef","270",NA,NA
"","","","","","html-slider-response",144,398039,"0.0-140.0","c0ktpqvcbz",1,NA,"<div style=""width:500px;"">
                            <p style=""font-size:50px; font-weight:bold;""
                            >happy</p>
                            <div style=""width:240px; margin: auto;"">
                                <img src=""images/map05_Purples_scaleRev_orientMir_180.png"" style= ""width:200px""alt=""img"">
                            </div>
                        </div>",0.665,"",0,"",NA,"","images/map05_Purples_scaleRev_orientMir_180.png","happy",1,5,5,"Purples","orientMir","scaleRev","180",NA,NA
"","","","","","html-slider-response",145,399206,"0.0-141.0","c0ktpqvcbz",1,NA,"<div style=""width:500px;"">
                            <p style=""font-size:50px; font-weight:bold;""
                            >happy</p>
                            <div style=""width:240px; margin: auto;"">
                                <img src=""images/map15_PRGn_scaleDef_orientDef_090.png"" style= ""width:200px""alt=""img"">
                            </div>
                        </div>",0.645,"",0,"",NA,"","images/map15_PRGn_scaleDef_orientDef_090.png","happy",1,15,15,"PRGn","orientDef","scaleDef","090",NA,NA
"","","","","","html-slider-response",146,400507,"0.0-142.0","c0ktpqvcbz",1,NA,"<div style=""width:500px;"">
                            <p style=""font-size:50px; font-weight:bold;""
                            >happy</p>
                            <div style=""width:240px; margin: auto;"">
                                <img src=""images/map23_Spectral_scaleDef_orientMir_270.png"" style= ""width:200px""alt=""img"">
                            </div>
                        </div>",0.645,"",0,"",NA,"","images/map23_Spectral_scaleDef_orientMir_270.png","happy",1,23,23,"Spectral","orientMir","scaleDef","270",NA,NA
"","","","","","html-slider-response",147,401757,"0.0-143.0","c0ktpqvcbz",1,NA,"<div style=""width:500px;"">
                            <p style=""font-size:50px; font-weight:bold;""
                            >happy</p>
                            <div style=""width:240px; margin: auto;"">
                                <img src=""images/map07_Oranges_scaleRev_orientMir_000.png"" style= ""width:200px""alt=""img"">
                            </div>
                        </div>",0.3925,"",0,"",NA,"","images/map07_Oranges_scaleRev_orientMir_000.png","happy",1,7,7,"Oranges","orientMir","scaleRev","000",NA,NA
"","","","","","html-slider-response",148,402789,"0.0-144.0","c0ktpqvcbz",1,NA,"<div style=""width:500px;"">
                            <p style=""font-size:50px; font-weight:bold;""
                            >happy</p>
                            <div style=""width:240px; margin: auto;"">
                                <img src=""images/map02_viridis_scaleRev_orientDef_180.png"" style= ""width:200px""alt=""img"">
                            </div>
                        </div>",0.575,"",0,"",NA,"","images/map02_viridis_scaleRev_orientDef_180.png","happy",1,2,2,"viridis","orientDef","scaleRev","180",NA,NA
"","","","","","html-slider-response",149,403873,"0.0-145.0","c0ktpqvcbz",1,NA,"<div style=""width:500px;"">
                            <p style=""font-size:50px; font-weight:bold;""
                            >happy</p>
                            <div style=""width:240px; margin: auto;"">
                                <img src=""images/map10_YlOrBr_scaleRev_orientDef_000.png"" style= ""width:200px""alt=""img"">
                            </div>
                        </div>",0.325,"",0,"",NA,"","images/map10_YlOrBr_scaleRev_orientDef_000.png","happy",1,10,10,"YlOrBr","orientDef","scaleRev","000",NA,NA
"","","","","","html-slider-response",150,405340,"0.0-146.0","c0ktpqvcbz",1,NA,"<div style=""width:500px;"">
                            <p style=""font-size:50px; font-weight:bold;""
                            >happy</p>
                            <div style=""width:240px; margin: auto;"">
                                <img src=""images/map07_Reds_scaleRev_orientMir_180.png"" style= ""width:200px""alt=""img"">
                            </div>
                        </div>",0.2075,"",0,"",NA,"","images/map07_Reds_scaleRev_orientMir_180.png","happy",1,7,7,"Reds","orientMir","scaleRev","180",NA,NA
"","","","","","html-slider-response",151,406690,"0.0-147.0","c0ktpqvcbz",1,NA,"<div style=""width:500px;"">
                            <p style=""font-size:50px; font-weight:bold;""
                            >happy</p>
                            <div style=""width:240px; margin: auto;"">
                                <img src=""images/map10_OrRd_scaleDef_orientDef_270.png"" style= ""width:200px""alt=""img"">
                            </div>
                        </div>",0.105,"",0,"",NA,"","images/map10_OrRd_scaleDef_orientDef_270.png","happy",1,10,10,"OrRd","orientDef","scaleDef","270",NA,NA
"","","","","","html-slider-response",152,408607,"0.0-148.0","c0ktpqvcbz",1,NA,"<div style=""width:500px;"">
                            <p style=""font-size:50px; font-weight:bold;""
                            >happy</p>
                            <div style=""width:240px; margin: auto;"">
                                <img src=""images/map26_coolwarm_scaleRev_orientDef_180.png"" style= ""width:200px""alt=""img"">
                            </div>
                        </div>",0.54,"",0,"",NA,"","images/map26_coolwarm_scaleRev_orientDef_180.png","happy",1,26,26,"coolwarm","orientDef","scaleRev","180",NA,NA
"","","","","","html-slider-response",153,410174,"0.0-149.0","c0ktpqvcbz",1,NA,"<div style=""width:500px;"">
                            <p style=""font-size:50px; font-weight:bold;""
                            >happy</p>
                            <div style=""width:240px; margin: auto;"">
                                <img src=""images/map15_BrBG_scaleRev_orientMir_000.png"" style= ""width:200px""alt=""img"">
                            </div>
                        </div>",0.58,"",0,"",NA,"","images/map15_BrBG_scaleRev_orientMir_000.png","happy",1,15,15,"BrBG","orientMir","scaleRev","000",NA,NA
"","","","","","html-slider-response",154,413090,"0.0-150.0","c0ktpqvcbz",1,NA,"<div style=""width:500px;"">
                            <p style=""font-size:50px; font-weight:bold;""
                            >happy</p>
                            <div style=""width:240px; margin: auto;"">
                                <img src=""images/map05_Purples_scaleDef_orientMir_090.png"" style= ""width:200px""alt=""img"">
                            </div>
                        </div>",0.7575,"",0,"",NA,"","images/map05_Purples_scaleDef_orientMir_090.png","happy",1,5,5,"Purples","orientMir","scaleDef","090",NA,NA
"","","","","","html-slider-response",155,415089,"0.0-151.0","c0ktpqvcbz",1,NA,"<div style=""width:500px;"">
                            <p style=""font-size:50px; font-weight:bold;""
                            >happy</p>
                            <div style=""width:240px; margin: auto;"">
                                <img src=""images/map10_PuRd_scaleRev_orientMir_180.png"" style= ""width:200px""alt=""img"">
                            </div>
                        </div>",0.845,"",0,"",NA,"","images/map10_PuRd_scaleRev_orientMir_180.png","happy",1,10,10,"PuRd","orientMir","scaleRev","180",NA,NA
"","","","","","html-slider-response",156,417006,"0.0-152.0","c0ktpqvcbz",1,NA,"<div style=""width:500px;"">
                            <p style=""font-size:50px; font-weight:bold;""
                            >happy</p>
                            <div style=""width:240px; margin: auto;"">
                                <img src=""images/map12_BuPu_scaleDef_orientDef_090.png"" style= ""width:200px""alt=""img"">
                            </div>
                        </div>",0.63,"",0,"",NA,"","images/map12_BuPu_scaleDef_orientDef_090.png","happy",1,12,12,"BuPu","orientDef","scaleDef","090",NA,NA
"","","","","","html-slider-response",157,418340,"0.0-153.0","c0ktpqvcbz",1,NA,"<div style=""width:500px;"">
                            <p style=""font-size:50px; font-weight:bold;""
                            >happy</p>
                            <div style=""width:240px; margin: auto;"">
                                <img src=""images/map26_bwr_scaleDef_orientDef_270.png"" style= ""width:200px""alt=""img"">
                            </div>
                        </div>",0.6875,"",0,"",NA,"","images/map26_bwr_scaleDef_orientDef_270.png","happy",1,26,26,"bwr","orientDef","scaleDef","270",NA,NA
"","","","","","html-slider-response",158,420056,"0.0-154.0","c0ktpqvcbz",1,NA,"<div style=""width:500px;"">
                            <p style=""font-size:50px; font-weight:bold;""
                            >happy</p>
                            <div style=""width:240px; margin: auto;"">
                                <img src=""images/map07_Greens_scaleRev_orientDef_180.png"" style= ""width:200px""alt=""img"">
                            </div>
                        </div>",0.56,"",0,"",NA,"","images/map07_Greens_scaleRev_orientDef_180.png","happy",1,7,7,"Greens","orientDef","scaleRev","180",NA,NA
"","","","","","html-slider-response",159,421423,"0.0-155.0","c0ktpqvcbz",1,NA,"<div style=""width:500px;"">
                            <p style=""font-size:50px; font-weight:bold;""
                            >happy</p>
                            <div style=""width:240px; margin: auto;"">
                                <img src=""images/map10_PuRd_scaleDef_orientMir_090.png"" style= ""width:200px""alt=""img"">
                            </div>
                        </div>",0.6875,"",0,"",NA,"","images/map10_PuRd_scaleDef_orientMir_090.png","happy",1,10,10,"PuRd","orientMir","scaleDef","090",NA,NA
"","","","","","html-slider-response",160,423256,"0.0-156.0","c0ktpqvcbz",1,NA,"<div style=""width:500px;"">
                            <p style=""font-size:50px; font-weight:bold;""
                            >happy</p>
                            <div style=""width:240px; margin: auto;"">
                                <img src=""images/map02_plasma_scaleRev_orientMir_000.png"" style= ""width:200px""alt=""img"">
                            </div>
                        </div>",0.21,"",0,"",NA,"","images/map02_plasma_scaleRev_orientMir_000.png","happy",1,2,2,"plasma","orientMir","scaleRev","000",NA,NA
"","","","","","html-slider-response",161,424723,"0.0-157.0","c0ktpqvcbz",1,NA,"<div style=""width:500px;"">
                            <p style=""font-size:50px; font-weight:bold;""
                            >happy</p>
                            <div style=""width:240px; margin: auto;"">
                                <img src=""images/map12_YlGnBu_scaleDef_orientMir_270.png"" style= ""width:200px""alt=""img"">
                            </div>
                        </div>",0.575,"",0,"",NA,"","images/map12_YlGnBu_scaleDef_orientMir_270.png","happy",1,12,12,"YlGnBu","orientMir","scaleDef","270",NA,NA
"","","","","","html-slider-response",162,426105,"0.0-158.0","c0ktpqvcbz",1,NA,"<div style=""width:500px;"">
                            <p style=""font-size:50px; font-weight:bold;""
                            >happy</p>
                            <div style=""width:240px; margin: auto;"">
                                <img src=""images/map05_Blues_scaleDef_orientMir_270.png"" style= ""width:200px""alt=""img"">
                            </div>
                        </div>",0.575,"",0,"",NA,"","images/map05_Blues_scaleDef_orientMir_270.png","happy",1,5,5,"Blues","orientMir","scaleDef","270",NA,NA
