"success","timeout","failed_images","failed_audio","failed_video","trial_type","trial_index","time_elapsed","internal_node_id","subject_id","condition_num","rt","stimulus","response","question_order","slider_start","practiceTrial","practiceTrialNum","correct","image_path","concept","repetition","map_id","map_num","scale_name","orientation_code","mapping_code","rotation_code","ishihara_plate","correct_response"
"true","false","[]","[]","[]","preload",0,451,"0.0-0.0","2yanp35qk9",7,NA,"",NA,"",NA,"",NA,"","","",NA,NA,NA,"","","","",NA,NA
"","","","","","html-button-response",1,2042,"0.0-1.0","2yanp35qk9",7,1590,"Welcome to our experiment!<p>At the bottom of this screen, you will see a button that says ""Begin Experiment"".<br>Please only click that button when you are ready to complete the 30 minute experiment in one sitting.</p><p> Once you click that button, it will not be possible to restart the experiment.",0.5,"",NA,"",NA,"","","",NA,NA,NA,"","","","",NA,NA
"true","","","","","fullscreen",2,9277,"0.0-2.0","2yanp35qk9",7,6232,"",NA,"",NA,"",NA,"","","",NA,NA,NA,"","","","",NA,NA
"","","","","","survey-multi-select",3,14080,"0.0-3.0","2yanp35qk9",7,4798,"",NA,"[0]",NA,"",NA,"","","",NA,NA,NA,"","","","",NA,NA
"","","","","","html-button-response",4,15193,"0.0-4.0","2yanp35qk9",7,1111,"Welcome! <p> This experiment involves two parts: demographic information, followed by the experimental task.<p> It will take about 30 minutes to complete both parts.",0.5,"",NA,"",NA,"","","",NA,NA,NA,"","","","",NA,NA
"","","","","","survey-text",5,35293,"0.0-5.0","2yanp35qk9",7,20087,"",NA,"",NA,"",NA,"","","",NA,NA,NA,"","","","",NA,NA
"","","","","","html-slider-response",6,78042,"0.0-6.0","2yanp35qk9",7,42746,"<div style='text-align:left; font-size:20px; line-height:25px; width: 1000px;'>
                                During this experiment you will be asked to rate how much you associate maps with                    different concepts.<br> Below, you can see some examples of the maps you will be asked to rate. Above the maps
                    is the list of concepts.<br>You will be asked                    to rate how much you associate each map with each concept on a scale from 'not at all' to 'very much' like the
                    one below. <br><br>
                    Now, please look at the list of concepts and maps. For each concept, think about the map you associate 'very
                    much' with the concept.<br>                     When you see that map during the experiment, please rate it near the 'very much' endpoint of the
                    scale.<br>Now, please think about which map you associate 'not at all'                     with each concept. When you see that map during the experiment, please rate it near the 'not at all' endpoint
                    of the scale.<br>
                    Please use the full range of the scale. That is, if a map is somewhat associated with the concept, you would
                    click partway between the middle point and right side of the scale.                    You will be asked to rate each map for a given concept before moving on to the next concept.<br>Press the
                    'Continue' button for instructions on how to use the slider.                    <br>
                </div>

                <div style=""width: 500px; margin: 0 auto;"">
                    <!-- Centered text paragraphs -->
                    <div style=""text-align: center; width: 500px;"">
                        <p style=""font-size:25px; line-height:15px;"">
                            sad&nbsp;&nbsp;&nbsp;&nbsp;
                            fearful&nbsp;&nbsp;&nbsp;&nbsp;
                            disgust&nbsp;&nbsp;&nbsp;&nbsp;
                            happy&nbsp;&nbsp;&nbsp;&nbsp;
                            angry
                        </p>
                        <!-- <p style=""font-size:20px; line-height:15px;"">fearful</p>
                        <p style=""font-size:20px;line-height:15px;"">disgust</p>
                        <p style=""font-size:20px;line-height:15px;"">happy</p>
                        <p style=""font-size:20px;line-height:15px;"">angry</p> -->
                    </div>
            

                    <!-- Grid section -->
                   <div style=""display: flex; justify-content: center; padding-top: 15px;"">
                    <div style=""display: grid; grid-template-columns: repeat(10, 55px); grid-gap: 5px; width: auto;"">
                        <img src=""images/map15_PRGn_scaleDef_orientMir_270.png"" alt=""map"" style=""width: 100%;""><img src=""images/map23_BrBG_scaleRev_orientDef_180.png"" alt=""map"" style=""width: 100%;""><img src=""images/map15_PiYG_scaleDef_orientMir_090.png"" alt=""map"" style=""width: 100%;""><img src=""images/map23_RdBu_scaleDef_orientMir_270.png"" alt=""map"" style=""width: 100%;""><img src=""images/map12_PuRd_scaleRev_orientMir_000.png"" alt=""map"" style=""width: 100%;""><img src=""images/map27_bwr_scaleDef_orientDef_090.png"" alt=""map"" style=""width: 100%;""><img src=""images/map05_plasma_scaleRev_orientDef_180.png"" alt=""map"" style=""width: 100%;""><img src=""images/map15_BuGn_scaleDef_orientDef_090.png"" alt=""map"" style=""width: 100%;""><img src=""images/map05_cividis_scaleDef_orientMir_270.png"" alt=""map"" style=""width: 100%;""><img src=""images/map13_PuBu_scaleRev_orientMir_000.png"" alt=""map"" style=""width: 100%;""><img src=""images/map12_RdPu_scaleDef_orientMir_090.png"" alt=""map"" style=""width: 100%;""><img src=""images/map07_Greens_scaleDef_orientMir_270.png"" alt=""map"" style=""width: 100%;""><img src=""images/map15_YlGn_scaleDef_orientDef_270.png"" alt=""map"" style=""width: 100%;""><img src=""images/map12_OrRd_scaleDef_orientDef_090.png"" alt=""map"" style=""width: 100%;""><img src=""images/map05_viridis_scaleRev_orientDef_000.png"" alt=""map"" style=""width: 100%;""><img src=""images/map02_vanimo_scaleDef_orientDef_090.png"" alt=""map"" style=""width: 100%;""><img src=""images/map13_YlGnBu_scaleRev_orientMir_180.png"" alt=""map"" style=""width: 100%;""><img src=""images/map07_Blues_scaleDef_orientMir_090.png"" alt=""map"" style=""width: 100%;""><img src=""images/map10_YlOrBr_scaleDef_orientMir_090.png"" alt=""map"" style=""width: 100%;""><img src=""images/map02_turbo_scaleRev_orientMir_180.png"" alt=""map"" style=""width: 100%;""><img src=""images/map27_berlin_scaleRev_orientMir_180.png"" alt=""map"" style=""width: 100%;""><img src=""images/map13_BuPu_scaleRev_orientDef_000.png"" alt=""map"" style=""width: 100%;""><img src=""images/map10_Reds_scaleRev_orientMir_000.png"" alt=""map"" style=""width: 100%;""><img src=""images/map23_PuOr_scaleRev_orientMir_000.png"" alt=""map"" style=""width: 100%;""><img src=""images/map02_gist_earth_scaleRev_orientMir_000.png"" alt=""map"" style=""width: 100%;""><img src=""images/map26_RdYlBu_scaleDef_orientDef_090.png"" alt=""map"" style=""width: 100%;""><img src=""images/map07_Purples_scaleRev_orientMir_000.png"" alt=""map"" style=""width: 100%;""><img src=""images/map07_Greys_scaleDef_orientDef_090.png"" alt=""map"" style=""width: 100%;""><img src=""images/map15_PuBuGn_scaleRev_orientDef_000.png"" alt=""map"" style=""width: 100%;""><img src=""images/map27_seismic_scaleRev_orientMir_000.png"" alt=""map"" style=""width: 100%;""><img src=""images/map13_GnBu_scaleDef_orientDef_090.png"" alt=""map"" style=""width: 100%;""><img src=""images/map26_RdYlGn_scaleDef_orientDef_270.png"" alt=""map"" style=""width: 100%;""><img src=""images/map26_Spectral_scaleRev_orientMir_180.png"" alt=""map"" style=""width: 100%;""><img src=""images/map10_Oranges_scaleDef_orientDef_090.png"" alt=""map"" style=""width: 100%;""><img src=""images/map05_magma_scaleDef_orientMir_090.png"" alt=""map"" style=""width: 100%;""><img src=""images/map02_managua_scaleRev_orientDef_000.png"" alt=""map"" style=""width: 100%;""><img src=""images/map12_YlOrRd_scaleRev_orientDef_000.png"" alt=""map"" style=""width: 100%;""><img src=""images/map26_coolwarm_scaleDef_orientMir_270.png"" alt=""map"" style=""width: 100%;""><img src=""images/map05_inferno_scaleDef_orientDef_270.png"" alt=""map"" style=""width: 100%;""><img src=""images/map23_RdGy_scaleRev_orientMir_180.png"" alt=""map"" style=""width: 100%;"">
                    </div>
                </div>

                    <!-- Clear floats -->
                    <div style=""clear: both;""></div>
                </div>
                            ",0.6925,"",0,"true",NA,"","","",NA,NA,NA,"","","","",NA,NA
"","","","","","html-button-response",7,84377,"0.0-7.0","2yanp35qk9",7,6333,"<div style=""width:800px;""><p style=""text-align:left"">To move the slider, click and drag your cursor to the location of the scale where you would like to make your rating and then let go. When you let go of the slider, your response will be recorded and the next trial will begin. <br>
                    We are interested in your initial impressions of each map for the given concept, so please go with your first intuition. <br>
                    Before you begin the experiment, there will be four training trials for you to practice using the scale. <br>
                     When you are ready to start the training trials, please click ""Continue"".</p><br></div>",0.5,"",NA,"",NA,"","","",NA,NA,NA,"","","","",NA,NA
"","","","","","html-slider-response",8,86601,"0.0-8.0-0.0","2yanp35qk9",7,NA,"<div style=""width:500px;"">
                                    <p style=""font-size:25px;"">Please move the slider all the way to the <br> right endpoint of the scale</p>

                                    </div>
                                </div>",1,"",0,"true",0,"true","","",NA,NA,NA,"","","","",NA,NA
"","","","","","html-button-response",9,88058,"0.0-8.0-1.0","2yanp35qk9",7,956,"<p align='center'><b>Good job!</b> Click on 'Continue' to proceed.</p>",0.5,"",NA,"",NA,"","","",NA,NA,NA,"","","","",NA,NA
"","","","","","html-slider-response",10,89885,"0.0-9.0-0.0","2yanp35qk9",7,NA,"<div style=""width:500px;"">
                                    <p style=""font-size:25px;"">Please move the slider all the way to the <br> left endpoint of the scale</p>

                                    </div>
                                </div>",0,"",0,"true",1,"true","","",NA,NA,NA,"","","","",NA,NA
"","","","","","html-button-response",11,91091,"0.0-9.0-1.0","2yanp35qk9",7,704,"<p align='center'><b>Good job!</b> Click on 'Continue' to proceed.</p>",0.5,"",NA,"",NA,"","","",NA,NA,NA,"","","","",NA,NA
"","","","","","html-slider-response",12,94534,"0.0-10.0-0.0","2yanp35qk9",7,NA,"<div style=""width:500px;"">
                                    <p style=""font-size:25px;"">Please move the slider halfway between the center and right endpoint of the scale</p>

                                    </div>
                                </div>",0.7675,"",0,"true",2,"true","","",NA,NA,NA,"","","","",NA,NA
"","","","","","html-button-response",13,95841,"0.0-10.0-1.0","2yanp35qk9",7,805,"<p align='center'><b>Good job!</b> Click on 'Continue' to proceed.</p>",0.5,"",NA,"",NA,"","","",NA,NA,NA,"","","","",NA,NA
"","","","","","html-slider-response",14,97652,"0.0-11.0-0.0","2yanp35qk9",7,NA,"<div style=""width:500px;"">
                                    <p style=""font-size:25px;"">Please move the slider halfway between the center and left endpoint of the scale</p>

                                    </div>
                                </div>",0.235,"",0,"true",3,"true","","",NA,NA,NA,"","","","",NA,NA
"","","","","","html-button-response",15,98775,"0.0-11.0-1.0","2yanp35qk9",7,620,"<p align='center'><b>Good job!</b> Click on 'Continue' to proceed.</p>",0.5,"",NA,"",NA,"","","",NA,NA,NA,"","","","",NA,NA
"","","","","","html-button-response",16,100491,"0.0-12.0","2yanp35qk9",7,1716,"<p>Great job! You've completed the practice trials. Now you will begin the main task.</p>",0.5,"",NA,"",NA,"","","",NA,NA,NA,"","","","",NA,NA
"","","","","","html-button-response",17,104675,"0.0-13.0","2yanp35qk9",7,4183,"<p>In this block of trials, you will be asked to rate how much you associate each map with:</p > <p style = 'font-size:150%; font-weight: bold'>sad</p><br></br>",0.5,"",NA,"",NA,"","","",NA,NA,NA,"","","","",NA,NA
"","","","","","html-slider-response",18,106800,"0.0-14.0","2yanp35qk9",7,NA,"<div style=""width:500px;"">
                            <p style=""font-size:50px; font-weight:bold;""
                            >sad</p>
                            <div style=""width:240px; margin: auto;"">
                                <img src=""images/map10_YlOrBr_scaleDef_orientMir_090.png"" style= ""width:200px""alt=""img"">
                            </div>
                        </div>",0.405,"",0,"",NA,"","images/map10_YlOrBr_scaleDef_orientMir_090.png","sad",1,10,10,"YlOrBr","orientMir","scaleDef","090",NA,NA
"","","","","","html-slider-response",19,108701,"0.0-15.0","2yanp35qk9",7,NA,"<div style=""width:500px;"">
                            <p style=""font-size:50px; font-weight:bold;""
                            >sad</p>
                            <div style=""width:240px; margin: auto;"">
                                <img src=""images/map15_BuGn_scaleDef_orientDef_090.png"" style= ""width:200px""alt=""img"">
                            </div>
                        </div>",0.43,"",0,"",NA,"","images/map15_BuGn_scaleDef_orientDef_090.png","sad",1,15,15,"BuGn","orientDef","scaleDef","090",NA,NA
"","","","","","html-slider-response",20,110269,"0.0-16.0","2yanp35qk9",7,NA,"<div style=""width:500px;"">
                            <p style=""font-size:50px; font-weight:bold;""
                            >sad</p>
                            <div style=""width:240px; margin: auto;"">
                                <img src=""images/map15_PiYG_scaleRev_orientMir_180.png"" style= ""width:200px""alt=""img"">
                            </div>
                        </div>",0.4125,"",0,"",NA,"","images/map15_PiYG_scaleRev_orientMir_180.png","sad",1,15,15,"PiYG","orientMir","scaleRev","180",NA,NA
"","","","","","html-slider-response",21,112552,"0.0-17.0","2yanp35qk9",7,NA,"<div style=""width:500px;"">
                            <p style=""font-size:50px; font-weight:bold;""
                            >sad</p>
                            <div style=""width:240px; margin: auto;"">
                                <img src=""images/map12_BuPu_scaleDef_orientMir_270.png"" style= ""width:200px""alt=""img"">
                            </div>
                        </div>",0.595,"",0,"",NA,"","images/map12_BuPu_scaleDef_orientMir_270.png","sad",1,12,12,"BuPu","orientMir","scaleDef","270",NA,NA
"","","","","","html-slider-response",22,114702,"0.0-18.0","2yanp35qk9",7,NA,"<div style=""width:500px;"">
                            <p style=""font-size:50px; font-weight:bold;""
                            >sad</p>
                            <div style=""width:240px; margin: auto;"">
                                <img src=""images/map23_BrBG_scaleRev_orientDef_180.png"" style= ""width:200px""alt=""img"">
                            </div>
                        </div>",0.7825,"",0,"",NA,"","images/map23_BrBG_scaleRev_orientDef_180.png","sad",1,23,23,"BrBG","orientDef","scaleRev","180",NA,NA
"","","","","","html-slider-response",23,116801,"0.0-19.0","2yanp35qk9",7,NA,"<div style=""width:500px;"">
                            <p style=""font-size:50px; font-weight:bold;""
                            >sad</p>
                            <div style=""width:240px; margin: auto;"">
                                <img src=""images/map10_Greens_scaleRev_orientDef_000.png"" style= ""width:200px""alt=""img"">
                            </div>
                        </div>",0.285,"",0,"",NA,"","images/map10_Greens_scaleRev_orientDef_000.png","sad",1,10,10,"Greens","orientDef","scaleRev","000",NA,NA
"","","","","","html-slider-response",24,119251,"0.0-20.0","2yanp35qk9",7,NA,"<div style=""width:500px;"">
                            <p style=""font-size:50px; font-weight:bold;""
                            >sad</p>
                            <div style=""width:240px; margin: auto;"">
                                <img src=""images/map07_Greys_scaleRev_orientDef_180.png"" style= ""width:200px""alt=""img"">
                            </div>
                        </div>",0.9225,"",0,"",NA,"","images/map07_Greys_scaleRev_orientDef_180.png","sad",1,7,7,"Greys","orientDef","scaleRev","180",NA,NA
"","","","","","html-slider-response",25,121168,"0.0-21.0","2yanp35qk9",7,NA,"<div style=""width:500px;"">
                            <p style=""font-size:50px; font-weight:bold;""
                            >sad</p>
                            <div style=""width:240px; margin: auto;"">
                                <img src=""images/map10_Reds_scaleRev_orientMir_000.png"" style= ""width:200px""alt=""img"">
                            </div>
                        </div>",0.6225,"",0,"",NA,"","images/map10_Reds_scaleRev_orientMir_000.png","sad",1,10,10,"Reds","orientMir","scaleRev","000",NA,NA
"","","","","","html-slider-response",26,123186,"0.0-22.0","2yanp35qk9",7,NA,"<div style=""width:500px;"">
                            <p style=""font-size:50px; font-weight:bold;""
                            >sad</p>
                            <div style=""width:240px; margin: auto;"">
                                <img src=""images/map02_turbo_scaleRev_orientMir_180.png"" style= ""width:200px""alt=""img"">
                            </div>
                        </div>",0.2375,"",0,"",NA,"","images/map02_turbo_scaleRev_orientMir_180.png","sad",1,2,2,"turbo","orientMir","scaleRev","180",NA,NA
"","","","","","html-slider-response",27,125400,"0.0-23.0","2yanp35qk9",7,NA,"<div style=""width:500px;"">
                            <p style=""font-size:50px; font-weight:bold;""
                            >sad</p>
                            <div style=""width:240px; margin: auto;"">
                                <img src=""images/map23_PuOr_scaleDef_orientDef_270.png"" style= ""width:200px""alt=""img"">
                            </div>
                        </div>",0.4575,"",0,"",NA,"","images/map23_PuOr_scaleDef_orientDef_270.png","sad",1,23,23,"PuOr","orientDef","scaleDef","270",NA,NA
"","","","","","html-slider-response",28,127268,"0.0-24.0","2yanp35qk9",7,NA,"<div style=""width:500px;"">
                            <p style=""font-size:50px; font-weight:bold;""
                            >sad</p>
                            <div style=""width:240px; margin: auto;"">
                                <img src=""images/map15_YlGn_scaleRev_orientMir_000.png"" style= ""width:200px""alt=""img"">
                            </div>
                        </div>",0.3325,"",0,"",NA,"","images/map15_YlGn_scaleRev_orientMir_000.png","sad",1,15,15,"YlGn","orientMir","scaleRev","000",NA,NA
"","","","","","html-slider-response",29,129100,"0.0-25.0","2yanp35qk9",7,NA,"<div style=""width:500px;"">
                            <p style=""font-size:50px; font-weight:bold;""
                            >sad</p>
                            <div style=""width:240px; margin: auto;"">
                                <img src=""images/map02_vanimo_scaleDef_orientDef_090.png"" style= ""width:200px""alt=""img"">
                            </div>
                        </div>",0.3175,"",0,"",NA,"","images/map02_vanimo_scaleDef_orientDef_090.png","sad",1,2,2,"vanimo","orientDef","scaleDef","090",NA,NA
"","","","","","html-slider-response",30,131218,"0.0-26.0","2yanp35qk9",7,NA,"<div style=""width:500px;"">
                            <p style=""font-size:50px; font-weight:bold;""
                            >sad</p>
                            <div style=""width:240px; margin: auto;"">
                                <img src=""images/map26_RdYlBu_scaleDef_orientDef_090.png"" style= ""width:200px""alt=""img"">
                            </div>
                        </div>",0.46,"",0,"",NA,"","images/map26_RdYlBu_scaleDef_orientDef_090.png","sad",1,26,26,"RdYlBu","orientDef","scaleDef","090",NA,NA
"","","","","","html-slider-response",31,134268,"0.0-27.0","2yanp35qk9",7,NA,"<div style=""width:500px;"">
                            <p style=""font-size:50px; font-weight:bold;""
                            >sad</p>
                            <div style=""width:240px; margin: auto;"">
                                <img src=""images/map27_managua_scaleDef_orientMir_270.png"" style= ""width:200px""alt=""img"">
                            </div>
                        </div>",0.6575,"",0,"",NA,"","images/map27_managua_scaleDef_orientMir_270.png","sad",1,27,27,"managua","orientMir","scaleDef","270",NA,NA
"","","","","","html-slider-response",32,135751,"0.0-28.0","2yanp35qk9",7,NA,"<div style=""width:500px;"">
                            <p style=""font-size:50px; font-weight:bold;""
                            >sad</p>
                            <div style=""width:240px; margin: auto;"">
                                <img src=""images/map07_Purples_scaleDef_orientDef_270.png"" style= ""width:200px""alt=""img"">
                            </div>
                        </div>",0.6325,"",0,"",NA,"","images/map07_Purples_scaleDef_orientDef_270.png","sad",1,7,7,"Purples","orientDef","scaleDef","270",NA,NA
"","","","","","html-slider-response",33,137401,"0.0-29.0","2yanp35qk9",7,NA,"<div style=""width:500px;"">
                            <p style=""font-size:50px; font-weight:bold;""
                            >sad</p>
                            <div style=""width:240px; margin: auto;"">
                                <img src=""images/map13_GnBu_scaleRev_orientDef_180.png"" style= ""width:200px""alt=""img"">
                            </div>
                        </div>",0.7075,"",0,"",NA,"","images/map13_GnBu_scaleRev_orientDef_180.png","sad",1,13,13,"GnBu","orientDef","scaleRev","180",NA,NA
"","","","","","html-slider-response",34,139050,"0.0-30.0","2yanp35qk9",7,NA,"<div style=""width:500px;"">
                            <p style=""font-size:50px; font-weight:bold;""
                            >sad</p>
                            <div style=""width:240px; margin: auto;"">
                                <img src=""images/map10_YlOrRd_scaleDef_orientMir_270.png"" style= ""width:200px""alt=""img"">
                            </div>
                        </div>",0.4075,"",0,"",NA,"","images/map10_YlOrRd_scaleDef_orientMir_270.png","sad",1,10,10,"YlOrRd","orientMir","scaleDef","270",NA,NA
"","","","","","html-slider-response",35,140683,"0.0-31.0","2yanp35qk9",7,NA,"<div style=""width:500px;"">
                            <p style=""font-size:50px; font-weight:bold;""
                            >sad</p>
                            <div style=""width:240px; margin: auto;"">
                                <img src=""images/map15_PuBuGn_scaleRev_orientDef_000.png"" style= ""width:200px""alt=""img"">
                            </div>
                        </div>",0.73,"",0,"",NA,"","images/map15_PuBuGn_scaleRev_orientDef_000.png","sad",1,15,15,"PuBuGn","orientDef","scaleRev","000",NA,NA
"","","","","","html-slider-response",36,142317,"0.0-32.0","2yanp35qk9",7,NA,"<div style=""width:500px;"">
                            <p style=""font-size:50px; font-weight:bold;""
                            >sad</p>
                            <div style=""width:240px; margin: auto;"">
                                <img src=""images/map12_RdPu_scaleDef_orientMir_090.png"" style= ""width:200px""alt=""img"">
                            </div>
                        </div>",0.3975,"",0,"",NA,"","images/map12_RdPu_scaleDef_orientMir_090.png","sad",1,12,12,"RdPu","orientMir","scaleDef","090",NA,NA
"","","","","","html-slider-response",37,145083,"0.0-33.0","2yanp35qk9",7,NA,"<div style=""width:500px;"">
                            <p style=""font-size:50px; font-weight:bold;""
                            >sad</p>
                            <div style=""width:240px; margin: auto;"">
                                <img src=""images/map26_RdYlBu_scaleRev_orientDef_180.png"" style= ""width:200px""alt=""img"">
                            </div>
                        </div>",0.56,"",0,"",NA,"","images/map26_RdYlBu_scaleRev_orientDef_180.png","sad",1,26,26,"RdYlBu","orientDef","scaleRev","180",NA,NA
"","","","","","html-slider-response",38,146984,"0.0-34.0","2yanp35qk9",7,NA,"<div style=""width:500px;"">
                            <p style=""font-size:50px; font-weight:bold;""
                            >sad</p>
                            <div style=""width:240px; margin: auto;"">
                                <img src=""images/map10_Oranges_scaleRev_orientDef_180.png"" style= ""width:200px""alt=""img"">
                            </div>
                        </div>",0.4375,"",0,"",NA,"","images/map10_Oranges_scaleRev_orientDef_180.png","sad",1,10,10,"Oranges","orientDef","scaleRev","180",NA,NA
"","","","","","html-slider-response",39,148951,"0.0-35.0","2yanp35qk9",7,NA,"<div style=""width:500px;"">
                            <p style=""font-size:50px; font-weight:bold;""
                            >sad</p>
                            <div style=""width:240px; margin: auto;"">
                                <img src=""images/map27_berlin_scaleRev_orientMir_180.png"" style= ""width:200px""alt=""img"">
                            </div>
                        </div>",0.7425,"",0,"",NA,"","images/map27_berlin_scaleRev_orientMir_180.png","sad",1,27,27,"berlin","orientMir","scaleRev","180",NA,NA
"","","","","","html-slider-response",40,150616,"0.0-36.0","2yanp35qk9",7,NA,"<div style=""width:500px;"">
                            <p style=""font-size:50px; font-weight:bold;""
                            >sad</p>
                            <div style=""width:240px; margin: auto;"">
                                <img src=""images/map27_seismic_scaleRev_orientMir_000.png"" style= ""width:200px""alt=""img"">
                            </div>
                        </div>",0.5325,"",0,"",NA,"","images/map27_seismic_scaleRev_orientMir_000.png","sad",1,27,27,"seismic","orientMir","scaleRev","000",NA,NA
"","","","","","html-slider-response",41,153983,"0.0-37.0","2yanp35qk9",7,NA,"<div style=""width:500px;"">
                            <p style=""font-size:50px; font-weight:bold;""
                            >sad</p>
                            <div style=""width:240px; margin: auto;"">
                                <img src=""images/map07_cividis_scaleRev_orientDef_000.png"" style= ""width:200px""alt=""img"">
                            </div>
                        </div>",0.755,"",0,"",NA,"","images/map07_cividis_scaleRev_orientDef_000.png","sad",1,7,7,"cividis","orientDef","scaleRev","000",NA,NA
"","","","","","html-slider-response",42,155601,"0.0-38.0","2yanp35qk9",7,NA,"<div style=""width:500px;"">
                            <p style=""font-size:50px; font-weight:bold;""
                            >sad</p>
                            <div style=""width:240px; margin: auto;"">
                                <img src=""images/map10_Reds_scaleDef_orientDef_270.png"" style= ""width:200px""alt=""img"">
                            </div>
                        </div>",0.46,"",0,"",NA,"","images/map10_Reds_scaleDef_orientDef_270.png","sad",1,10,10,"Reds","orientDef","scaleDef","270",NA,NA
"","","","","","html-slider-response",43,157500,"0.0-39.0","2yanp35qk9",7,NA,"<div style=""width:500px;"">
                            <p style=""font-size:50px; font-weight:bold;""
                            >sad</p>
                            <div style=""width:240px; margin: auto;"">
                                <img src=""images/map10_Oranges_scaleDef_orientDef_090.png"" style= ""width:200px""alt=""img"">
                            </div>
                        </div>",0.37,"",0,"",NA,"","images/map10_Oranges_scaleDef_orientDef_090.png","sad",1,10,10,"Oranges","orientDef","scaleDef","090",NA,NA
"","","","","","html-slider-response",44,159134,"0.0-40.0","2yanp35qk9",7,NA,"<div style=""width:500px;"">
                            <p style=""font-size:50px; font-weight:bold;""
                            >sad</p>
                            <div style=""width:240px; margin: auto;"">
                                <img src=""images/map07_Greens_scaleDef_orientMir_270.png"" style= ""width:200px""alt=""img"">
                            </div>
                        </div>",0.415,"",0,"",NA,"","images/map07_Greens_scaleDef_orientMir_270.png","sad",1,7,7,"Greens","orientMir","scaleDef","270",NA,NA
"","","","","","html-slider-response",45,161051,"0.0-41.0","2yanp35qk9",7,NA,"<div style=""width:500px;"">
                            <p style=""font-size:50px; font-weight:bold;""
                            >sad</p>
                            <div style=""width:240px; margin: auto;"">
                                <img src=""images/map13_GnBu_scaleDef_orientDef_090.png"" style= ""width:200px""alt=""img"">
                            </div>
                        </div>",0.8325,"",0,"",NA,"","images/map13_GnBu_scaleDef_orientDef_090.png","sad",1,13,13,"GnBu","orientDef","scaleDef","090",NA,NA
"","","","","","html-slider-response",46,162733,"0.0-42.0","2yanp35qk9",7,NA,"<div style=""width:500px;"">
                            <p style=""font-size:50px; font-weight:bold;""
                            >sad</p>
                            <div style=""width:240px; margin: auto;"">
                                <img src=""images/map05_plasma_scaleRev_orientDef_180.png"" style= ""width:200px""alt=""img"">
                            </div>
                        </div>",0.29,"",0,"",NA,"","images/map05_plasma_scaleRev_orientDef_180.png","sad",1,5,5,"plasma","orientDef","scaleRev","180",NA,NA
"","","","","","html-slider-response",47,164452,"0.0-43.0","2yanp35qk9",7,NA,"<div style=""width:500px;"">
                            <p style=""font-size:50px; font-weight:bold;""
                            >sad</p>
                            <div style=""width:240px; margin: auto;"">
                                <img src=""images/map02_viridis_scaleDef_orientMir_270.png"" style= ""width:200px""alt=""img"">
                            </div>
                        </div>",0.69,"",0,"",NA,"","images/map02_viridis_scaleDef_orientMir_270.png","sad",1,2,2,"viridis","orientMir","scaleDef","270",NA,NA
"","","","","","html-slider-response",48,166317,"0.0-44.0","2yanp35qk9",7,NA,"<div style=""width:500px;"">
                            <p style=""font-size:50px; font-weight:bold;""
                            >sad</p>
                            <div style=""width:240px; margin: auto;"">
                                <img src=""images/map07_Blues_scaleDef_orientMir_090.png"" style= ""width:200px""alt=""img"">
                            </div>
                        </div>",0.915,"",0,"",NA,"","images/map07_Blues_scaleDef_orientMir_090.png","sad",1,7,7,"Blues","orientMir","scaleDef","090",NA,NA
"","","","","","html-slider-response",49,168334,"0.0-45.0","2yanp35qk9",7,NA,"<div style=""width:500px;"">
                            <p style=""font-size:50px; font-weight:bold;""
                            >sad</p>
                            <div style=""width:240px; margin: auto;"">
                                <img src=""images/map27_seismic_scaleDef_orientDef_270.png"" style= ""width:200px""alt=""img"">
                            </div>
                        </div>",0.285,"",0,"",NA,"","images/map27_seismic_scaleDef_orientDef_270.png","sad",1,27,27,"seismic","orientDef","scaleDef","270",NA,NA
"","","","","","html-slider-response",50,170050,"0.0-46.0","2yanp35qk9",7,NA,"<div style=""width:500px;"">
                            <p style=""font-size:50px; font-weight:bold;""
                            >sad</p>
                            <div style=""width:240px; margin: auto;"">
                                <img src=""images/map12_PuRd_scaleDef_orientDef_270.png"" style= ""width:200px""alt=""img"">
                            </div>
                        </div>",0.095,"",0,"",NA,"","images/map12_PuRd_scaleDef_orientDef_270.png","sad",1,12,12,"PuRd","orientDef","scaleDef","270",NA,NA
"","","","","","html-slider-response",51,171816,"0.0-47.0","2yanp35qk9",7,NA,"<div style=""width:500px;"">
                            <p style=""font-size:50px; font-weight:bold;""
                            >sad</p>
                            <div style=""width:240px; margin: auto;"">
                                <img src=""images/map26_Spectral_scaleRev_orientMir_180.png"" style= ""width:200px""alt=""img"">
                            </div>
                        </div>",0.445,"",0,"",NA,"","images/map26_Spectral_scaleRev_orientMir_180.png","sad",1,26,26,"Spectral","orientMir","scaleRev","180",NA,NA
"","","","","","html-slider-response",52,173484,"0.0-48.0","2yanp35qk9",7,NA,"<div style=""width:500px;"">
                            <p style=""font-size:50px; font-weight:bold;""
                            >sad</p>
                            <div style=""width:240px; margin: auto;"">
                                <img src=""images/map02_gist_earth_scaleDef_orientDef_270.png"" style= ""width:200px""alt=""img"">
                            </div>
                        </div>",0.685,"",0,"",NA,"","images/map02_gist_earth_scaleDef_orientDef_270.png","sad",1,2,2,"gist","scaleDef","earth","orientDef",NA,NA
"","","","","","html-slider-response",53,176466,"0.0-49.0","2yanp35qk9",7,NA,"<div style=""width:500px;"">
                            <p style=""font-size:50px; font-weight:bold;""
                            >sad</p>
                            <div style=""width:240px; margin: auto;"">
                                <img src=""images/map23_RdGy_scaleRev_orientMir_180.png"" style= ""width:200px""alt=""img"">
                            </div>
                        </div>",0.6625,"",0,"",NA,"","images/map23_RdGy_scaleRev_orientMir_180.png","sad",1,23,23,"RdGy","orientMir","scaleRev","180",NA,NA
"","","","","","html-slider-response",54,177868,"0.0-50.0","2yanp35qk9",7,NA,"<div style=""width:500px;"">
                            <p style=""font-size:50px; font-weight:bold;""
                            >sad</p>
                            <div style=""width:240px; margin: auto;"">
                                <img src=""images/map15_BuGn_scaleRev_orientDef_180.png"" style= ""width:200px""alt=""img"">
                            </div>
                        </div>",0.385,"",0,"",NA,"","images/map15_BuGn_scaleRev_orientDef_180.png","sad",1,15,15,"BuGn","orientDef","scaleRev","180",NA,NA
"","","","","","html-slider-response",55,180583,"0.0-51.0","2yanp35qk9",7,NA,"<div style=""width:500px;"">
                            <p style=""font-size:50px; font-weight:bold;""
                            >sad</p>
                            <div style=""width:240px; margin: auto;"">
                                <img src=""images/map12_PuRd_scaleRev_orientMir_000.png"" style= ""width:200px""alt=""img"">
                            </div>
                        </div>",0.245,"",0,"",NA,"","images/map12_PuRd_scaleRev_orientMir_000.png","sad",1,12,12,"PuRd","orientMir","scaleRev","000",NA,NA
"","","","","","html-slider-response",56,182616,"0.0-52.0","2yanp35qk9",7,NA,"<div style=""width:500px;"">
                            <p style=""font-size:50px; font-weight:bold;""
                            >sad</p>
                            <div style=""width:240px; margin: auto;"">
                                <img src=""images/map13_PuBu_scaleRev_orientMir_000.png"" style= ""width:200px""alt=""img"">
                            </div>
                        </div>",0.75,"",0,"",NA,"","images/map13_PuBu_scaleRev_orientMir_000.png","sad",1,13,13,"PuBu","orientMir","scaleRev","000",NA,NA
"","","","","","html-slider-response",57,184201,"0.0-53.0","2yanp35qk9",7,NA,"<div style=""width:500px;"">
                            <p style=""font-size:50px; font-weight:bold;""
                            >sad</p>
                            <div style=""width:240px; margin: auto;"">
                                <img src=""images/map05_magma_scaleRev_orientMir_180.png"" style= ""width:200px""alt=""img"">
                            </div>
                        </div>",0.295,"",0,"",NA,"","images/map05_magma_scaleRev_orientMir_180.png","sad",1,5,5,"magma","orientMir","scaleRev","180",NA,NA
"","","","","","html-button-response",58,186008,"0.0-54.0","2yanp35qk9",7,1305,"<p>You are doing great!<br></br> You are halway done with the current block. When you are ready to continue, click the 'Continue' button.</p>",0.5,"",NA,"",NA,"","","",NA,NA,NA,"","","","",NA,NA
"","","","","","html-slider-response",59,189717,"0.0-55.0","2yanp35qk9",7,NA,"<div style=""width:500px;"">
                            <p style=""font-size:50px; font-weight:bold;""
                            >sad</p>
                            <div style=""width:240px; margin: auto;"">
                                <img src=""images/map23_RdBu_scaleDef_orientMir_270.png"" style= ""width:200px""alt=""img"">
                            </div>
                        </div>",0.425,"",0,"",NA,"","images/map23_RdBu_scaleDef_orientMir_270.png","sad",1,23,23,"RdBu","orientMir","scaleDef","270",NA,NA
"","","","","","html-slider-response",60,191067,"0.0-56.0","2yanp35qk9",7,NA,"<div style=""width:500px;"">
                            <p style=""font-size:50px; font-weight:bold;""
                            >sad</p>
                            <div style=""width:240px; margin: auto;"">
                                <img src=""images/map05_inferno_scaleRev_orientMir_000.png"" style= ""width:200px""alt=""img"">
                            </div>
                        </div>",0.415,"",0,"",NA,"","images/map05_inferno_scaleRev_orientMir_000.png","sad",1,5,5,"inferno","orientMir","scaleRev","000",NA,NA
"","","","","","html-slider-response",61,193284,"0.0-57.0","2yanp35qk9",7,NA,"<div style=""width:500px;"">
                            <p style=""font-size:50px; font-weight:bold;""
                            >sad</p>
                            <div style=""width:240px; margin: auto;"">
                                <img src=""images/map07_Blues_scaleRev_orientMir_180.png"" style= ""width:200px""alt=""img"">
                            </div>
                        </div>",0.695,"",0,"",NA,"","images/map07_Blues_scaleRev_orientMir_180.png","sad",1,7,7,"Blues","orientMir","scaleRev","180",NA,NA
"","","","","","html-slider-response",62,194668,"0.0-58.0","2yanp35qk9",7,NA,"<div style=""width:500px;"">
                            <p style=""font-size:50px; font-weight:bold;""
                            >sad</p>
                            <div style=""width:240px; margin: auto;"">
                                <img src=""images/map27_bwr_scaleDef_orientDef_090.png"" style= ""width:200px""alt=""img"">
                            </div>
                        </div>",0.415,"",0,"",NA,"","images/map27_bwr_scaleDef_orientDef_090.png","sad",1,27,27,"bwr","orientDef","scaleDef","090",NA,NA
"","","","","","html-slider-response",63,196150,"0.0-59.0","2yanp35qk9",7,NA,"<div style=""width:500px;"">
                            <p style=""font-size:50px; font-weight:bold;""
                            >sad</p>
                            <div style=""width:240px; margin: auto;"">
                                <img src=""images/map27_bwr_scaleRev_orientDef_180.png"" style= ""width:200px""alt=""img"">
                            </div>
                        </div>",0.375,"",0,"",NA,"","images/map27_bwr_scaleRev_orientDef_180.png","sad",1,27,27,"bwr","orientDef","scaleRev","180",NA,NA
"","","","","","html-slider-response",64,197867,"0.0-60.0","2yanp35qk9",7,NA,"<div style=""width:500px;"">
                            <p style=""font-size:50px; font-weight:bold;""
                            >sad</p>
                            <div style=""width:240px; margin: auto;"">
                                <img src=""images/map26_RdBu_scaleRev_orientDef_000.png"" style= ""width:200px""alt=""img"">
                            </div>
                        </div>",0.7375,"",0,"",NA,"","images/map26_RdBu_scaleRev_orientDef_000.png","sad",1,26,26,"RdBu","orientDef","scaleRev","000",NA,NA
"","","","","","html-slider-response",65,199616,"0.0-61.0","2yanp35qk9",7,NA,"<div style=""width:500px;"">
                            <p style=""font-size:50px; font-weight:bold;""
                            >sad</p>
                            <div style=""width:240px; margin: auto;"">
                                <img src=""images/map02_managua_scaleRev_orientDef_000.png"" style= ""width:200px""alt=""img"">
                            </div>
                        </div>",0.6975,"",0,"",NA,"","images/map02_managua_scaleRev_orientDef_000.png","sad",1,2,2,"managua","orientDef","scaleRev","000",NA,NA
"","","","","","html-slider-response",66,201834,"0.0-62.0","2yanp35qk9",7,NA,"<div style=""width:500px;"">
                            <p style=""font-size:50px; font-weight:bold;""
                            >sad</p>
                            <div style=""width:240px; margin: auto;"">
                                <img src=""images/map02_gist_earth_scaleRev_orientMir_000.png"" style= ""width:200px""alt=""img"">
                            </div>
                        </div>",0.48,"",0,"",NA,"","images/map02_gist_earth_scaleRev_orientMir_000.png","sad",1,2,2,"gist","scaleRev","earth","orientMir",NA,NA
"","","","","","html-slider-response",67,203517,"0.0-63.0","2yanp35qk9",7,NA,"<div style=""width:500px;"">
                            <p style=""font-size:50px; font-weight:bold;""
                            >sad</p>
                            <div style=""width:240px; margin: auto;"">
                                <img src=""images/map05_viridis_scaleRev_orientDef_000.png"" style= ""width:200px""alt=""img"">
                            </div>
                        </div>",0.615,"",0,"",NA,"","images/map05_viridis_scaleRev_orientDef_000.png","sad",1,5,5,"viridis","orientDef","scaleRev","000",NA,NA
"","","","","","html-slider-response",68,205216,"0.0-64.0","2yanp35qk9",7,NA,"<div style=""width:500px;"">
                            <p style=""font-size:50px; font-weight:bold;""
                            >sad</p>
                            <div style=""width:240px; margin: auto;"">
                                <img src=""images/map07_Purples_scaleRev_orientMir_000.png"" style= ""width:200px""alt=""img"">
                            </div>
                        </div>",0.775,"",0,"",NA,"","images/map07_Purples_scaleRev_orientMir_000.png","sad",1,7,7,"Purples","orientMir","scaleRev","000",NA,NA
"","","","","","html-slider-response",69,206866,"0.0-65.0","2yanp35qk9",7,NA,"<div style=""width:500px;"">
                            <p style=""font-size:50px; font-weight:bold;""
                            >sad</p>
                            <div style=""width:240px; margin: auto;"">
                                <img src=""images/map26_RdYlGn_scaleDef_orientDef_270.png"" style= ""width:200px""alt=""img"">
                            </div>
                        </div>",0.3425,"",0,"",NA,"","images/map26_RdYlGn_scaleDef_orientDef_270.png","sad",1,26,26,"RdYlGn","orientDef","scaleDef","270",NA,NA
"","","","","","html-slider-response",70,208835,"0.0-66.0","2yanp35qk9",7,NA,"<div style=""width:500px;"">
                            <p style=""font-size:50px; font-weight:bold;""
                            >sad</p>
                            <div style=""width:240px; margin: auto;"">
                                <img src=""images/map07_Greys_scaleDef_orientDef_090.png"" style= ""width:200px""alt=""img"">
                            </div>
                        </div>",0.9,"",0,"",NA,"","images/map07_Greys_scaleDef_orientDef_090.png","sad",1,7,7,"Greys","orientDef","scaleDef","090",NA,NA
"","","","","","html-slider-response",71,210251,"0.0-67.0","2yanp35qk9",7,NA,"<div style=""width:500px;"">
                            <p style=""font-size:50px; font-weight:bold;""
                            >sad</p>
                            <div style=""width:240px; margin: auto;"">
                                <img src=""images/map02_vanimo_scaleRev_orientDef_180.png"" style= ""width:200px""alt=""img"">
                            </div>
                        </div>",0.235,"",0,"",NA,"","images/map02_vanimo_scaleRev_orientDef_180.png","sad",1,2,2,"vanimo","orientDef","scaleRev","180",NA,NA
"","","","","","html-slider-response",72,212482,"0.0-68.0","2yanp35qk9",7,NA,"<div style=""width:500px;"">
                            <p style=""font-size:50px; font-weight:bold;""
                            >sad</p>
                            <div style=""width:240px; margin: auto;"">
                                <img src=""images/map27_coolwarm_scaleRev_orientDef_000.png"" style= ""width:200px""alt=""img"">
                            </div>
                        </div>",0.4175,"",0,"",NA,"","images/map27_coolwarm_scaleRev_orientDef_000.png","sad",1,27,27,"coolwarm","orientDef","scaleRev","000",NA,NA
"","","","","","html-slider-response",73,213900,"0.0-69.0","2yanp35qk9",7,NA,"<div style=""width:500px;"">
                            <p style=""font-size:50px; font-weight:bold;""
                            >sad</p>
                            <div style=""width:240px; margin: auto;"">
                                <img src=""images/map12_RdPu_scaleRev_orientMir_180.png"" style= ""width:200px""alt=""img"">
                            </div>
                        </div>",0.2875,"",0,"",NA,"","images/map12_RdPu_scaleRev_orientMir_180.png","sad",1,12,12,"RdPu","orientMir","scaleRev","180",NA,NA
"","","","","","html-slider-response",74,215432,"0.0-70.0","2yanp35qk9",7,NA,"<div style=""width:500px;"">
                            <p style=""font-size:50px; font-weight:bold;""
                            >sad</p>
                            <div style=""width:240px; margin: auto;"">
                                <img src=""images/map13_PuBuGn_scaleDef_orientMir_270.png"" style= ""width:200px""alt=""img"">
                            </div>
                        </div>",0.715,"",0,"",NA,"","images/map13_PuBuGn_scaleDef_orientMir_270.png","sad",1,13,13,"PuBuGn","orientMir","scaleDef","270",NA,NA
"","","","","","html-slider-response",75,216867,"0.0-71.0","2yanp35qk9",7,NA,"<div style=""width:500px;"">
                            <p style=""font-size:50px; font-weight:bold;""
                            >sad</p>
                            <div style=""width:240px; margin: auto;"">
                                <img src=""images/map05_plasma_scaleDef_orientDef_090.png"" style= ""width:200px""alt=""img"">
                            </div>
                        </div>",0.305,"",0,"",NA,"","images/map05_plasma_scaleDef_orientDef_090.png","sad",1,5,5,"plasma","orientDef","scaleDef","090",NA,NA
"","","","","","html-slider-response",76,218500,"0.0-72.0","2yanp35qk9",7,NA,"<div style=""width:500px;"">
                            <p style=""font-size:50px; font-weight:bold;""
                            >sad</p>
                            <div style=""width:240px; margin: auto;"">
                                <img src=""images/map15_PiYG_scaleDef_orientMir_090.png"" style= ""width:200px""alt=""img"">
                            </div>
                        </div>",0.3225,"",0,"",NA,"","images/map15_PiYG_scaleDef_orientMir_090.png","sad",1,15,15,"PiYG","orientMir","scaleDef","090",NA,NA
"","","","","","html-slider-response",77,220199,"0.0-73.0","2yanp35qk9",7,NA,"<div style=""width:500px;"">
                            <p style=""font-size:50px; font-weight:bold;""
                            >sad</p>
                            <div style=""width:240px; margin: auto;"">
                                <img src=""images/map27_berlin_scaleDef_orientMir_090.png"" style= ""width:200px""alt=""img"">
                            </div>
                        </div>",0.675,"",0,"",NA,"","images/map27_berlin_scaleDef_orientMir_090.png","sad",1,27,27,"berlin","orientMir","scaleDef","090",NA,NA
"","","","","","html-slider-response",78,222800,"0.0-74.0","2yanp35qk9",7,NA,"<div style=""width:500px;"">
                            <p style=""font-size:50px; font-weight:bold;""
                            >sad</p>
                            <div style=""width:240px; margin: auto;"">
                                <img src=""images/map23_PuOr_scaleRev_orientMir_000.png"" style= ""width:200px""alt=""img"">
                            </div>
                        </div>",0.4225,"",0,"",NA,"","images/map23_PuOr_scaleRev_orientMir_000.png","sad",1,23,23,"PuOr","orientMir","scaleRev","000",NA,NA
"","","","","","html-slider-response",79,224317,"0.0-75.0","2yanp35qk9",7,NA,"<div style=""width:500px;"">
                            <p style=""font-size:50px; font-weight:bold;""
                            >sad</p>
                            <div style=""width:240px; margin: auto;"">
                                <img src=""images/map05_magma_scaleDef_orientMir_090.png"" style= ""width:200px""alt=""img"">
                            </div>
                        </div>",0.675,"",0,"",NA,"","images/map05_magma_scaleDef_orientMir_090.png","sad",1,5,5,"magma","orientMir","scaleDef","090",NA,NA
"","","","","","html-slider-response",80,226168,"0.0-76.0","2yanp35qk9",7,NA,"<div style=""width:500px;"">
                            <p style=""font-size:50px; font-weight:bold;""
                            >sad</p>
                            <div style=""width:240px; margin: auto;"">
                                <img src=""images/map23_BrBG_scaleDef_orientDef_090.png"" style= ""width:200px""alt=""img"">
                            </div>
                        </div>",0.415,"",0,"",NA,"","images/map23_BrBG_scaleDef_orientDef_090.png","sad",1,23,23,"BrBG","orientDef","scaleDef","090",NA,NA
"","","","","","html-slider-response",81,227765,"0.0-77.0","2yanp35qk9",7,NA,"<div style=""width:500px;"">
                            <p style=""font-size:50px; font-weight:bold;""
                            >sad</p>
                            <div style=""width:240px; margin: auto;"">
                                <img src=""images/map13_YlGnBu_scaleDef_orientMir_090.png"" style= ""width:200px""alt=""img"">
                            </div>
                        </div>",0.8825,"",0,"",NA,"","images/map13_YlGnBu_scaleDef_orientMir_090.png","sad",1,13,13,"YlGnBu","orientMir","scaleDef","090",NA,NA
"","","","","","html-slider-response",82,229168,"0.0-78.0","2yanp35qk9",7,NA,"<div style=""width:500px;"">
                            <p style=""font-size:50px; font-weight:bold;""
                            >sad</p>
                            <div style=""width:240px; margin: auto;"">
                                <img src=""images/map13_PuBu_scaleDef_orientDef_270.png"" style= ""width:200px""alt=""img"">
                            </div>
                        </div>",0.8675,"",0,"",NA,"","images/map13_PuBu_scaleDef_orientDef_270.png","sad",1,13,13,"PuBu","orientDef","scaleDef","270",NA,NA
"","","","","","html-slider-response",83,230567,"0.0-79.0","2yanp35qk9",7,NA,"<div style=""width:500px;"">
                            <p style=""font-size:50px; font-weight:bold;""
                            >sad</p>
                            <div style=""width:240px; margin: auto;"">
                                <img src=""images/map05_inferno_scaleDef_orientDef_270.png"" style= ""width:200px""alt=""img"">
                            </div>
                        </div>",0.415,"",0,"",NA,"","images/map05_inferno_scaleDef_orientDef_270.png","sad",1,5,5,"inferno","orientDef","scaleDef","270",NA,NA
"","","","","","html-slider-response",84,232533,"0.0-80.0","2yanp35qk9",7,NA,"<div style=""width:500px;"">
                            <p style=""font-size:50px; font-weight:bold;""
                            >sad</p>
                            <div style=""width:240px; margin: auto;"">
                                <img src=""images/map23_PRGn_scaleRev_orientDef_000.png"" style= ""width:200px""alt=""img"">
                            </div>
                        </div>",0.425,"",0,"",NA,"","images/map23_PRGn_scaleRev_orientDef_000.png","sad",1,23,23,"PRGn","orientDef","scaleRev","000",NA,NA
"","","","","","html-slider-response",85,234232,"0.0-81.0","2yanp35qk9",7,NA,"<div style=""width:500px;"">
                            <p style=""font-size:50px; font-weight:bold;""
                            >sad</p>
                            <div style=""width:240px; margin: auto;"">
                                <img src=""images/map23_RdGy_scaleDef_orientMir_090.png"" style= ""width:200px""alt=""img"">
                            </div>
                        </div>",0.68,"",0,"",NA,"","images/map23_RdGy_scaleDef_orientMir_090.png","sad",1,23,23,"RdGy","orientMir","scaleDef","090",NA,NA
"","","","","","html-slider-response",86,235765,"0.0-82.0","2yanp35qk9",7,NA,"<div style=""width:500px;"">
                            <p style=""font-size:50px; font-weight:bold;""
                            >sad</p>
                            <div style=""width:240px; margin: auto;"">
                                <img src=""images/map15_PRGn_scaleDef_orientMir_270.png"" style= ""width:200px""alt=""img"">
                            </div>
                        </div>",0.3575,"",0,"",NA,"","images/map15_PRGn_scaleDef_orientMir_270.png","sad",1,15,15,"PRGn","orientMir","scaleDef","270",NA,NA
"","","","","","html-slider-response",87,237099,"0.0-83.0","2yanp35qk9",7,NA,"<div style=""width:500px;"">
                            <p style=""font-size:50px; font-weight:bold;""
                            >sad</p>
                            <div style=""width:240px; margin: auto;"">
                                <img src=""images/map26_Spectral_scaleDef_orientMir_090.png"" style= ""width:200px""alt=""img"">
                            </div>
                        </div>",0.345,"",0,"",NA,"","images/map26_Spectral_scaleDef_orientMir_090.png","sad",1,26,26,"Spectral","orientMir","scaleDef","090",NA,NA
"","","","","","html-slider-response",88,238501,"0.0-84.0","2yanp35qk9",7,NA,"<div style=""width:500px;"">
                            <p style=""font-size:50px; font-weight:bold;""
                            >sad</p>
                            <div style=""width:240px; margin: auto;"">
                                <img src=""images/map26_RdYlGn_scaleRev_orientMir_000.png"" style= ""width:200px""alt=""img"">
                            </div>
                        </div>",0.38,"",0,"",NA,"","images/map26_RdYlGn_scaleRev_orientMir_000.png","sad",1,26,26,"RdYlGn","orientMir","scaleRev","000",NA,NA
"","","","","","html-slider-response",89,239865,"0.0-85.0","2yanp35qk9",7,NA,"<div style=""width:500px;"">
                            <p style=""font-size:50px; font-weight:bold;""
                            >sad</p>
                            <div style=""width:240px; margin: auto;"">
                                <img src=""images/map15_YlGn_scaleDef_orientDef_270.png"" style= ""width:200px""alt=""img"">
                            </div>
                        </div>",0.4575,"",0,"",NA,"","images/map15_YlGn_scaleDef_orientDef_270.png","sad",1,15,15,"YlGn","orientDef","scaleDef","270",NA,NA
"","","","","","html-slider-response",90,241301,"0.0-86.0","2yanp35qk9",7,NA,"<div style=""width:500px;"">
                            <p style=""font-size:50px; font-weight:bold;""
                            >sad</p>
                            <div style=""width:240px; margin: auto;"">
                                <img src=""images/map13_YlGnBu_scaleRev_orientMir_180.png"" style= ""width:200px""alt=""img"">
                            </div>
                        </div>",0.8275,"",0,"",NA,"","images/map13_YlGnBu_scaleRev_orientMir_180.png","sad",1,13,13,"YlGnBu","orientMir","scaleRev","180",NA,NA
"","","","","","html-slider-response",91,243333,"0.0-87.0","2yanp35qk9",7,NA,"<div style=""width:500px;"">
                            <p style=""font-size:50px; font-weight:bold;""
                            >sad</p>
                            <div style=""width:240px; margin: auto;"">
                                <img src=""images/map13_BuPu_scaleRev_orientDef_000.png"" style= ""width:200px""alt=""img"">
                            </div>
                        </div>",0.65,"",0,"",NA,"","images/map13_BuPu_scaleRev_orientDef_000.png","sad",1,13,13,"BuPu","orientDef","scaleRev","000",NA,NA
"","","","","","html-slider-response",92,244749,"0.0-88.0","2yanp35qk9",7,NA,"<div style=""width:500px;"">
                            <p style=""font-size:50px; font-weight:bold;""
                            >sad</p>
                            <div style=""width:240px; margin: auto;"">
                                <img src=""images/map12_YlOrRd_scaleRev_orientDef_000.png"" style= ""width:200px""alt=""img"">
                            </div>
                        </div>",0.4125,"",0,"",NA,"","images/map12_YlOrRd_scaleRev_orientDef_000.png","sad",1,12,12,"YlOrRd","orientDef","scaleRev","000",NA,NA
"","","","","","html-slider-response",93,248100,"0.0-89.0","2yanp35qk9",7,NA,"<div style=""width:500px;"">
                            <p style=""font-size:50px; font-weight:bold;""
                            >sad</p>
                            <div style=""width:240px; margin: auto;"">
                                <img src=""images/map02_turbo_scaleDef_orientMir_090.png"" style= ""width:200px""alt=""img"">
                            </div>
                        </div>",0.3975,"",0,"",NA,"","images/map02_turbo_scaleDef_orientMir_090.png","sad",1,2,2,"turbo","orientMir","scaleDef","090",NA,NA
"","","","","","html-slider-response",94,250398,"0.0-90.0","2yanp35qk9",7,NA,"<div style=""width:500px;"">
                            <p style=""font-size:50px; font-weight:bold;""
                            >sad</p>
                            <div style=""width:240px; margin: auto;"">
                                <img src=""images/map26_coolwarm_scaleDef_orientMir_270.png"" style= ""width:200px""alt=""img"">
                            </div>
                        </div>",0.4275,"",0,"",NA,"","images/map26_coolwarm_scaleDef_orientMir_270.png","sad",1,26,26,"coolwarm","orientMir","scaleDef","270",NA,NA
"","","","","","html-slider-response",95,252248,"0.0-91.0","2yanp35qk9",7,NA,"<div style=""width:500px;"">
                            <p style=""font-size:50px; font-weight:bold;""
                            >sad</p>
                            <div style=""width:240px; margin: auto;"">
                                <img src=""images/map10_YlOrBr_scaleRev_orientMir_180.png"" style= ""width:200px""alt=""img"">
                            </div>
                        </div>",0.455,"",0,"",NA,"","images/map10_YlOrBr_scaleRev_orientMir_180.png","sad",1,10,10,"YlOrBr","orientMir","scaleRev","180",NA,NA
"","","","","","html-slider-response",96,255750,"0.0-92.0","2yanp35qk9",7,NA,"<div style=""width:500px;"">
                            <p style=""font-size:50px; font-weight:bold;""
                            >sad</p>
                            <div style=""width:240px; margin: auto;"">
                                <img src=""images/map05_cividis_scaleDef_orientMir_270.png"" style= ""width:200px""alt=""img"">
                            </div>
                        </div>",0.7525,"",0,"",NA,"","images/map05_cividis_scaleDef_orientMir_270.png","sad",1,5,5,"cividis","orientMir","scaleDef","270",NA,NA
"","","","","","html-slider-response",97,258916,"0.0-93.0","2yanp35qk9",7,NA,"<div style=""width:500px;"">
                            <p style=""font-size:50px; font-weight:bold;""
                            >sad</p>
                            <div style=""width:240px; margin: auto;"">
                                <img src=""images/map12_OrRd_scaleDef_orientDef_090.png"" style= ""width:200px""alt=""img"">
                            </div>
                        </div>",0.435,"",0,"",NA,"","images/map12_OrRd_scaleDef_orientDef_090.png","sad",1,12,12,"OrRd","orientDef","scaleDef","090",NA,NA
"","","","","","html-slider-response",98,262382,"0.0-94.0","2yanp35qk9",7,NA,"<div style=""width:500px;"">
                            <p style=""font-size:50px; font-weight:bold;""
                            >sad</p>
                            <div style=""width:240px; margin: auto;"">
                                <img src=""images/map12_OrRd_scaleRev_orientDef_180.png"" style= ""width:200px""alt=""img"">
                            </div>
                        </div>",0.425,"",0,"",NA,"","images/map12_OrRd_scaleRev_orientDef_180.png","sad",1,12,12,"OrRd","orientDef","scaleRev","180",NA,NA
"","","","","","html-button-response",99,266889,"0.0-95.0","2yanp35qk9",7,4005,"<p>Great Job! You've finished block 1.<br></br> You have 4 block(s) left to go.<br></br></p>",0.5,"",NA,"",NA,"","","",NA,NA,NA,"","","","",NA,NA
"","","","","","html-button-response",100,274473,"0.0-96.0","2yanp35qk9",7,7583,"<p>In this block of trials, you will be asked to rate how much you associate each map with:</p > <p style = 'font-size:150%; font-weight: bold'>fearful</p><br></br>",0.5,"",NA,"",NA,"","","",NA,NA,NA,"","","","",NA,NA
"","","","","","html-slider-response",101,275935,"0.0-97.0","2yanp35qk9",7,NA,"<div style=""width:500px;"">
                            <p style=""font-size:50px; font-weight:bold;""
                            >fearful</p>
                            <div style=""width:240px; margin: auto;"">
                                <img src=""images/map15_BuGn_scaleRev_orientDef_180.png"" style= ""width:200px""alt=""img"">
                            </div>
                        </div>",0.415,"",0,"",NA,"","images/map15_BuGn_scaleRev_orientDef_180.png","fearful",1,15,15,"BuGn","orientDef","scaleRev","180",NA,NA
"","","","","","html-slider-response",102,277834,"0.0-98.0","2yanp35qk9",7,NA,"<div style=""width:500px;"">
                            <p style=""font-size:50px; font-weight:bold;""
                            >fearful</p>
                            <div style=""width:240px; margin: auto;"">
                                <img src=""images/map23_RdGy_scaleDef_orientMir_090.png"" style= ""width:200px""alt=""img"">
                            </div>
                        </div>",0.605,"",0,"",NA,"","images/map23_RdGy_scaleDef_orientMir_090.png","fearful",1,23,23,"RdGy","orientMir","scaleDef","090",NA,NA
"","","","","","html-slider-response",103,279583,"0.0-99.0","2yanp35qk9",7,NA,"<div style=""width:500px;"">
                            <p style=""font-size:50px; font-weight:bold;""
                            >fearful</p>
                            <div style=""width:240px; margin: auto;"">
                                <img src=""images/map15_BuGn_scaleDef_orientDef_090.png"" style= ""width:200px""alt=""img"">
                            </div>
                        </div>",0.435,"",0,"",NA,"","images/map15_BuGn_scaleDef_orientDef_090.png","fearful",1,15,15,"BuGn","orientDef","scaleDef","090",NA,NA
"","","","","","html-slider-response",104,281315,"0.0-100.0","2yanp35qk9",7,NA,"<div style=""width:500px;"">
                            <p style=""font-size:50px; font-weight:bold;""
                            >fearful</p>
                            <div style=""width:240px; margin: auto;"">
                                <img src=""images/map07_Greys_scaleRev_orientDef_180.png"" style= ""width:200px""alt=""img"">
                            </div>
                        </div>",0.6225,"",0,"",NA,"","images/map07_Greys_scaleRev_orientDef_180.png","fearful",1,7,7,"Greys","orientDef","scaleRev","180",NA,NA
"","","","","","html-slider-response",105,282998,"0.0-101.0","2yanp35qk9",7,NA,"<div style=""width:500px;"">
                            <p style=""font-size:50px; font-weight:bold;""
                            >fearful</p>
                            <div style=""width:240px; margin: auto;"">
                                <img src=""images/map15_YlGn_scaleRev_orientMir_000.png"" style= ""width:200px""alt=""img"">
                            </div>
                        </div>",0.4475,"",0,"",NA,"","images/map15_YlGn_scaleRev_orientMir_000.png","fearful",1,15,15,"YlGn","orientMir","scaleRev","000",NA,NA
"","","","","","html-slider-response",106,284500,"0.0-102.0","2yanp35qk9",7,NA,"<div style=""width:500px;"">
                            <p style=""font-size:50px; font-weight:bold;""
                            >fearful</p>
                            <div style=""width:240px; margin: auto;"">
                                <img src=""images/map26_coolwarm_scaleDef_orientMir_270.png"" style= ""width:200px""alt=""img"">
                            </div>
                        </div>",0.845,"",0,"",NA,"","images/map26_coolwarm_scaleDef_orientMir_270.png","fearful",1,26,26,"coolwarm","orientMir","scaleDef","270",NA,NA
"","","","","","html-slider-response",107,286516,"0.0-103.0","2yanp35qk9",7,NA,"<div style=""width:500px;"">
                            <p style=""font-size:50px; font-weight:bold;""
                            >fearful</p>
                            <div style=""width:240px; margin: auto;"">
                                <img src=""images/map15_PRGn_scaleDef_orientMir_270.png"" style= ""width:200px""alt=""img"">
                            </div>
                        </div>",0.635,"",0,"",NA,"","images/map15_PRGn_scaleDef_orientMir_270.png","fearful",1,15,15,"PRGn","orientMir","scaleDef","270",NA,NA
"","","","","","html-slider-response",108,288015,"0.0-104.0","2yanp35qk9",7,NA,"<div style=""width:500px;"">
                            <p style=""font-size:50px; font-weight:bold;""
                            >fearful</p>
                            <div style=""width:240px; margin: auto;"">
                                <img src=""images/map05_plasma_scaleRev_orientDef_180.png"" style= ""width:200px""alt=""img"">
                            </div>
                        </div>",0.775,"",0,"",NA,"","images/map05_plasma_scaleRev_orientDef_180.png","fearful",1,5,5,"plasma","orientDef","scaleRev","180",NA,NA
"","","","","","html-slider-response",109,289398,"0.0-105.0","2yanp35qk9",7,NA,"<div style=""width:500px;"">
                            <p style=""font-size:50px; font-weight:bold;""
                            >fearful</p>
                            <div style=""width:240px; margin: auto;"">
                                <img src=""images/map05_magma_scaleRev_orientMir_180.png"" style= ""width:200px""alt=""img"">
                            </div>
                        </div>",0.665,"",0,"",NA,"","images/map05_magma_scaleRev_orientMir_180.png","fearful",1,5,5,"magma","orientMir","scaleRev","180",NA,NA
"","","","","","html-slider-response",110,290748,"0.0-106.0","2yanp35qk9",7,NA,"<div style=""width:500px;"">
                            <p style=""font-size:50px; font-weight:bold;""
                            >fearful</p>
                            <div style=""width:240px; margin: auto;"">
                                <img src=""images/map05_plasma_scaleDef_orientDef_090.png"" style= ""width:200px""alt=""img"">
                            </div>
                        </div>",0.805,"",0,"",NA,"","images/map05_plasma_scaleDef_orientDef_090.png","fearful",1,5,5,"plasma","orientDef","scaleDef","090",NA,NA
"","","","","","html-slider-response",111,292233,"0.0-107.0","2yanp35qk9",7,NA,"<div style=""width:500px;"">
                            <p style=""font-size:50px; font-weight:bold;""
                            >fearful</p>
                            <div style=""width:240px; margin: auto;"">
                                <img src=""images/map15_PiYG_scaleDef_orientMir_090.png"" style= ""width:200px""alt=""img"">
                            </div>
                        </div>",0.6925,"",0,"",NA,"","images/map15_PiYG_scaleDef_orientMir_090.png","fearful",1,15,15,"PiYG","orientMir","scaleDef","090",NA,NA
"","","","","","html-slider-response",112,293766,"0.0-108.0","2yanp35qk9",7,NA,"<div style=""width:500px;"">
                            <p style=""font-size:50px; font-weight:bold;""
                            >fearful</p>
                            <div style=""width:240px; margin: auto;"">
                                <img src=""images/map13_PuBuGn_scaleDef_orientMir_270.png"" style= ""width:200px""alt=""img"">
                            </div>
                        </div>",0.4325,"",0,"",NA,"","images/map13_PuBuGn_scaleDef_orientMir_270.png","fearful",1,13,13,"PuBuGn","orientMir","scaleDef","270",NA,NA
"","","","","","html-slider-response",113,295549,"0.0-109.0","2yanp35qk9",7,NA,"<div style=""width:500px;"">
                            <p style=""font-size:50px; font-weight:bold;""
                            >fearful</p>
                            <div style=""width:240px; margin: auto;"">
                                <img src=""images/map10_Greens_scaleRev_orientDef_000.png"" style= ""width:200px""alt=""img"">
                            </div>
                        </div>",0.4525,"",0,"",NA,"","images/map10_Greens_scaleRev_orientDef_000.png","fearful",1,10,10,"Greens","orientDef","scaleRev","000",NA,NA
"","","","","","html-slider-response",114,297299,"0.0-110.0","2yanp35qk9",7,NA,"<div style=""width:500px;"">
                            <p style=""font-size:50px; font-weight:bold;""
                            >fearful</p>
                            <div style=""width:240px; margin: auto;"">
                                <img src=""images/map02_gist_earth_scaleDef_orientDef_270.png"" style= ""width:200px""alt=""img"">
                            </div>
                        </div>",0.4425,"",0,"",NA,"","images/map02_gist_earth_scaleDef_orientDef_270.png","fearful",1,2,2,"gist","scaleDef","earth","orientDef",NA,NA
"","","","","","html-slider-response",115,299817,"0.0-111.0","2yanp35qk9",7,NA,"<div style=""width:500px;"">
                            <p style=""font-size:50px; font-weight:bold;""
                            >fearful</p>
                            <div style=""width:240px; margin: auto;"">
                                <img src=""images/map15_PuBuGn_scaleRev_orientDef_000.png"" style= ""width:200px""alt=""img"">
                            </div>
                        </div>",0.6975,"",0,"",NA,"","images/map15_PuBuGn_scaleRev_orientDef_000.png","fearful",1,15,15,"PuBuGn","orientDef","scaleRev","000",NA,NA
"","","","","","html-slider-response",116,302151,"0.0-112.0","2yanp35qk9",7,NA,"<div style=""width:500px;"">
                            <p style=""font-size:50px; font-weight:bold;""
                            >fearful</p>
                            <div style=""width:240px; margin: auto;"">
                                <img src=""images/map26_RdBu_scaleRev_orientDef_000.png"" style= ""width:200px""alt=""img"">
                            </div>
                        </div>",0.7475,"",0,"",NA,"","images/map26_RdBu_scaleRev_orientDef_000.png","fearful",1,26,26,"RdBu","orientDef","scaleRev","000",NA,NA
"","","","","","html-slider-response",117,303566,"0.0-113.0","2yanp35qk9",7,NA,"<div style=""width:500px;"">
                            <p style=""font-size:50px; font-weight:bold;""
                            >fearful</p>
                            <div style=""width:240px; margin: auto;"">
                                <img src=""images/map23_PuOr_scaleDef_orientDef_270.png"" style= ""width:200px""alt=""img"">
                            </div>
                        </div>",0.775,"",0,"",NA,"","images/map23_PuOr_scaleDef_orientDef_270.png","fearful",1,23,23,"PuOr","orientDef","scaleDef","270",NA,NA
"","","","","","html-slider-response",118,304914,"0.0-114.0","2yanp35qk9",7,NA,"<div style=""width:500px;"">
                            <p style=""font-size:50px; font-weight:bold;""
                            >fearful</p>
                            <div style=""width:240px; margin: auto;"">
                                <img src=""images/map07_Greens_scaleDef_orientMir_270.png"" style= ""width:200px""alt=""img"">
                            </div>
                        </div>",0.465,"",0,"",NA,"","images/map07_Greens_scaleDef_orientMir_270.png","fearful",1,7,7,"Greens","orientMir","scaleDef","270",NA,NA
"","","","","","html-slider-response",119,306516,"0.0-115.0","2yanp35qk9",7,NA,"<div style=""width:500px;"">
                            <p style=""font-size:50px; font-weight:bold;""
                            >fearful</p>
                            <div style=""width:240px; margin: auto;"">
                                <img src=""images/map07_Greys_scaleDef_orientDef_090.png"" style= ""width:200px""alt=""img"">
                            </div>
                        </div>",0.6975,"",0,"",NA,"","images/map07_Greys_scaleDef_orientDef_090.png","fearful",1,7,7,"Greys","orientDef","scaleDef","090",NA,NA
"","","","","","html-slider-response",120,308233,"0.0-116.0","2yanp35qk9",7,NA,"<div style=""width:500px;"">
                            <p style=""font-size:50px; font-weight:bold;""
                            >fearful</p>
                            <div style=""width:240px; margin: auto;"">
                                <img src=""images/map23_BrBG_scaleDef_orientDef_090.png"" style= ""width:200px""alt=""img"">
                            </div>
                        </div>",0.7575,"",0,"",NA,"","images/map23_BrBG_scaleDef_orientDef_090.png","fearful",1,23,23,"BrBG","orientDef","scaleDef","090",NA,NA
"","","","","","html-slider-response",121,309950,"0.0-117.0","2yanp35qk9",7,NA,"<div style=""width:500px;"">
                            <p style=""font-size:50px; font-weight:bold;""
                            >fearful</p>
                            <div style=""width:240px; margin: auto;"">
                                <img src=""images/map23_RdGy_scaleRev_orientMir_180.png"" style= ""width:200px""alt=""img"">
                            </div>
                        </div>",0.7175,"",0,"",NA,"","images/map23_RdGy_scaleRev_orientMir_180.png","fearful",1,23,23,"RdGy","orientMir","scaleRev","180",NA,NA
"","","","","","html-slider-response",122,311899,"0.0-118.0","2yanp35qk9",7,NA,"<div style=""width:500px;"">
                            <p style=""font-size:50px; font-weight:bold;""
                            >fearful</p>
                            <div style=""width:240px; margin: auto;"">
                                <img src=""images/map15_PiYG_scaleRev_orientMir_180.png"" style= ""width:200px""alt=""img"">
                            </div>
                        </div>",0.575,"",0,"",NA,"","images/map15_PiYG_scaleRev_orientMir_180.png","fearful",1,15,15,"PiYG","orientMir","scaleRev","180",NA,NA
"","","","","","html-slider-response",123,313499,"0.0-119.0","2yanp35qk9",7,NA,"<div style=""width:500px;"">
                            <p style=""font-size:50px; font-weight:bold;""
                            >fearful</p>
                            <div style=""width:240px; margin: auto;"">
                                <img src=""images/map27_berlin_scaleDef_orientMir_090.png"" style= ""width:200px""alt=""img"">
                            </div>
                        </div>",0.6675,"",0,"",NA,"","images/map27_berlin_scaleDef_orientMir_090.png","fearful",1,27,27,"berlin","orientMir","scaleDef","090",NA,NA
"","","","","","html-slider-response",124,315299,"0.0-120.0","2yanp35qk9",7,NA,"<div style=""width:500px;"">
                            <p style=""font-size:50px; font-weight:bold;""
                            >fearful</p>
                            <div style=""width:240px; margin: auto;"">
                                <img src=""images/map10_Oranges_scaleRev_orientDef_180.png"" style= ""width:200px""alt=""img"">
                            </div>
                        </div>",0.8,"",0,"",NA,"","images/map10_Oranges_scaleRev_orientDef_180.png","fearful",1,10,10,"Oranges","orientDef","scaleRev","180",NA,NA
"","","","","","html-slider-response",125,317166,"0.0-121.0","2yanp35qk9",7,NA,"<div style=""width:500px;"">
                            <p style=""font-size:50px; font-weight:bold;""
                            >fearful</p>
                            <div style=""width:240px; margin: auto;"">
                                <img src=""images/map27_seismic_scaleDef_orientDef_270.png"" style= ""width:200px""alt=""img"">
                            </div>
                        </div>",0.91,"",0,"",NA,"","images/map27_seismic_scaleDef_orientDef_270.png","fearful",1,27,27,"seismic","orientDef","scaleDef","270",NA,NA
"","","","","","html-slider-response",126,319614,"0.0-122.0","2yanp35qk9",7,NA,"<div style=""width:500px;"">
                            <p style=""font-size:50px; font-weight:bold;""
                            >fearful</p>
                            <div style=""width:240px; margin: auto;"">
                                <img src=""images/map10_Oranges_scaleDef_orientDef_090.png"" style= ""width:200px""alt=""img"">
                            </div>
                        </div>",0.9175,"",0,"",NA,"","images/map10_Oranges_scaleDef_orientDef_090.png","fearful",1,10,10,"Oranges","orientDef","scaleDef","090",NA,NA
"","","","","","html-slider-response",127,321831,"0.0-123.0","2yanp35qk9",7,NA,"<div style=""width:500px;"">
                            <p style=""font-size:50px; font-weight:bold;""
                            >fearful</p>
                            <div style=""width:240px; margin: auto;"">
                                <img src=""images/map13_GnBu_scaleRev_orientDef_180.png"" style= ""width:200px""alt=""img"">
                            </div>
                        </div>",0.55,"",0,"",NA,"","images/map13_GnBu_scaleRev_orientDef_180.png","fearful",1,13,13,"GnBu","orientDef","scaleRev","180",NA,NA
"","","","","","html-slider-response",128,323682,"0.0-124.0","2yanp35qk9",7,NA,"<div style=""width:500px;"">
                            <p style=""font-size:50px; font-weight:bold;""
                            >fearful</p>
                            <div style=""width:240px; margin: auto;"">
                                <img src=""images/map27_coolwarm_scaleRev_orientDef_000.png"" style= ""width:200px""alt=""img"">
                            </div>
                        </div>",0.9625,"",0,"",NA,"","images/map27_coolwarm_scaleRev_orientDef_000.png","fearful",1,27,27,"coolwarm","orientDef","scaleRev","000",NA,NA
"","","","","","html-slider-response",129,325949,"0.0-125.0","2yanp35qk9",7,NA,"<div style=""width:500px;"">
                            <p style=""font-size:50px; font-weight:bold;""
                            >fearful</p>
                            <div style=""width:240px; margin: auto;"">
                                <img src=""images/map02_turbo_scaleDef_orientMir_090.png"" style= ""width:200px""alt=""img"">
                            </div>
                        </div>",0.935,"",0,"",NA,"","images/map02_turbo_scaleDef_orientMir_090.png","fearful",1,2,2,"turbo","orientMir","scaleDef","090",NA,NA
"","","","","","html-slider-response",130,328114,"0.0-126.0","2yanp35qk9",7,NA,"<div style=""width:500px;"">
                            <p style=""font-size:50px; font-weight:bold;""
                            >fearful</p>
                            <div style=""width:240px; margin: auto;"">
                                <img src=""images/map12_OrRd_scaleRev_orientDef_180.png"" style= ""width:200px""alt=""img"">
                            </div>
                        </div>",0.985,"",0,"",NA,"","images/map12_OrRd_scaleRev_orientDef_180.png","fearful",1,12,12,"OrRd","orientDef","scaleRev","180",NA,NA
"","","","","","html-slider-response",131,330766,"0.0-127.0","2yanp35qk9",7,NA,"<div style=""width:500px;"">
                            <p style=""font-size:50px; font-weight:bold;""
                            >fearful</p>
                            <div style=""width:240px; margin: auto;"">
                                <img src=""images/map12_BuPu_scaleDef_orientMir_270.png"" style= ""width:200px""alt=""img"">
                            </div>
                        </div>",0.705,"",0,"",NA,"","images/map12_BuPu_scaleDef_orientMir_270.png","fearful",1,12,12,"BuPu","orientMir","scaleDef","270",NA,NA
"","","","","","html-slider-response",132,332466,"0.0-128.0","2yanp35qk9",7,NA,"<div style=""width:500px;"">
                            <p style=""font-size:50px; font-weight:bold;""
                            >fearful</p>
                            <div style=""width:240px; margin: auto;"">
                                <img src=""images/map07_Purples_scaleRev_orientMir_000.png"" style= ""width:200px""alt=""img"">
                            </div>
                        </div>",0.795,"",0,"",NA,"","images/map07_Purples_scaleRev_orientMir_000.png","fearful",1,7,7,"Purples","orientMir","scaleRev","000",NA,NA
"","","","","","html-slider-response",133,334632,"0.0-129.0","2yanp35qk9",7,NA,"<div style=""width:500px;"">
                            <p style=""font-size:50px; font-weight:bold;""
                            >fearful</p>
                            <div style=""width:240px; margin: auto;"">
                                <img src=""images/map12_YlOrRd_scaleRev_orientDef_000.png"" style= ""width:200px""alt=""img"">
                            </div>
                        </div>",0.9025,"",0,"",NA,"","images/map12_YlOrRd_scaleRev_orientDef_000.png","fearful",1,12,12,"YlOrRd","orientDef","scaleRev","000",NA,NA
"","","","","","html-slider-response",134,336599,"0.0-130.0","2yanp35qk9",7,NA,"<div style=""width:500px;"">
                            <p style=""font-size:50px; font-weight:bold;""
                            >fearful</p>
                            <div style=""width:240px; margin: auto;"">
                                <img src=""images/map27_bwr_scaleRev_orientDef_180.png"" style= ""width:200px""alt=""img"">
                            </div>
                        </div>",0.8475,"",0,"",NA,"","images/map27_bwr_scaleRev_orientDef_180.png","fearful",1,27,27,"bwr","orientDef","scaleRev","180",NA,NA
"","","","","","html-slider-response",135,338097,"0.0-131.0","2yanp35qk9",7,NA,"<div style=""width:500px;"">
                            <p style=""font-size:50px; font-weight:bold;""
                            >fearful</p>
                            <div style=""width:240px; margin: auto;"">
                                <img src=""images/map07_Blues_scaleRev_orientMir_180.png"" style= ""width:200px""alt=""img"">
                            </div>
                        </div>",0.575,"",0,"",NA,"","images/map07_Blues_scaleRev_orientMir_180.png","fearful",1,7,7,"Blues","orientMir","scaleRev","180",NA,NA
"","","","","","html-slider-response",136,340166,"0.0-132.0","2yanp35qk9",7,NA,"<div style=""width:500px;"">
                            <p style=""font-size:50px; font-weight:bold;""
                            >fearful</p>
                            <div style=""width:240px; margin: auto;"">
                                <img src=""images/map10_Reds_scaleRev_orientMir_000.png"" style= ""width:200px""alt=""img"">
                            </div>
                        </div>",0.9375,"",0,"",NA,"","images/map10_Reds_scaleRev_orientMir_000.png","fearful",1,10,10,"Reds","orientMir","scaleRev","000",NA,NA
"","","","","","html-slider-response",137,341932,"0.0-133.0","2yanp35qk9",7,NA,"<div style=""width:500px;"">
                            <p style=""font-size:50px; font-weight:bold;""
                            >fearful</p>
                            <div style=""width:240px; margin: auto;"">
                                <img src=""images/map26_RdYlBu_scaleRev_orientDef_180.png"" style= ""width:200px""alt=""img"">
                            </div>
                        </div>",0.9625,"",0,"",NA,"","images/map26_RdYlBu_scaleRev_orientDef_180.png","fearful",1,26,26,"RdYlBu","orientDef","scaleRev","180",NA,NA
"","","","","","html-slider-response",138,345132,"0.0-134.0","2yanp35qk9",7,NA,"<div style=""width:500px;"">
                            <p style=""font-size:50px; font-weight:bold;""
                            >fearful</p>
                            <div style=""width:240px; margin: auto;"">
                                <img src=""images/map12_PuRd_scaleDef_orientDef_270.png"" style= ""width:200px""alt=""img"">
                            </div>
                        </div>",0.64,"",0,"",NA,"","images/map12_PuRd_scaleDef_orientDef_270.png","fearful",1,12,12,"PuRd","orientDef","scaleDef","270",NA,NA
"","","","","","html-slider-response",139,347247,"0.0-135.0","2yanp35qk9",7,NA,"<div style=""width:500px;"">
                            <p style=""font-size:50px; font-weight:bold;""
                            >fearful</p>
                            <div style=""width:240px; margin: auto;"">
                                <img src=""images/map27_seismic_scaleRev_orientMir_000.png"" style= ""width:200px""alt=""img"">
                            </div>
                        </div>",0.895,"",0,"",NA,"","images/map27_seismic_scaleRev_orientMir_000.png","fearful",1,27,27,"seismic","orientMir","scaleRev","000",NA,NA
"","","","","","html-slider-response",140,348848,"0.0-136.0","2yanp35qk9",7,NA,"<div style=""width:500px;"">
                            <p style=""font-size:50px; font-weight:bold;""
                            >fearful</p>
                            <div style=""width:240px; margin: auto;"">
                                <img src=""images/map07_Blues_scaleDef_orientMir_090.png"" style= ""width:200px""alt=""img"">
                            </div>
                        </div>",0.6775,"",0,"",NA,"","images/map07_Blues_scaleDef_orientMir_090.png","fearful",1,7,7,"Blues","orientMir","scaleDef","090",NA,NA
"","","","","","html-button-response",141,350621,"0.0-137.0","2yanp35qk9",7,1271,"<p>You are doing great!<br></br> You are halway done with the current block. When you are ready to continue, click the 'Continue' button.</p>",0.5,"",NA,"",NA,"","","",NA,NA,NA,"","","","",NA,NA
"","","","","","html-slider-response",142,353215,"0.0-138.0","2yanp35qk9",7,NA,"<div style=""width:500px;"">
                            <p style=""font-size:50px; font-weight:bold;""
                            >fearful</p>
                            <div style=""width:240px; margin: auto;"">
                                <img src=""images/map26_RdYlGn_scaleDef_orientDef_270.png"" style= ""width:200px""alt=""img"">
                            </div>
                        </div>",0.7575,"",0,"",NA,"","images/map26_RdYlGn_scaleDef_orientDef_270.png","fearful",1,26,26,"RdYlGn","orientDef","scaleDef","270",NA,NA
"","","","","","html-slider-response",143,354747,"0.0-139.0","2yanp35qk9",7,NA,"<div style=""width:500px;"">
                            <p style=""font-size:50px; font-weight:bold;""
                            >fearful</p>
                            <div style=""width:240px; margin: auto;"">
                                <img src=""images/map23_PuOr_scaleRev_orientMir_000.png"" style= ""width:200px""alt=""img"">
                            </div>
                        </div>",0.8,"",0,"",NA,"","images/map23_PuOr_scaleRev_orientMir_000.png","fearful",1,23,23,"PuOr","orientMir","scaleRev","000",NA,NA
"","","","","","html-slider-response",144,356898,"0.0-140.0","2yanp35qk9",7,NA,"<div style=""width:500px;"">
                            <p style=""font-size:50px; font-weight:bold;""
                            >fearful</p>
                            <div style=""width:240px; margin: auto;"">
                                <img src=""images/map13_PuBu_scaleRev_orientMir_000.png"" style= ""width:200px""alt=""img"">
                            </div>
                        </div>",0.5675,"",0,"",NA,"","images/map13_PuBu_scaleRev_orientMir_000.png","fearful",1,13,13,"PuBu","orientMir","scaleRev","000",NA,NA
"","","","","","html-slider-response",145,358763,"0.0-141.0","2yanp35qk9",7,NA,"<div style=""width:500px;"">
                            <p style=""font-size:50px; font-weight:bold;""
                            >fearful</p>
                            <div style=""width:240px; margin: auto;"">
                                <img src=""images/map02_gist_earth_scaleRev_orientMir_000.png"" style= ""width:200px""alt=""img"">
                            </div>
                        </div>",0.435,"",0,"",NA,"","images/map02_gist_earth_scaleRev_orientMir_000.png","fearful",1,2,2,"gist","scaleRev","earth","orientMir",NA,NA
"","","","","","html-slider-response",146,360765,"0.0-142.0","2yanp35qk9",7,NA,"<div style=""width:500px;"">
                            <p style=""font-size:50px; font-weight:bold;""
                            >fearful</p>
                            <div style=""width:240px; margin: auto;"">
                                <img src=""images/map05_cividis_scaleDef_orientMir_270.png"" style= ""width:200px""alt=""img"">
                            </div>
                        </div>",0.365,"",0,"",NA,"","images/map05_cividis_scaleDef_orientMir_270.png","fearful",1,5,5,"cividis","orientMir","scaleDef","270",NA,NA
"","","","","","html-slider-response",147,362866,"0.0-143.0","2yanp35qk9",7,NA,"<div style=""width:500px;"">
                            <p style=""font-size:50px; font-weight:bold;""
                            >fearful</p>
                            <div style=""width:240px; margin: auto;"">
                                <img src=""images/map12_PuRd_scaleRev_orientMir_000.png"" style= ""width:200px""alt=""img"">
                            </div>
                        </div>",0.63,"",0,"",NA,"","images/map12_PuRd_scaleRev_orientMir_000.png","fearful",1,12,12,"PuRd","orientMir","scaleRev","000",NA,NA
"","","","","","html-slider-response",148,364580,"0.0-144.0","2yanp35qk9",7,NA,"<div style=""width:500px;"">
                            <p style=""font-size:50px; font-weight:bold;""
                            >fearful</p>
                            <div style=""width:240px; margin: auto;"">
                                <img src=""images/map02_vanimo_scaleRev_orientDef_180.png"" style= ""width:200px""alt=""img"">
                            </div>
                        </div>",0.6025,"",0,"",NA,"","images/map02_vanimo_scaleRev_orientDef_180.png","fearful",1,2,2,"vanimo","orientDef","scaleRev","180",NA,NA
"","","","","","html-slider-response",149,366516,"0.0-145.0","2yanp35qk9",7,NA,"<div style=""width:500px;"">
                            <p style=""font-size:50px; font-weight:bold;""
                            >fearful</p>
                            <div style=""width:240px; margin: auto;"">
                                <img src=""images/map27_berlin_scaleRev_orientMir_180.png"" style= ""width:200px""alt=""img"">
                            </div>
                        </div>",0.855,"",0,"",NA,"","images/map27_berlin_scaleRev_orientMir_180.png","fearful",1,27,27,"berlin","orientMir","scaleRev","180",NA,NA
"","","","","","html-slider-response",150,371015,"0.0-146.0","2yanp35qk9",7,NA,"<div style=""width:500px;"">
                            <p style=""font-size:50px; font-weight:bold;""
                            >fearful</p>
                            <div style=""width:240px; margin: auto;"">
                                <img src=""images/map23_BrBG_scaleRev_orientDef_180.png"" style= ""width:200px""alt=""img"">
                            </div>
                        </div>",0.375,"",0,"",NA,"","images/map23_BrBG_scaleRev_orientDef_180.png","fearful",1,23,23,"BrBG","orientDef","scaleRev","180",NA,NA
"","","","","","html-slider-response",151,372816,"0.0-147.0","2yanp35qk9",7,NA,"<div style=""width:500px;"">
                            <p style=""font-size:50px; font-weight:bold;""
                            >fearful</p>
                            <div style=""width:240px; margin: auto;"">
                                <img src=""images/map05_viridis_scaleRev_orientDef_000.png"" style= ""width:200px""alt=""img"">
                            </div>
                        </div>",0.575,"",0,"",NA,"","images/map05_viridis_scaleRev_orientDef_000.png","fearful",1,5,5,"viridis","orientDef","scaleRev","000",NA,NA
"","","","","","html-slider-response",152,374930,"0.0-148.0","2yanp35qk9",7,NA,"<div style=""width:500px;"">
                            <p style=""font-size:50px; font-weight:bold;""
                            >fearful</p>
                            <div style=""width:240px; margin: auto;"">
                                <img src=""images/map13_PuBu_scaleDef_orientDef_270.png"" style= ""width:200px""alt=""img"">
                            </div>
                        </div>",0.445,"",0,"",NA,"","images/map13_PuBu_scaleDef_orientDef_270.png","fearful",1,13,13,"PuBu","orientDef","scaleDef","270",NA,NA
"","","","","","html-slider-response",153,376615,"0.0-149.0","2yanp35qk9",7,NA,"<div style=""width:500px;"">
                            <p style=""font-size:50px; font-weight:bold;""
                            >fearful</p>
                            <div style=""width:240px; margin: auto;"">
                                <img src=""images/map26_Spectral_scaleRev_orientMir_180.png"" style= ""width:200px""alt=""img"">
                            </div>
                        </div>",0.6575,"",0,"",NA,"","images/map26_Spectral_scaleRev_orientMir_180.png","fearful",1,26,26,"Spectral","orientMir","scaleRev","180",NA,NA
"","","","","","html-slider-response",154,378265,"0.0-150.0","2yanp35qk9",7,NA,"<div style=""width:500px;"">
                            <p style=""font-size:50px; font-weight:bold;""
                            >fearful</p>
                            <div style=""width:240px; margin: auto;"">
                                <img src=""images/map05_inferno_scaleDef_orientDef_270.png"" style= ""width:200px""alt=""img"">
                            </div>
                        </div>",0.6025,"",0,"",NA,"","images/map05_inferno_scaleDef_orientDef_270.png","fearful",1,5,5,"inferno","orientDef","scaleDef","270",NA,NA
"","","","","","html-slider-response",155,379765,"0.0-151.0","2yanp35qk9",7,NA,"<div style=""width:500px;"">
                            <p style=""font-size:50px; font-weight:bold;""
                            >fearful</p>
                            <div style=""width:240px; margin: auto;"">
                                <img src=""images/map27_bwr_scaleDef_orientDef_090.png"" style= ""width:200px""alt=""img"">
                            </div>
                        </div>",0.595,"",0,"",NA,"","images/map27_bwr_scaleDef_orientDef_090.png","fearful",1,27,27,"bwr","orientDef","scaleDef","090",NA,NA
"","","","","","html-slider-response",156,386498,"0.0-152.0","2yanp35qk9",7,NA,"<div style=""width:500px;"">
                            <p style=""font-size:50px; font-weight:bold;""
                            >fearful</p>
                            <div style=""width:240px; margin: auto;"">
                                <img src=""images/map23_PRGn_scaleRev_orientDef_000.png"" style= ""width:200px""alt=""img"">
                            </div>
                        </div>",0.45,"",0,"",NA,"","images/map23_PRGn_scaleRev_orientDef_000.png","fearful",1,23,23,"PRGn","orientDef","scaleRev","000",NA,NA
"","","","","","html-slider-response",157,387963,"0.0-153.0","2yanp35qk9",7,NA,"<div style=""width:500px;"">
                            <p style=""font-size:50px; font-weight:bold;""
                            >fearful</p>
                            <div style=""width:240px; margin: auto;"">
                                <img src=""images/map27_managua_scaleDef_orientMir_270.png"" style= ""width:200px""alt=""img"">
                            </div>
                        </div>",0.675,"",0,"",NA,"","images/map27_managua_scaleDef_orientMir_270.png","fearful",1,27,27,"managua","orientMir","scaleDef","270",NA,NA
"","","","","","html-slider-response",158,393148,"0.0-154.0","2yanp35qk9",7,NA,"<div style=""width:500px;"">
                            <p style=""font-size:50px; font-weight:bold;""
                            >fearful</p>
                            <div style=""width:240px; margin: auto;"">
                                <img src=""images/map13_BuPu_scaleRev_orientDef_000.png"" style= ""width:200px""alt=""img"">
                            </div>
                        </div>",0.615,"",0,"",NA,"","images/map13_BuPu_scaleRev_orientDef_000.png","fearful",1,13,13,"BuPu","orientDef","scaleRev","000",NA,NA
"","","","","","html-slider-response",159,394730,"0.0-155.0","2yanp35qk9",7,NA,"<div style=""width:500px;"">
                            <p style=""font-size:50px; font-weight:bold;""
                            >fearful</p>
                            <div style=""width:240px; margin: auto;"">
                                <img src=""images/map23_RdBu_scaleDef_orientMir_270.png"" style= ""width:200px""alt=""img"">
                            </div>
                        </div>",0.59,"",0,"",NA,"","images/map23_RdBu_scaleDef_orientMir_270.png","fearful",1,23,23,"RdBu","orientMir","scaleDef","270",NA,NA
"","","","","","html-slider-response",160,401398,"0.0-156.0","2yanp35qk9",7,NA,"<div style=""width:500px;"">
                            <p style=""font-size:50px; font-weight:bold;""
                            >fearful</p>
                            <div style=""width:240px; margin: auto;"">
                                <img src=""images/map26_Spectral_scaleDef_orientMir_090.png"" style= ""width:200px""alt=""img"">
                            </div>
                        </div>",0.59,"",0,"",NA,"","images/map26_Spectral_scaleDef_orientMir_090.png","fearful",1,26,26,"Spectral","orientMir","scaleDef","090",NA,NA
"","","","","","html-slider-response",161,404696,"0.0-157.0","2yanp35qk9",7,NA,"<div style=""width:500px;"">
                            <p style=""font-size:50px; font-weight:bold;""
                            >fearful</p>
                            <div style=""width:240px; margin: auto;"">
                                <img src=""images/map10_YlOrRd_scaleDef_orientMir_270.png"" style= ""width:200px""alt=""img"">
                            </div>
                        </div>",0.62,"",0,"",NA,"","images/map10_YlOrRd_scaleDef_orientMir_270.png","fearful",1,10,10,"YlOrRd","orientMir","scaleDef","270",NA,NA
"","","","","","html-slider-response",162,406146,"0.0-158.0","2yanp35qk9",7,NA,"<div style=""width:500px;"">
                            <p style=""font-size:50px; font-weight:bold;""
                            >fearful</p>
                            <div style=""width:240px; margin: auto;"">
                                <img src=""images/map13_GnBu_scaleDef_orientDef_090.png"" style= ""width:200px""alt=""img"">
                            </div>
                        </div>",0.485,"",0,"",NA,"","images/map13_GnBu_scaleDef_orientDef_090.png","fearful",1,13,13,"GnBu","orientDef","scaleDef","090",NA,NA
"","","","","","html-slider-response",163,407863,"0.0-159.0","2yanp35qk9",7,NA,"<div style=""width:500px;"">
