"success","timeout","failed_images","failed_audio","failed_video","trial_type","trial_index","time_elapsed","internal_node_id","subject_id","condition_num","rt","stimulus","response","question_order","slider_start","practiceTrial","practiceTrialNum","correct","image_path","concept","repetition","map_id","map_num","scale_name","orientation_code","mapping_code","rotation_code","ishihara_plate","correct_response"
"true","false","[]","[]","[]","preload",0,361,"0.0-0.0","tshvm1e447",20,NA,"",NA,"",NA,"",NA,"","","",NA,NA,NA,"","","","",NA,NA
"","","","","","html-button-response",1,3898,"0.0-1.0","tshvm1e447",20,3536,"Welcome to our experiment!<p>At the bottom of this screen, you will see a button that says ""Begin Experiment"".<br>Please only click that button when you are ready to complete the 30 minute experiment in one sitting.</p><p> Once you click that button, it will not be possible to restart the experiment.",0.5,"",NA,"",NA,"","","",NA,NA,NA,"","","","",NA,NA
"true","","","","","fullscreen",2,6432,"0.0-2.0","tshvm1e447",20,1531,"",NA,"",NA,"",NA,"","","",NA,NA,NA,"","","","",NA,NA
"","","","","","survey-multi-select",3,9984,"0.0-3.0","tshvm1e447",20,3547,"",NA,"[0]",NA,"",NA,"","","",NA,NA,NA,"","","","",NA,NA
"","","","","","html-button-response",4,12297,"0.0-4.0","tshvm1e447",20,2311,"Welcome! <p> This experiment involves two parts: demographic information, followed by the experimental task.<p> It will take about 30 minutes to complete both parts.",0.5,"",NA,"",NA,"","","",NA,NA,NA,"","","","",NA,NA
"","","","","","survey-text",5,21196,"0.0-5.0","tshvm1e447",20,8887,"",NA,"",NA,"",NA,"","","",NA,NA,NA,"","","","",NA,NA
"","","","","","html-slider-response",6,81745,"0.0-6.0","tshvm1e447",20,60546,"<div style='text-align:left; font-size:20px; line-height:25px; width: 1000px;'>
                                During this experiment you will be asked to rate how much you associate maps with                    different concepts.<br> Below, you can see some examples of the maps you will be asked to rate. Above the maps
                    is the list of concepts.<br>You will be asked                    to rate how much you associate each map with each concept on a scale from 'not at all' to 'very much' like the
                    one below. <br><br>
                    Now, please look at the list of concepts and maps. For each concept, think about the map you associate 'very
                    much' with the concept.<br>                     When you see that map during the experiment, please rate it near the 'very much' endpoint of the
                    scale.<br>Now, please think about which map you associate 'not at all'                     with each concept. When you see that map during the experiment, please rate it near the 'not at all' endpoint
                    of the scale.<br>
                    Please use the full range of the scale. That is, if a map is somewhat associated with the concept, you would
                    click partway between the middle point and right side of the scale.                    You will be asked to rate each map for a given concept before moving on to the next concept.<br>Press the
                    'Continue' button for instructions on how to use the slider.                    <br>
                </div>

                <div style=""width: 500px; margin: 0 auto;"">
                    <!-- Centered text paragraphs -->
                    <div style=""text-align: center; width: 500px;"">
                        <p style=""font-size:25px; line-height:15px;"">
                            disgust&nbsp;&nbsp;&nbsp;&nbsp;
                            sad&nbsp;&nbsp;&nbsp;&nbsp;
                            happy&nbsp;&nbsp;&nbsp;&nbsp;
                            angry&nbsp;&nbsp;&nbsp;&nbsp;
                            fearful
                        </p>
                        <!-- <p style=""font-size:20px; line-height:15px;"">sad</p>
                        <p style=""font-size:20px;line-height:15px;"">happy</p>
                        <p style=""font-size:20px;line-height:15px;"">angry</p>
                        <p style=""font-size:20px;line-height:15px;"">fearful</p> -->
                    </div>
            

                    <!-- Grid section -->
                   <div style=""display: flex; justify-content: center; padding-top: 15px;"">
                    <div style=""display: grid; grid-template-columns: repeat(10, 55px); grid-gap: 5px; width: auto;"">
                        <img src=""images/map13_YlOrRd_scaleDef_orientMir_000.png"" alt=""map"" style=""width: 100%;""><img src=""images/map05_berlin_scaleRev_orientDef_270.png"" alt=""map"" style=""width: 100%;""><img src=""images/map26_PiYG_scaleDef_orientDef_180.png"" alt=""map"" style=""width: 100%;""><img src=""images/map13_OrRd_scaleRev_orientMir_270.png"" alt=""map"" style=""width: 100%;""><img src=""images/map26_BrBG_scaleRev_orientMir_270.png"" alt=""map"" style=""width: 100%;""><img src=""images/map02_coolwarm_scaleDef_orientMir_000.png"" alt=""map"" style=""width: 100%;""><img src=""images/map10_magma_scaleDef_orientDef_180.png"" alt=""map"" style=""width: 100%;""><img src=""images/map27_RdGy_scaleRev_orientDef_270.png"" alt=""map"" style=""width: 100%;""><img src=""images/map23_BuGn_scaleRev_orientMir_270.png"" alt=""map"" style=""width: 100%;""><img src=""images/map07_viridis_scaleDef_orientMir_000.png"" alt=""map"" style=""width: 100%;""><img src=""images/map27_PuOr_scaleRev_orientDef_090.png"" alt=""map"" style=""width: 100%;""><img src=""images/map15_BuPu_scaleDef_orientMir_000.png"" alt=""map"" style=""width: 100%;""><img src=""images/map15_PuRd_scaleDef_orientDef_000.png"" alt=""map"" style=""width: 100%;""><img src=""images/map07_turbo_scaleDef_orientDef_180.png"" alt=""map"" style=""width: 100%;""><img src=""images/map27_RdYlBu_scaleRev_orientMir_270.png"" alt=""map"" style=""width: 100%;""><img src=""images/map23_PuBuGn_scaleRev_orientMir_090.png"" alt=""map"" style=""width: 100%;""><img src=""images/map10_inferno_scaleDef_orientDef_000.png"" alt=""map"" style=""width: 100%;""><img src=""images/map02_bwr_scaleDef_orientMir_180.png"" alt=""map"" style=""width: 100%;""><img src=""images/map05_managua_scaleDef_orientMir_000.png"" alt=""map"" style=""width: 100%;""><img src=""images/map12_Greens_scaleDef_orientMir_000.png"" alt=""map"" style=""width: 100%;""><img src=""images/map26_PRGn_scaleRev_orientMir_090.png"" alt=""map"" style=""width: 100%;""><img src=""images/map02_RdYlGn_scaleRev_orientDef_090.png"" alt=""map"" style=""width: 100%;""><img src=""images/map07_gist_earth_scaleDef_orientDef_000.png"" alt=""map"" style=""width: 100%;""><img src=""images/map13_YlOrBr_scaleRev_orientDef_270.png"" alt=""map"" style=""width: 100%;""><img src=""images/map26_YlGn_scaleDef_orientDef_000.png"" alt=""map"" style=""width: 100%;""><img src=""images/map10_Greys_scaleRev_orientMir_270.png"" alt=""map"" style=""width: 100%;""><img src=""images/map15_RdPu_scaleDef_orientDef_180.png"" alt=""map"" style=""width: 100%;""><img src=""images/map12_Purples_scaleRev_orientDef_090.png"" alt=""map"" style=""width: 100%;""><img src=""images/map07_plasma_scaleDef_orientMir_180.png"" alt=""map"" style=""width: 100%;""><img src=""images/map23_YlGnBu_scaleRev_orientDef_270.png"" alt=""map"" style=""width: 100%;""><img src=""images/map13_Reds_scaleRev_orientDef_090.png"" alt=""map"" style=""width: 100%;""><img src=""images/map12_Oranges_scaleRev_orientMir_270.png"" alt=""map"" style=""width: 100%;""><img src=""images/map05_vanimo_scaleDef_orientMir_180.png"" alt=""map"" style=""width: 100%;""><img src=""images/map10_cividis_scaleRev_orientMir_090.png"" alt=""map"" style=""width: 100%;""><img src=""images/map15_GnBu_scaleDef_orientMir_180.png"" alt=""map"" style=""width: 100%;""><img src=""images/map23_PuBu_scaleDef_orientDef_000.png"" alt=""map"" style=""width: 100%;""><img src=""images/map27_RdBu_scaleRev_orientMir_090.png"" alt=""map"" style=""width: 100%;""><img src=""images/map02_Spectral_scaleDef_orientDef_180.png"" alt=""map"" style=""width: 100%;""><img src=""images/map12_Blues_scaleRev_orientDef_270.png"" alt=""map"" style=""width: 100%;""><img src=""images/map05_seismic_scaleRev_orientDef_090.png"" alt=""map"" style=""width: 100%;"">
                    </div>
                </div>

                    <!-- Clear floats -->
                    <div style=""clear: both;""></div>
                </div>
                            ",NA,"",0,"true",NA,"","","",NA,NA,NA,"","","","",NA,NA
"","","","","","html-button-response",7,91344,"0.0-7.0","tshvm1e447",20,9598,"<div style=""width:800px;""><p style=""text-align:left"">To move the slider, click and drag your cursor to the location of the scale where you would like to make your rating and then let go. When you let go of the slider, your response will be recorded and the next trial will begin. <br>
                    We are interested in your initial impressions of each map for the given concept, so please go with your first intuition. <br>
                    Before you begin the experiment, there will be four training trials for you to practice using the scale. <br>
                     When you are ready to start the training trials, please click ""Continue"".</p><br></div>",0.5,"",NA,"",NA,"","","",NA,NA,NA,"","","","",NA,NA
"","","","","","html-slider-response",8,94173,"0.0-8.0-0.0","tshvm1e447",20,NA,"<div style=""width:500px;"">
                                    <p style=""font-size:25px;"">Please move the slider all the way to the <br> right endpoint of the scale</p>

                                    </div>
                                </div>",1,"",0,"true",0,"true","","",NA,NA,NA,"","","","",NA,NA
"","","","","","html-button-response",9,95776,"0.0-8.0-1.0","tshvm1e447",20,1102,"<p align='center'><b>Good job!</b> Click on 'Continue' to proceed.</p>",0.5,"",NA,"",NA,"","","",NA,NA,NA,"","","","",NA,NA
"","","","","","html-slider-response",10,97672,"0.0-9.0-0.0","tshvm1e447",20,NA,"<div style=""width:500px;"">
                                    <p style=""font-size:25px;"">Please move the slider all the way to the <br> left endpoint of the scale</p>

                                    </div>
                                </div>",0,"",0,"true",1,"true","","",NA,NA,NA,"","","","",NA,NA
"","","","","","html-button-response",11,99011,"0.0-9.0-1.0","tshvm1e447",20,836,"<p align='center'><b>Good job!</b> Click on 'Continue' to proceed.</p>",0.5,"",NA,"",NA,"","","",NA,NA,NA,"","","","",NA,NA
"","","","","","html-slider-response",12,103038,"0.0-10.0-0.0","tshvm1e447",20,NA,"<div style=""width:500px;"">
                                    <p style=""font-size:25px;"">Please move the slider halfway between the center and right endpoint of the scale</p>

                                    </div>
                                </div>",0.755,"",0,"true",2,"true","","",NA,NA,NA,"","","","",NA,NA
"","","","","","html-button-response",13,104310,"0.0-10.0-1.0","tshvm1e447",20,769,"<p align='center'><b>Good job!</b> Click on 'Continue' to proceed.</p>",0.5,"",NA,"",NA,"","","",NA,NA,NA,"","","","",NA,NA
"","","","","","html-slider-response",14,107456,"0.0-11.0-0.0","tshvm1e447",20,NA,"<div style=""width:500px;"">
                                    <p style=""font-size:25px;"">Please move the slider halfway between the center and left endpoint of the scale</p>

                                    </div>
                                </div>",0.225,"",0,"true",3,"true","","",NA,NA,NA,"","","","",NA,NA
"","","","","","html-button-response",15,108793,"0.0-11.0-1.0","tshvm1e447",20,835,"<p align='center'><b>Good job!</b> Click on 'Continue' to proceed.</p>",0.5,"",NA,"",NA,"","","",NA,NA,NA,"","","","",NA,NA
"","","","","","html-button-response",16,109793,"0.0-12.0","tshvm1e447",20,999,"<p>Great job! You've completed the practice trials. Now you will begin the main task.</p>",0.5,"",NA,"",NA,"","","",NA,NA,NA,"","","","",NA,NA
"","","","","","html-button-response",17,113710,"0.0-13.0","tshvm1e447",20,3916,"<p>In this block of trials, you will be asked to rate how much you associate each map with:</p > <p style = 'font-size:150%; font-weight: bold'>disgust</p><br></br>",0.5,"",NA,"",NA,"","","",NA,NA,NA,"","","","",NA,NA
"","","","","","html-slider-response",18,118872,"0.0-14.0","tshvm1e447",20,NA,"<div style=""width:500px;"">
                            <p style=""font-size:50px; font-weight:bold;""
                            >disgust</p>
                            <div style=""width:240px; margin: auto;"">
                                <img src=""images/map13_Reds_scaleDef_orientDef_000.png"" style= ""width:200px""alt=""img"">
                            </div>
                        </div>",1,"",0,"",NA,"","images/map13_Reds_scaleDef_orientDef_000.png","disgust",1,13,13,"Reds","orientDef","scaleDef","000",NA,NA
"","","","","","html-slider-response",19,124205,"0.0-15.0","tshvm1e447",20,NA,"<div style=""width:500px;"">
                            <p style=""font-size:50px; font-weight:bold;""
                            >disgust</p>
                            <div style=""width:240px; margin: auto;"">
                                <img src=""images/map23_BuGn_scaleDef_orientMir_180.png"" style= ""width:200px""alt=""img"">
                            </div>
                        </div>",0.215,"",0,"",NA,"","images/map23_BuGn_scaleDef_orientMir_180.png","disgust",1,23,23,"BuGn","orientMir","scaleDef","180",NA,NA
"","","","","","html-slider-response",20,126705,"0.0-16.0","tshvm1e447",20,NA,"<div style=""width:500px;"">
                            <p style=""font-size:50px; font-weight:bold;""
                            >disgust</p>
                            <div style=""width:240px; margin: auto;"">
                                <img src=""images/map10_cividis_scaleDef_orientMir_000.png"" style= ""width:200px""alt=""img"">
                            </div>
                        </div>",0.19,"",0,"",NA,"","images/map10_cividis_scaleDef_orientMir_000.png","disgust",1,10,10,"cividis","orientMir","scaleDef","000",NA,NA
"","","","","","html-slider-response",21,129437,"0.0-17.0","tshvm1e447",20,NA,"<div style=""width:500px;"">
                            <p style=""font-size:50px; font-weight:bold;""
                            >disgust</p>
                            <div style=""width:240px; margin: auto;"">
                                <img src=""images/map10_inferno_scaleRev_orientDef_090.png"" style= ""width:200px""alt=""img"">
                            </div>
                        </div>",0.17,"",0,"",NA,"","images/map10_inferno_scaleRev_orientDef_090.png","disgust",1,10,10,"inferno","orientDef","scaleRev","090",NA,NA
"","","","","","html-slider-response",22,131787,"0.0-18.0","tshvm1e447",20,NA,"<div style=""width:500px;"">
                            <p style=""font-size:50px; font-weight:bold;""
                            >disgust</p>
                            <div style=""width:240px; margin: auto;"">
                                <img src=""images/map07_turbo_scaleRev_orientDef_270.png"" style= ""width:200px""alt=""img"">
                            </div>
                        </div>",0.6175,"",0,"",NA,"","images/map07_turbo_scaleRev_orientDef_270.png","disgust",1,7,7,"turbo","orientDef","scaleRev","270",NA,NA
"","","","","","html-slider-response",23,134121,"0.0-19.0","tshvm1e447",20,NA,"<div style=""width:500px;"">
                            <p style=""font-size:50px; font-weight:bold;""
                            >disgust</p>
                            <div style=""width:240px; margin: auto;"">
                                <img src=""images/map13_OrRd_scaleRev_orientMir_270.png"" style= ""width:200px""alt=""img"">
                            </div>
                        </div>",1,"",0,"",NA,"","images/map13_OrRd_scaleRev_orientMir_270.png","disgust",1,13,13,"OrRd","orientMir","scaleRev","270",NA,NA
"","","","","","html-slider-response",24,136038,"0.0-20.0","tshvm1e447",20,NA,"<div style=""width:500px;"">
                            <p style=""font-size:50px; font-weight:bold;""
                            >disgust</p>
                            <div style=""width:240px; margin: auto;"">
                                <img src=""images/map13_Reds_scaleRev_orientDef_090.png"" style= ""width:200px""alt=""img"">
                            </div>
                        </div>",1,"",0,"",NA,"","images/map13_Reds_scaleRev_orientDef_090.png","disgust",1,13,13,"Reds","orientDef","scaleRev","090",NA,NA
"","","","","","html-slider-response",25,138438,"0.0-21.0","tshvm1e447",20,NA,"<div style=""width:500px;"">
                            <p style=""font-size:50px; font-weight:bold;""
                            >disgust</p>
                            <div style=""width:240px; margin: auto;"">
                                <img src=""images/map02_Spectral_scaleDef_orientDef_180.png"" style= ""width:200px""alt=""img"">
                            </div>
                        </div>",0.705,"",0,"",NA,"","images/map02_Spectral_scaleDef_orientDef_180.png","disgust",1,2,2,"Spectral","orientDef","scaleDef","180",NA,NA
"","","","","","html-slider-response",26,140738,"0.0-22.0","tshvm1e447",20,NA,"<div style=""width:500px;"">
                            <p style=""font-size:50px; font-weight:bold;""
                            >disgust</p>
                            <div style=""width:240px; margin: auto;"">
                                <img src=""images/map15_GnBu_scaleDef_orientMir_180.png"" style= ""width:200px""alt=""img"">
                            </div>
                        </div>",0,"",0,"",NA,"","images/map15_GnBu_scaleDef_orientMir_180.png","disgust",1,15,15,"GnBu","orientMir","scaleDef","180",NA,NA
"","","","","","html-slider-response",27,142888,"0.0-23.0","tshvm1e447",20,NA,"<div style=""width:500px;"">
                            <p style=""font-size:50px; font-weight:bold;""
                            >disgust</p>
                            <div style=""width:240px; margin: auto;"">
                                <img src=""images/map23_PuBu_scaleDef_orientDef_000.png"" style= ""width:200px""alt=""img"">
                            </div>
                        </div>",0,"",0,"",NA,"","images/map23_PuBu_scaleDef_orientDef_000.png","disgust",1,23,23,"PuBu","orientDef","scaleDef","000",NA,NA
"","","","","","html-slider-response",28,145689,"0.0-24.0","tshvm1e447",20,NA,"<div style=""width:500px;"">
                            <p style=""font-size:50px; font-weight:bold;""
                            >disgust</p>
                            <div style=""width:240px; margin: auto;"">
                                <img src=""images/map10_Greys_scaleDef_orientMir_180.png"" style= ""width:200px""alt=""img"">
                            </div>
                        </div>",0.8975,"",0,"",NA,"","images/map10_Greys_scaleDef_orientMir_180.png","disgust",1,10,10,"Greys","orientMir","scaleDef","180",NA,NA
"","","","","","html-slider-response",29,147737,"0.0-25.0","tshvm1e447",20,NA,"<div style=""width:500px;"">
                            <p style=""font-size:50px; font-weight:bold;""
                            >disgust</p>
                            <div style=""width:240px; margin: auto;"">
                                <img src=""images/map15_BuPu_scaleDef_orientMir_000.png"" style= ""width:200px""alt=""img"">
                            </div>
                        </div>",0.415,"",0,"",NA,"","images/map15_BuPu_scaleDef_orientMir_000.png","disgust",1,15,15,"BuPu","orientMir","scaleDef","000",NA,NA
"","","","","","html-slider-response",30,150187,"0.0-26.0","tshvm1e447",20,NA,"<div style=""width:500px;"">
                            <p style=""font-size:50px; font-weight:bold;""
                            >disgust</p>
                            <div style=""width:240px; margin: auto;"">
                                <img src=""images/map10_cividis_scaleRev_orientMir_090.png"" style= ""width:200px""alt=""img"">
                            </div>
                        </div>",0.1275,"",0,"",NA,"","images/map10_cividis_scaleRev_orientMir_090.png","disgust",1,10,10,"cividis","orientMir","scaleRev","090",NA,NA
"","","","","","html-slider-response",31,152153,"0.0-27.0","tshvm1e447",20,NA,"<div style=""width:500px;"">
                            <p style=""font-size:50px; font-weight:bold;""
                            >disgust</p>
                            <div style=""width:240px; margin: auto;"">
                                <img src=""images/map27_RdBu_scaleRev_orientMir_090.png"" style= ""width:200px""alt=""img"">
                            </div>
                        </div>",0.6225,"",0,"",NA,"","images/map27_RdBu_scaleRev_orientMir_090.png","disgust",1,27,27,"RdBu","orientMir","scaleRev","090",NA,NA
"","","","","","html-slider-response",32,154154,"0.0-28.0","tshvm1e447",20,NA,"<div style=""width:500px;"">
                            <p style=""font-size:50px; font-weight:bold;""
                            >disgust</p>
                            <div style=""width:240px; margin: auto;"">
                                <img src=""images/map23_PuBuGn_scaleDef_orientMir_000.png"" style= ""width:200px""alt=""img"">
                            </div>
                        </div>",0.0875,"",0,"",NA,"","images/map23_PuBuGn_scaleDef_orientMir_000.png","disgust",1,23,23,"PuBuGn","orientMir","scaleDef","000",NA,NA
"","","","","","html-slider-response",33,156004,"0.0-29.0","tshvm1e447",20,NA,"<div style=""width:500px;"">
                            <p style=""font-size:50px; font-weight:bold;""
                            >disgust</p>
                            <div style=""width:240px; margin: auto;"">
                                <img src=""images/map02_Spectral_scaleRev_orientDef_270.png"" style= ""width:200px""alt=""img"">
                            </div>
                        </div>",0.765,"",0,"",NA,"","images/map02_Spectral_scaleRev_orientDef_270.png","disgust",1,2,2,"Spectral","orientDef","scaleRev","270",NA,NA
"","","","","","html-slider-response",34,157839,"0.0-30.0","tshvm1e447",20,NA,"<div style=""width:500px;"">
                            <p style=""font-size:50px; font-weight:bold;""
                            >disgust</p>
                            <div style=""width:240px; margin: auto;"">
                                <img src=""images/map05_seismic_scaleDef_orientDef_000.png"" style= ""width:200px""alt=""img"">
                            </div>
                        </div>",0.805,"",0,"",NA,"","images/map05_seismic_scaleDef_orientDef_000.png","disgust",1,5,5,"seismic","orientDef","scaleDef","000",NA,NA
"","","","","","html-slider-response",35,159538,"0.0-31.0","tshvm1e447",20,NA,"<div style=""width:500px;"">
                            <p style=""font-size:50px; font-weight:bold;""
                            >disgust</p>
                            <div style=""width:240px; margin: auto;"">
                                <img src=""images/map15_BuPu_scaleRev_orientMir_090.png"" style= ""width:200px""alt=""img"">
                            </div>
                        </div>",0.385,"",0,"",NA,"","images/map15_BuPu_scaleRev_orientMir_090.png","disgust",1,15,15,"BuPu","orientMir","scaleRev","090",NA,NA
"","","","","","html-slider-response",36,161355,"0.0-32.0","tshvm1e447",20,NA,"<div style=""width:500px;"">
                            <p style=""font-size:50px; font-weight:bold;""
                            >disgust</p>
                            <div style=""width:240px; margin: auto;"">
                                <img src=""images/map13_OrRd_scaleDef_orientMir_180.png"" style= ""width:200px""alt=""img"">
                            </div>
                        </div>",1,"",0,"",NA,"","images/map13_OrRd_scaleDef_orientMir_180.png","disgust",1,13,13,"OrRd","orientMir","scaleDef","180",NA,NA
"","","","","","html-slider-response",37,163372,"0.0-33.0","tshvm1e447",20,NA,"<div style=""width:500px;"">
                            <p style=""font-size:50px; font-weight:bold;""
                            >disgust</p>
                            <div style=""width:240px; margin: auto;"">
                                <img src=""images/map02_bwr_scaleRev_orientMir_270.png"" style= ""width:200px""alt=""img"">
                            </div>
                        </div>",0.575,"",0,"",NA,"","images/map02_bwr_scaleRev_orientMir_270.png","disgust",1,2,2,"bwr","orientMir","scaleRev","270",NA,NA
"","","","","","html-slider-response",38,165322,"0.0-34.0","tshvm1e447",20,NA,"<div style=""width:500px;"">
                            <p style=""font-size:50px; font-weight:bold;""
                            >disgust</p>
                            <div style=""width:240px; margin: auto;"">
                                <img src=""images/map27_RdYlBu_scaleRev_orientMir_270.png"" style= ""width:200px""alt=""img"">
                            </div>
                        </div>",0.82,"",0,"",NA,"","images/map27_RdYlBu_scaleRev_orientMir_270.png","disgust",1,27,27,"RdYlBu","orientMir","scaleRev","270",NA,NA
"","","","","","html-slider-response",39,167706,"0.0-35.0","tshvm1e447",20,NA,"<div style=""width:500px;"">
                            <p style=""font-size:50px; font-weight:bold;""
                            >disgust</p>
                            <div style=""width:240px; margin: auto;"">
                                <img src=""images/map12_Blues_scaleRev_orientDef_270.png"" style= ""width:200px""alt=""img"">
                            </div>
                        </div>",0.1575,"",0,"",NA,"","images/map12_Blues_scaleRev_orientDef_270.png","disgust",1,12,12,"Blues","orientDef","scaleRev","270",NA,NA
"","","","","","html-slider-response",40,169606,"0.0-36.0","tshvm1e447",20,NA,"<div style=""width:500px;"">
                            <p style=""font-size:50px; font-weight:bold;""
                            >disgust</p>
                            <div style=""width:240px; margin: auto;"">
                                <img src=""images/map27_RdGy_scaleRev_orientDef_270.png"" style= ""width:200px""alt=""img"">
                            </div>
                        </div>",1,"",0,"",NA,"","images/map27_RdGy_scaleRev_orientDef_270.png","disgust",1,27,27,"RdGy","orientDef","scaleRev","270",NA,NA
"","","","","","html-slider-response",41,171854,"0.0-37.0","tshvm1e447",20,NA,"<div style=""width:500px;"">
                            <p style=""font-size:50px; font-weight:bold;""
                            >disgust</p>
                            <div style=""width:240px; margin: auto;"">
                                <img src=""images/map10_inferno_scaleDef_orientDef_000.png"" style= ""width:200px""alt=""img"">
                            </div>
                        </div>",0,"",0,"",NA,"","images/map10_inferno_scaleDef_orientDef_000.png","disgust",1,10,10,"inferno","orientDef","scaleDef","000",NA,NA
"","","","","","html-slider-response",42,173703,"0.0-38.0","tshvm1e447",20,NA,"<div style=""width:500px;"">
                            <p style=""font-size:50px; font-weight:bold;""
                            >disgust</p>
                            <div style=""width:240px; margin: auto;"">
                                <img src=""images/map07_turbo_scaleDef_orientDef_180.png"" style= ""width:200px""alt=""img"">
                            </div>
                        </div>",0.83,"",0,"",NA,"","images/map07_turbo_scaleDef_orientDef_180.png","disgust",1,7,7,"turbo","orientDef","scaleDef","180",NA,NA
"","","","","","html-slider-response",43,175504,"0.0-39.0","tshvm1e447",20,NA,"<div style=""width:500px;"">
                            <p style=""font-size:50px; font-weight:bold;""
                            >disgust</p>
                            <div style=""width:240px; margin: auto;"">
                                <img src=""images/map27_RdYlBu_scaleDef_orientMir_180.png"" style= ""width:200px""alt=""img"">
                            </div>
                        </div>",0.7275,"",0,"",NA,"","images/map27_RdYlBu_scaleDef_orientMir_180.png","disgust",1,27,27,"RdYlBu","orientMir","scaleDef","180",NA,NA
"","","","","","html-slider-response",44,178103,"0.0-40.0","tshvm1e447",20,NA,"<div style=""width:500px;"">
                            <p style=""font-size:50px; font-weight:bold;""
                            >disgust</p>
                            <div style=""width:240px; margin: auto;"">
                                <img src=""images/map26_BrBG_scaleDef_orientMir_180.png"" style= ""width:200px""alt=""img"">
                            </div>
                        </div>",0.355,"",0,"",NA,"","images/map26_BrBG_scaleDef_orientMir_180.png","disgust",1,26,26,"BrBG","orientMir","scaleDef","180",NA,NA
"","","","","","html-slider-response",45,179769,"0.0-41.0","tshvm1e447",20,NA,"<div style=""width:500px;"">
                            <p style=""font-size:50px; font-weight:bold;""
                            >disgust</p>
                            <div style=""width:240px; margin: auto;"">
                                <img src=""images/map27_RdGy_scaleDef_orientDef_180.png"" style= ""width:200px""alt=""img"">
                            </div>
                        </div>",0.875,"",0,"",NA,"","images/map27_RdGy_scaleDef_orientDef_180.png","disgust",1,27,27,"RdGy","orientDef","scaleDef","180",NA,NA
"","","","","","html-slider-response",46,181803,"0.0-42.0","tshvm1e447",20,NA,"<div style=""width:500px;"">
                            <p style=""font-size:50px; font-weight:bold;""
                            >disgust</p>
                            <div style=""width:240px; margin: auto;"">
                                <img src=""images/map05_seismic_scaleRev_orientDef_090.png"" style= ""width:200px""alt=""img"">
                            </div>
                        </div>",0.63,"",0,"",NA,"","images/map05_seismic_scaleRev_orientDef_090.png","disgust",1,5,5,"seismic","orientDef","scaleRev","090",NA,NA
"","","","","","html-slider-response",47,183488,"0.0-43.0","tshvm1e447",20,NA,"<div style=""width:500px;"">
                            <p style=""font-size:50px; font-weight:bold;""
                            >disgust</p>
                            <div style=""width:240px; margin: auto;"">
                                <img src=""images/map12_Oranges_scaleDef_orientMir_180.png"" style= ""width:200px""alt=""img"">
                            </div>
                        </div>",1,"",0,"",NA,"","images/map12_Oranges_scaleDef_orientMir_180.png","disgust",1,12,12,"Oranges","orientMir","scaleDef","180",NA,NA
"","","","","","html-slider-response",48,185753,"0.0-44.0","tshvm1e447",20,NA,"<div style=""width:500px;"">
                            <p style=""font-size:50px; font-weight:bold;""
                            >disgust</p>
                            <div style=""width:240px; margin: auto;"">
                                <img src=""images/map05_managua_scaleRev_orientMir_090.png"" style= ""width:200px""alt=""img"">
                            </div>
                        </div>",0.13,"",0,"",NA,"","images/map05_managua_scaleRev_orientMir_090.png","disgust",1,5,5,"managua","orientMir","scaleRev","090",NA,NA
"","","","","","html-slider-response",49,187520,"0.0-45.0","tshvm1e447",20,NA,"<div style=""width:500px;"">
                            <p style=""font-size:50px; font-weight:bold;""
                            >disgust</p>
                            <div style=""width:240px; margin: auto;"">
                                <img src=""images/map26_YlGn_scaleDef_orientDef_000.png"" style= ""width:200px""alt=""img"">
                            </div>
                        </div>",0.235,"",0,"",NA,"","images/map26_YlGn_scaleDef_orientDef_000.png","disgust",1,26,26,"YlGn","orientDef","scaleDef","000",NA,NA
"","","","","","html-slider-response",50,188989,"0.0-46.0","tshvm1e447",20,NA,"<div style=""width:500px;"">
                            <p style=""font-size:50px; font-weight:bold;""
                            >disgust</p>
                            <div style=""width:240px; margin: auto;"">
                                <img src=""images/map13_YlOrRd_scaleDef_orientMir_000.png"" style= ""width:200px""alt=""img"">
                            </div>
                        </div>",0.995,"",0,"",NA,"","images/map13_YlOrRd_scaleDef_orientMir_000.png","disgust",1,13,13,"YlOrRd","orientMir","scaleDef","000",NA,NA
"","","","","","html-slider-response",51,190988,"0.0-47.0","tshvm1e447",20,NA,"<div style=""width:500px;"">
                            <p style=""font-size:50px; font-weight:bold;""
                            >disgust</p>
                            <div style=""width:240px; margin: auto;"">
                                <img src=""images/map26_YlGn_scaleRev_orientDef_090.png"" style= ""width:200px""alt=""img"">
                            </div>
                        </div>",0.1675,"",0,"",NA,"","images/map26_YlGn_scaleRev_orientDef_090.png","disgust",1,26,26,"YlGn","orientDef","scaleRev","090",NA,NA
"","","","","","html-slider-response",52,193236,"0.0-48.0","tshvm1e447",20,NA,"<div style=""width:500px;"">
                            <p style=""font-size:50px; font-weight:bold;""
                            >disgust</p>
                            <div style=""width:240px; margin: auto;"">
                                <img src=""images/map02_RdYlGn_scaleRev_orientDef_090.png"" style= ""width:200px""alt=""img"">
                            </div>
                        </div>",0.665,"",0,"",NA,"","images/map02_RdYlGn_scaleRev_orientDef_090.png","disgust",1,2,2,"RdYlGn","orientDef","scaleRev","090",NA,NA
"","","","","","html-slider-response",53,195521,"0.0-49.0","tshvm1e447",20,NA,"<div style=""width:500px;"">
                            <p style=""font-size:50px; font-weight:bold;""
                            >disgust</p>
                            <div style=""width:240px; margin: auto;"">
                                <img src=""images/map15_RdPu_scaleDef_orientDef_180.png"" style= ""width:200px""alt=""img"">
                            </div>
                        </div>",0.085,"",0,"",NA,"","images/map15_RdPu_scaleDef_orientDef_180.png","disgust",1,15,15,"RdPu","orientDef","scaleDef","180",NA,NA
"","","","","","html-slider-response",54,197488,"0.0-50.0","tshvm1e447",20,NA,"<div style=""width:500px;"">
                            <p style=""font-size:50px; font-weight:bold;""
                            >disgust</p>
                            <div style=""width:240px; margin: auto;"">
                                <img src=""images/map07_viridis_scaleRev_orientMir_090.png"" style= ""width:200px""alt=""img"">
                            </div>
                        </div>",0.09,"",0,"",NA,"","images/map07_viridis_scaleRev_orientMir_090.png","disgust",1,7,7,"viridis","orientMir","scaleRev","090",NA,NA
"","","","","","html-slider-response",55,199687,"0.0-51.0","tshvm1e447",20,NA,"<div style=""width:500px;"">
                            <p style=""font-size:50px; font-weight:bold;""
                            >disgust</p>
                            <div style=""width:240px; margin: auto;"">
                                <img src=""images/map12_Greens_scaleDef_orientMir_000.png"" style= ""width:200px""alt=""img"">
                            </div>
                        </div>",0.1425,"",0,"",NA,"","images/map12_Greens_scaleDef_orientMir_000.png","disgust",1,12,12,"Greens","orientMir","scaleDef","000",NA,NA
"","","","","","html-slider-response",56,201604,"0.0-52.0","tshvm1e447",20,NA,"<div style=""width:500px;"">
                            <p style=""font-size:50px; font-weight:bold;""
                            >disgust</p>
                            <div style=""width:240px; margin: auto;"">
                                <img src=""images/map12_Greens_scaleRev_orientMir_090.png"" style= ""width:200px""alt=""img"">
                            </div>
                        </div>",0.115,"",0,"",NA,"","images/map12_Greens_scaleRev_orientMir_090.png","disgust",1,12,12,"Greens","orientMir","scaleRev","090",NA,NA
"","","","","","html-slider-response",57,204654,"0.0-53.0","tshvm1e447",20,NA,"<div style=""width:500px;"">
                            <p style=""font-size:50px; font-weight:bold;""
                            >disgust</p>
                            <div style=""width:240px; margin: auto;"">
                                <img src=""images/map10_Greys_scaleRev_orientMir_270.png"" style= ""width:200px""alt=""img"">
                            </div>
                        </div>",0.7475,"",0,"",NA,"","images/map10_Greys_scaleRev_orientMir_270.png","disgust",1,10,10,"Greys","orientMir","scaleRev","270",NA,NA
"","","","","","html-button-response",58,207292,"0.0-54.0","tshvm1e447",20,2136,"<p>You are doing great!<br></br> You are halway done with the current block. When you are ready to continue, click the 'Continue' button.</p>",0.5,"",NA,"",NA,"","","",NA,NA,NA,"","","","",NA,NA
"","","","","","html-slider-response",59,209120,"0.0-55.0","tshvm1e447",20,NA,"<div style=""width:500px;"">
                            <p style=""font-size:50px; font-weight:bold;""
                            >disgust</p>
                            <div style=""width:240px; margin: auto;"">
                                <img src=""images/map23_BuGn_scaleRev_orientMir_270.png"" style= ""width:200px""alt=""img"">
                            </div>
                        </div>",0.095,"",0,"",NA,"","images/map23_BuGn_scaleRev_orientMir_270.png","disgust",1,23,23,"BuGn","orientMir","scaleRev","270",NA,NA
"","","","","","html-slider-response",60,211104,"0.0-56.0","tshvm1e447",20,NA,"<div style=""width:500px;"">
                            <p style=""font-size:50px; font-weight:bold;""
                            >disgust</p>
                            <div style=""width:240px; margin: auto;"">
                                <img src=""images/map05_vanimo_scaleDef_orientMir_180.png"" style= ""width:200px""alt=""img"">
                            </div>
                        </div>",0.6925,"",0,"",NA,"","images/map05_vanimo_scaleDef_orientMir_180.png","disgust",1,5,5,"vanimo","orientMir","scaleDef","180",NA,NA
"","","","","","html-slider-response",61,214906,"0.0-57.0","tshvm1e447",20,NA,"<div style=""width:500px;"">
                            <p style=""font-size:50px; font-weight:bold;""
                            >disgust</p>
                            <div style=""width:240px; margin: auto;"">
                                <img src=""images/map05_berlin_scaleRev_orientDef_270.png"" style= ""width:200px""alt=""img"">
                            </div>
                        </div>",0.1525,"",0,"",NA,"","images/map05_berlin_scaleRev_orientDef_270.png","disgust",1,5,5,"berlin","orientDef","scaleRev","270",NA,NA
"","","","","","html-slider-response",62,216803,"0.0-58.0","tshvm1e447",20,NA,"<div style=""width:500px;"">
                            <p style=""font-size:50px; font-weight:bold;""
                            >disgust</p>
                            <div style=""width:240px; margin: auto;"">
                                <img src=""images/map12_Purples_scaleDef_orientDef_000.png"" style= ""width:200px""alt=""img"">
                            </div>
                        </div>",0,"",0,"",NA,"","images/map12_Purples_scaleDef_orientDef_000.png","disgust",1,12,12,"Purples","orientDef","scaleDef","000",NA,NA
"","","","","","html-slider-response",63,218771,"0.0-59.0","tshvm1e447",20,NA,"<div style=""width:500px;"">
                            <p style=""font-size:50px; font-weight:bold;""
                            >disgust</p>
                            <div style=""width:240px; margin: auto;"">
                                <img src=""images/map23_YlGnBu_scaleRev_orientDef_270.png"" style= ""width:200px""alt=""img"">
                            </div>
                        </div>",0,"",0,"",NA,"","images/map23_YlGnBu_scaleRev_orientDef_270.png","disgust",1,23,23,"YlGnBu","orientDef","scaleRev","270",NA,NA
"","","","","","html-slider-response",64,220338,"0.0-60.0","tshvm1e447",20,NA,"<div style=""width:500px;"">
                            <p style=""font-size:50px; font-weight:bold;""
                            >disgust</p>
                            <div style=""width:240px; margin: auto;"">
                                <img src=""images/map07_plasma_scaleDef_orientMir_180.png"" style= ""width:200px""alt=""img"">
                            </div>
                        </div>",0.58,"",0,"",NA,"","images/map07_plasma_scaleDef_orientMir_180.png","disgust",1,7,7,"plasma","orientMir","scaleDef","180",NA,NA
"","","","","","html-slider-response",65,222236,"0.0-61.0","tshvm1e447",20,NA,"<div style=""width:500px;"">
                            <p style=""font-size:50px; font-weight:bold;""
                            >disgust</p>
                            <div style=""width:240px; margin: auto;"">
                                <img src=""images/map02_coolwarm_scaleRev_orientMir_090.png"" style= ""width:200px""alt=""img"">
                            </div>
                        </div>",0.935,"",0,"",NA,"","images/map02_coolwarm_scaleRev_orientMir_090.png","disgust",1,2,2,"coolwarm","orientMir","scaleRev","090",NA,NA
"","","","","","html-slider-response",66,223837,"0.0-62.0","tshvm1e447",20,NA,"<div style=""width:500px;"">
                            <p style=""font-size:50px; font-weight:bold;""
                            >disgust</p>
                            <div style=""width:240px; margin: auto;"">
                                <img src=""images/map13_YlOrRd_scaleRev_orientMir_090.png"" style= ""width:200px""alt=""img"">
                            </div>
                        </div>",1,"",0,"",NA,"","images/map13_YlOrRd_scaleRev_orientMir_090.png","disgust",1,13,13,"YlOrRd","orientMir","scaleRev","090",NA,NA
"","","","","","html-slider-response",67,225453,"0.0-63.0","tshvm1e447",20,NA,"<div style=""width:500px;"">
                            <p style=""font-size:50px; font-weight:bold;""
                            >disgust</p>
                            <div style=""width:240px; margin: auto;"">
                                <img src=""images/map27_RdBu_scaleDef_orientMir_000.png"" style= ""width:200px""alt=""img"">
                            </div>
                        </div>",0.61,"",0,"",NA,"","images/map27_RdBu_scaleDef_orientMir_000.png","disgust",1,27,27,"RdBu","orientMir","scaleDef","000",NA,NA
"","","","","","html-slider-response",68,227154,"0.0-64.0","tshvm1e447",20,NA,"<div style=""width:500px;"">
                            <p style=""font-size:50px; font-weight:bold;""
                            >disgust</p>
                            <div style=""width:240px; margin: auto;"">
                                <img src=""images/map26_PiYG_scaleRev_orientDef_270.png"" style= ""width:200px""alt=""img"">
                            </div>
                        </div>",0.635,"",0,"",NA,"","images/map26_PiYG_scaleRev_orientDef_270.png","disgust",1,26,26,"PiYG","orientDef","scaleRev","270",NA,NA
"","","","","","html-slider-response",69,228987,"0.0-65.0","tshvm1e447",20,NA,"<div style=""width:500px;"">
                            <p style=""font-size:50px; font-weight:bold;""
                            >disgust</p>
                            <div style=""width:240px; margin: auto;"">
                                <img src=""images/map15_PuRd_scaleRev_orientDef_090.png"" style= ""width:200px""alt=""img"">
                            </div>
                        </div>",0.8175,"",0,"",NA,"","images/map15_PuRd_scaleRev_orientDef_090.png","disgust",1,15,15,"PuRd","orientDef","scaleRev","090",NA,NA
"","","","","","html-slider-response",70,230938,"0.0-66.0","tshvm1e447",20,NA,"<div style=""width:500px;"">
                            <p style=""font-size:50px; font-weight:bold;""
                            >disgust</p>
                            <div style=""width:240px; margin: auto;"">
                                <img src=""images/map07_viridis_scaleDef_orientMir_000.png"" style= ""width:200px""alt=""img"">
                            </div>
                        </div>",0.165,"",0,"",NA,"","images/map07_viridis_scaleDef_orientMir_000.png","disgust",1,7,7,"viridis","orientMir","scaleDef","000",NA,NA
"","","","","","html-slider-response",71,232921,"0.0-67.0","tshvm1e447",20,NA,"<div style=""width:500px;"">
                            <p style=""font-size:50px; font-weight:bold;""
                            >disgust</p>
                            <div style=""width:240px; margin: auto;"">
                                <img src=""images/map12_Blues_scaleDef_orientDef_180.png"" style= ""width:200px""alt=""img"">
                            </div>
                        </div>",0.16,"",0,"",NA,"","images/map12_Blues_scaleDef_orientDef_180.png","disgust",1,12,12,"Blues","orientDef","scaleDef","180",NA,NA
"","","","","","html-slider-response",72,234936,"0.0-68.0","tshvm1e447",20,NA,"<div style=""width:500px;"">
                            <p style=""font-size:50px; font-weight:bold;""
                            >disgust</p>
                            <div style=""width:240px; margin: auto;"">
                                <img src=""images/map05_berlin_scaleDef_orientDef_180.png"" style= ""width:200px""alt=""img"">
                            </div>
                        </div>",0.2925,"",0,"",NA,"","images/map05_berlin_scaleDef_orientDef_180.png","disgust",1,5,5,"berlin","orientDef","scaleDef","180",NA,NA
"","","","","","html-slider-response",73,236669,"0.0-69.0","tshvm1e447",20,NA,"<div style=""width:500px;"">
                            <p style=""font-size:50px; font-weight:bold;""
                            >disgust</p>
                            <div style=""width:240px; margin: auto;"">
                                <img src=""images/map23_PuBu_scaleRev_orientDef_090.png"" style= ""width:200px""alt=""img"">
                            </div>
                        </div>",0.0525,"",0,"",NA,"","images/map23_PuBu_scaleRev_orientDef_090.png","disgust",1,23,23,"PuBu","orientDef","scaleRev","090",NA,NA
"","","","","","html-slider-response",74,238604,"0.0-70.0","tshvm1e447",20,NA,"<div style=""width:500px;"">
                            <p style=""font-size:50px; font-weight:bold;""
                            >disgust</p>
                            <div style=""width:240px; margin: auto;"">
                                <img src=""images/map13_YlOrBr_scaleRev_orientDef_270.png"" style= ""width:200px""alt=""img"">
                            </div>
                        </div>",1,"",0,"",NA,"","images/map13_YlOrBr_scaleRev_orientDef_270.png","disgust",1,13,13,"YlOrBr","orientDef","scaleRev","270",NA,NA
"","","","","","html-slider-response",75,240419,"0.0-71.0","tshvm1e447",20,NA,"<div style=""width:500px;"">
                            <p style=""font-size:50px; font-weight:bold;""
                            >disgust</p>
                            <div style=""width:240px; margin: auto;"">
                                <img src=""images/map26_BrBG_scaleRev_orientMir_270.png"" style= ""width:200px""alt=""img"">
                            </div>
                        </div>",0.125,"",0,"",NA,"","images/map26_BrBG_scaleRev_orientMir_270.png","disgust",1,26,26,"BrBG","orientMir","scaleRev","270",NA,NA
"","","","","","html-slider-response",76,242320,"0.0-72.0","tshvm1e447",20,NA,"<div style=""width:500px;"">
                            <p style=""font-size:50px; font-weight:bold;""
                            >disgust</p>
                            <div style=""width:240px; margin: auto;"">
                                <img src=""images/map05_vanimo_scaleRev_orientMir_270.png"" style= ""width:200px""alt=""img"">
                            </div>
                        </div>",0.825,"",0,"",NA,"","images/map05_vanimo_scaleRev_orientMir_270.png","disgust",1,5,5,"vanimo","orientMir","scaleRev","270",NA,NA
"","","","","","html-slider-response",77,244187,"0.0-73.0","tshvm1e447",20,NA,"<div style=""width:500px;"">
                            <p style=""font-size:50px; font-weight:bold;""
                            >disgust</p>
                            <div style=""width:240px; margin: auto;"">
                                <img src=""images/map12_Oranges_scaleRev_orientMir_270.png"" style= ""width:200px""alt=""img"">
                            </div>
                        </div>",1,"",0,"",NA,"","images/map12_Oranges_scaleRev_orientMir_270.png","disgust",1,12,12,"Oranges","orientMir","scaleRev","270",NA,NA
"","","","","","html-slider-response",78,246154,"0.0-74.0","tshvm1e447",20,NA,"<div style=""width:500px;"">
                            <p style=""font-size:50px; font-weight:bold;""
                            >disgust</p>
                            <div style=""width:240px; margin: auto;"">
                                <img src=""images/map27_PuOr_scaleDef_orientDef_000.png"" style= ""width:200px""alt=""img"">
                            </div>
                        </div>",0.27,"",0,"",NA,"","images/map27_PuOr_scaleDef_orientDef_000.png","disgust",1,27,27,"PuOr","orientDef","scaleDef","000",NA,NA
"","","","","","html-slider-response",79,247920,"0.0-75.0","tshvm1e447",20,NA,"<div style=""width:500px;"">
                            <p style=""font-size:50px; font-weight:bold;""
                            >disgust</p>
                            <div style=""width:240px; margin: auto;"">
                                <img src=""images/map23_YlGnBu_scaleDef_orientDef_180.png"" style= ""width:200px""alt=""img"">
                            </div>
                        </div>",0.0975,"",0,"",NA,"","images/map23_YlGnBu_scaleDef_orientDef_180.png","disgust",1,23,23,"YlGnBu","orientDef","scaleDef","180",NA,NA
"","","","","","html-slider-response",80,249638,"0.0-76.0","tshvm1e447",20,NA,"<div style=""width:500px;"">
                            <p style=""font-size:50px; font-weight:bold;""
                            >disgust</p>
                            <div style=""width:240px; margin: auto;"">
                                <img src=""images/map26_PRGn_scaleRev_orientMir_090.png"" style= ""width:200px""alt=""img"">
                            </div>
                        </div>",0.6975,"",0,"",NA,"","images/map26_PRGn_scaleRev_orientMir_090.png","disgust",1,26,26,"PRGn","orientMir","scaleRev","090",NA,NA
"","","","","","html-slider-response",81,251622,"0.0-77.0","tshvm1e447",20,NA,"<div style=""width:500px;"">
                            <p style=""font-size:50px; font-weight:bold;""
                            >disgust</p>
                            <div style=""width:240px; margin: auto;"">
                                <img src=""images/map15_PuRd_scaleDef_orientDef_000.png"" style= ""width:200px""alt=""img"">
                            </div>
                        </div>",0.7875,"",0,"",NA,"","images/map15_PuRd_scaleDef_orientDef_000.png","disgust",1,15,15,"PuRd","orientDef","scaleDef","000",NA,NA
"","","","","","html-slider-response",82,253453,"0.0-78.0","tshvm1e447",20,NA,"<div style=""width:500px;"">
                            <p style=""font-size:50px; font-weight:bold;""
                            >disgust</p>
                            <div style=""width:240px; margin: auto;"">
                                <img src=""images/map02_bwr_scaleDef_orientMir_180.png"" style= ""width:200px""alt=""img"">
                            </div>
                        </div>",0.6525,"",0,"",NA,"","images/map02_bwr_scaleDef_orientMir_180.png","disgust",1,2,2,"bwr","orientMir","scaleDef","180",NA,NA
"","","","","","html-slider-response",83,254918,"0.0-79.0","tshvm1e447",20,NA,"<div style=""width:500px;"">
                            <p style=""font-size:50px; font-weight:bold;""
                            >disgust</p>
                            <div style=""width:240px; margin: auto;"">
                                <img src=""images/map15_GnBu_scaleRev_orientMir_270.png"" style= ""width:200px""alt=""img"">
                            </div>
                        </div>",0.1425,"",0,"",NA,"","images/map15_GnBu_scaleRev_orientMir_270.png","disgust",1,15,15,"GnBu","orientMir","scaleRev","270",NA,NA
"","","","","","html-slider-response",84,256870,"0.0-80.0","tshvm1e447",20,NA,"<div style=""width:500px;"">
                            <p style=""font-size:50px; font-weight:bold;""
                            >disgust</p>
                            <div style=""width:240px; margin: auto;"">
                                <img src=""images/map15_RdPu_scaleRev_orientDef_270.png"" style= ""width:200px""alt=""img"">
                            </div>
                        </div>",0.815,"",0,"",NA,"","images/map15_RdPu_scaleRev_orientDef_270.png","disgust",1,15,15,"RdPu","orientDef","scaleRev","270",NA,NA
"","","","","","html-slider-response",85,258520,"0.0-81.0","tshvm1e447",20,NA,"<div style=""width:500px;"">
                            <p style=""font-size:50px; font-weight:bold;""
                            >disgust</p>
                            <div style=""width:240px; margin: auto;"">
                                <img src=""images/map23_PuBuGn_scaleRev_orientMir_090.png"" style= ""width:200px""alt=""img"">
                            </div>
                        </div>",0.105,"",0,"",NA,"","images/map23_PuBuGn_scaleRev_orientMir_090.png","disgust",1,23,23,"PuBuGn","orientMir","scaleRev","090",NA,NA
"","","","","","html-slider-response",86,260270,"0.0-82.0","tshvm1e447",20,NA,"<div style=""width:500px;"">
                            <p style=""font-size:50px; font-weight:bold;""
                            >disgust</p>
                            <div style=""width:240px; margin: auto;"">
                                <img src=""images/map13_YlOrBr_scaleDef_orientDef_180.png"" style= ""width:200px""alt=""img"">
                            </div>
                        </div>",1,"",0,"",NA,"","images/map13_YlOrBr_scaleDef_orientDef_180.png","disgust",1,13,13,"YlOrBr","orientDef","scaleDef","180",NA,NA
"","","","","","html-slider-response",87,262668,"0.0-83.0","tshvm1e447",20,NA,"<div style=""width:500px;"">
                            <p style=""font-size:50px; font-weight:bold;""
                            >disgust</p>
                            <div style=""width:240px; margin: auto;"">
                                <img src=""images/map10_magma_scaleRev_orientDef_270.png"" style= ""width:200px""alt=""img"">
                            </div>
                        </div>",0.225,"",0,"",NA,"","images/map10_magma_scaleRev_orientDef_270.png","disgust",1,10,10,"magma","orientDef","scaleRev","270",NA,NA
"","","","","","html-slider-response",88,264436,"0.0-84.0","tshvm1e447",20,NA,"<div style=""width:500px;"">
                            <p style=""font-size:50px; font-weight:bold;""
                            >disgust</p>
                            <div style=""width:240px; margin: auto;"">
                                <img src=""images/map05_managua_scaleDef_orientMir_000.png"" style= ""width:200px""alt=""img"">
                            </div>
                        </div>",0.225,"",0,"",NA,"","images/map05_managua_scaleDef_orientMir_000.png","disgust",1,5,5,"managua","orientMir","scaleDef","000",NA,NA
"","","","","","html-slider-response",89,266052,"0.0-85.0","tshvm1e447",20,NA,"<div style=""width:500px;"">
                            <p style=""font-size:50px; font-weight:bold;""
                            >disgust</p>
                            <div style=""width:240px; margin: auto;"">
                                <img src=""images/map07_plasma_scaleRev_orientMir_270.png"" style= ""width:200px""alt=""img"">
                            </div>
                        </div>",0.1875,"",0,"",NA,"","images/map07_plasma_scaleRev_orientMir_270.png","disgust",1,7,7,"plasma","orientMir","scaleRev","270",NA,NA
"","","","","","html-slider-response",90,268169,"0.0-86.0","tshvm1e447",20,NA,"<div style=""width:500px;"">
                            <p style=""font-size:50px; font-weight:bold;""
                            >disgust</p>
                            <div style=""width:240px; margin: auto;"">
                                <img src=""images/map27_PuOr_scaleRev_orientDef_090.png"" style= ""width:200px""alt=""img"">
                            </div>
                        </div>",0.1925,"",0,"",NA,"","images/map27_PuOr_scaleRev_orientDef_090.png","disgust",1,27,27,"PuOr","orientDef","scaleRev","090",NA,NA
"","","","","","html-slider-response",91,270186,"0.0-87.0","tshvm1e447",20,NA,"<div style=""width:500px;"">
                            <p style=""font-size:50px; font-weight:bold;""
                            >disgust</p>
                            <div style=""width:240px; margin: auto;"">
                                <img src=""images/map10_magma_scaleDef_orientDef_180.png"" style= ""width:200px""alt=""img"">
                            </div>
                        </div>",0.305,"",0,"",NA,"","images/map10_magma_scaleDef_orientDef_180.png","disgust",1,10,10,"magma","orientDef","scaleDef","180",NA,NA
"","","","","","html-slider-response",92,272038,"0.0-88.0","tshvm1e447",20,NA,"<div style=""width:500px;"">
                            <p style=""font-size:50px; font-weight:bold;""
                            >disgust</p>
                            <div style=""width:240px; margin: auto;"">
                                <img src=""images/map07_gist_earth_scaleRev_orientDef_090.png"" style= ""width:200px""alt=""img"">
                            </div>
                        </div>",0.73,"",0,"",NA,"","images/map07_gist_earth_scaleRev_orientDef_090.png","disgust",1,7,7,"gist","scaleRev","earth","orientDef",NA,NA
"","","","","","html-slider-response",93,273853,"0.0-89.0","tshvm1e447",20,NA,"<div style=""width:500px;"">
                            <p style=""font-size:50px; font-weight:bold;""
                            >disgust</p>
                            <div style=""width:240px; margin: auto;"">
                                <img src=""images/map26_PRGn_scaleDef_orientMir_000.png"" style= ""width:200px""alt=""img"">
                            </div>
                        </div>",0.8,"",0,"",NA,"","images/map26_PRGn_scaleDef_orientMir_000.png","disgust",1,26,26,"PRGn","orientMir","scaleDef","000",NA,NA
"","","","","","html-slider-response",94,275403,"0.0-90.0","tshvm1e447",20,NA,"<div style=""width:500px;"">
                            <p style=""font-size:50px; font-weight:bold;""
                            >disgust</p>
                            <div style=""width:240px; margin: auto;"">
                                <img src=""images/map02_coolwarm_scaleDef_orientMir_000.png"" style= ""width:200px""alt=""img"">
                            </div>
                        </div>",0.2775,"",0,"",NA,"","images/map02_coolwarm_scaleDef_orientMir_000.png","disgust",1,2,2,"coolwarm","orientMir","scaleDef","000",NA,NA
"","","","","","html-slider-response",95,276952,"0.0-91.0","tshvm1e447",20,NA,"<div style=""width:500px;"">
                            <p style=""font-size:50px; font-weight:bold;""
                            >disgust</p>
                            <div style=""width:240px; margin: auto;"">
                                <img src=""images/map02_RdYlGn_scaleDef_orientDef_000.png"" style= ""width:200px""alt=""img"">
                            </div>
                        </div>",1,"",0,"",NA,"","images/map02_RdYlGn_scaleDef_orientDef_000.png","disgust",1,2,2,"RdYlGn","orientDef","scaleDef","000",NA,NA
"","","","","","html-slider-response",96,279169,"0.0-92.0","tshvm1e447",20,NA,"<div style=""width:500px;"">
                            <p style=""font-size:50px; font-weight:bold;""
                            >disgust</p>
                            <div style=""width:240px; margin: auto;"">
                                <img src=""images/map26_PiYG_scaleDef_orientDef_180.png"" style= ""width:200px""alt=""img"">
                            </div>
                        </div>",0.34,"",0,"",NA,"","images/map26_PiYG_scaleDef_orientDef_180.png","disgust",1,26,26,"PiYG","orientDef","scaleDef","180",NA,NA
"","","","","","html-slider-response",97,281270,"0.0-93.0","tshvm1e447",20,NA,"<div style=""width:500px;"">
                            <p style=""font-size:50px; font-weight:bold;""
                            >disgust</p>
                            <div style=""width:240px; margin: auto;"">
                                <img src=""images/map12_Purples_scaleRev_orientDef_090.png"" style= ""width:200px""alt=""img"">
                            </div>
                        </div>",0.005,"",0,"",NA,"","images/map12_Purples_scaleRev_orientDef_090.png","disgust",1,12,12,"Purples","orientDef","scaleRev","090",NA,NA
"","","","","","html-slider-response",98,283070,"0.0-94.0","tshvm1e447",20,NA,"<div style=""width:500px;"">
                            <p style=""font-size:50px; font-weight:bold;""
                            >disgust</p>
                            <div style=""width:240px; margin: auto;"">
                                <img src=""images/map07_gist_earth_scaleDef_orientDef_000.png"" style= ""width:200px""alt=""img"">
                            </div>
                        </div>",0.5275,"",0,"",NA,"","images/map07_gist_earth_scaleDef_orientDef_000.png","disgust",1,7,7,"gist","scaleDef","earth","orientDef",NA,NA
"","","","","","html-button-response",99,284874,"0.0-95.0","tshvm1e447",20,1300,"<p>Great Job! You've finished block 1.<br></br> You have 4 block(s) left to go.<br></br></p>",0.5,"",NA,"",NA,"","","",NA,NA,NA,"","","","",NA,NA
"","","","","","html-button-response",100,286058,"0.0-96.0","tshvm1e447",20,1182,"<p>In this block of trials, you will be asked to rate how much you associate each map with:</p > <p style = 'font-size:150%; font-weight: bold'>sad</p><br></br>",0.5,"",NA,"",NA,"","","",NA,NA,NA,"","","","",NA,NA
"","","","","","html-slider-response",101,288153,"0.0-97.0","tshvm1e447",20,NA,"<div style=""width:500px;"">
                            <p style=""font-size:50px; font-weight:bold;""
                            >sad</p>
                            <div style=""width:240px; margin: auto;"">
                                <img src=""images/map13_OrRd_scaleDef_orientMir_180.png"" style= ""width:200px""alt=""img"">
                            </div>
                        </div>",1,"",0,"",NA,"","images/map13_OrRd_scaleDef_orientMir_180.png","sad",1,13,13,"OrRd","orientMir","scaleDef","180",NA,NA
"","","","","","html-slider-response",102,291303,"0.0-98.0","tshvm1e447",20,NA,"<div style=""width:500px;"">
                            <p style=""font-size:50px; font-weight:bold;""
                            >sad</p>
                            <div style=""width:240px; margin: auto;"">
                                <img src=""images/map23_BuGn_scaleRev_orientMir_270.png"" style= ""width:200px""alt=""img"">
                            </div>
                        </div>",0.685,"",0,"",NA,"","images/map23_BuGn_scaleRev_orientMir_270.png","sad",1,23,23,"BuGn","orientMir","scaleRev","270",NA,NA
"","","","","","html-slider-response",103,294635,"0.0-99.0","tshvm1e447",20,NA,"<div style=""width:500px;"">
                            <p style=""font-size:50px; font-weight:bold;""
                            >sad</p>
                            <div style=""width:240px; margin: auto;"">
                                <img src=""images/map02_coolwarm_scaleRev_orientMir_090.png"" style= ""width:200px""alt=""img"">
                            </div>
                        </div>",0.385,"",0,"",NA,"","images/map02_coolwarm_scaleRev_orientMir_090.png","sad",1,2,2,"coolwarm","orientMir","scaleRev","090",NA,NA
"","","","","","html-slider-response",104,296418,"0.0-100.0","tshvm1e447",20,NA,"<div style=""width:500px;"">
                            <p style=""font-size:50px; font-weight:bold;""
                            >sad</p>
                            <div style=""width:240px; margin: auto;"">
                                <img src=""images/map10_cividis_scaleDef_orientMir_000.png"" style= ""width:200px""alt=""img"">
                            </div>
                        </div>",1,"",0,"",NA,"","images/map10_cividis_scaleDef_orientMir_000.png","sad",1,10,10,"cividis","orientMir","scaleDef","000",NA,NA
"","","","","","html-slider-response",105,298436,"0.0-101.0","tshvm1e447",20,NA,"<div style=""width:500px;"">
                            <p style=""font-size:50px; font-weight:bold;""
                            >sad</p>
                            <div style=""width:240px; margin: auto;"">
                                <img src=""images/map27_RdGy_scaleRev_orientDef_270.png"" style= ""width:200px""alt=""img"">
                            </div>
                        </div>",1,"",0,"",NA,"","images/map27_RdGy_scaleRev_orientDef_270.png","sad",1,27,27,"RdGy","orientDef","scaleRev","270",NA,NA
"","","","","","html-slider-response",106,300551,"0.0-102.0","tshvm1e447",20,NA,"<div style=""width:500px;"">
                            <p style=""font-size:50px; font-weight:bold;""
                            >sad</p>
                            <div style=""width:240px; margin: auto;"">
                                <img src=""images/map05_berlin_scaleRev_orientDef_270.png"" style= ""width:200px""alt=""img"">
                            </div>
                        </div>",0.625,"",0,"",NA,"","images/map05_berlin_scaleRev_orientDef_270.png","sad",1,5,5,"berlin","orientDef","scaleRev","270",NA,NA
"","","","","","html-slider-response",107,303204,"0.0-103.0","tshvm1e447",20,NA,"<div style=""width:500px;"">
                            <p style=""font-size:50px; font-weight:bold;""
                            >sad</p>
                            <div style=""width:240px; margin: auto;"">
                                <img src=""images/map10_magma_scaleDef_orientDef_180.png"" style= ""width:200px""alt=""img"">
                            </div>
                        </div>",0.6375,"",0,"",NA,"","images/map10_magma_scaleDef_orientDef_180.png","sad",1,10,10,"magma","orientDef","scaleDef","180",NA,NA
"","","","","","html-slider-response",108,305386,"0.0-104.0","tshvm1e447",20,NA,"<div style=""width:500px;"">
                            <p style=""font-size:50px; font-weight:bold;""
                            >sad</p>
                            <div style=""width:240px; margin: auto;"">
                                <img src=""images/map02_coolwarm_scaleDef_orientMir_000.png"" style= ""width:200px""alt=""img"">
                            </div>
                        </div>",0,"",0,"",NA,"","images/map02_coolwarm_scaleDef_orientMir_000.png","sad",1,2,2,"coolwarm","orientMir","scaleDef","000",NA,NA
"","","","","","html-slider-response",109,307103,"0.0-105.0","tshvm1e447",20,NA,"<div style=""width:500px;"">
                            <p style=""font-size:50px; font-weight:bold;""
                            >sad</p>
                            <div style=""width:240px; margin: auto;"">
                                <img src=""images/map12_Purples_scaleDef_orientDef_000.png"" style= ""width:200px""alt=""img"">
                            </div>
                        </div>",0.95,"",0,"",NA,"","images/map12_Purples_scaleDef_orientDef_000.png","sad",1,12,12,"Purples","orientDef","scaleDef","000",NA,NA
"","","","","","html-slider-response",110,309719,"0.0-106.0","tshvm1e447",20,NA,"<div style=""width:500px;"">
                            <p style=""font-size:50px; font-weight:bold;""
                            >sad</p>
                            <div style=""width:240px; margin: auto;"">
                                <img src=""images/map12_Greens_scaleRev_orientMir_090.png"" style= ""width:200px""alt=""img"">
                            </div>
                        </div>",0.055,"",0,"",NA,"","images/map12_Greens_scaleRev_orientMir_090.png","sad",1,12,12,"Greens","orientMir","scaleRev","090",NA,NA
"","","","","","html-slider-response",111,311502,"0.0-107.0","tshvm1e447",20,NA,"<div style=""width:500px;"">
                            <p style=""font-size:50px; font-weight:bold;""
                            >sad</p>
                            <div style=""width:240px; margin: auto;"">
                                <img src=""images/map26_YlGn_scaleDef_orientDef_000.png"" style= ""width:200px""alt=""img"">
                            </div>
                        </div>",0.07,"",0,"",NA,"","images/map26_YlGn_scaleDef_orientDef_000.png","sad",1,26,26,"YlGn","orientDef","scaleDef","000",NA,NA
"","","","","","html-slider-response",112,313470,"0.0-108.0","tshvm1e447",20,NA,"<div style=""width:500px;"">
                            <p style=""font-size:50px; font-weight:bold;""
                            >sad</p>
                            <div style=""width:240px; margin: auto;"">
                                <img src=""images/map07_turbo_scaleDef_orientDef_180.png"" style= ""width:200px""alt=""img"">
                            </div>
                        </div>",0,"",0,"",NA,"","images/map07_turbo_scaleDef_orientDef_180.png","sad",1,7,7,"turbo","orientDef","scaleDef","180",NA,NA
"","","","","","html-slider-response",113,315186,"0.0-109.0","tshvm1e447",20,NA,"<div style=""width:500px;"">
                            <p style=""font-size:50px; font-weight:bold;""
                            >sad</p>
                            <div style=""width:240px; margin: auto;"">
                                <img src=""images/map07_viridis_scaleRev_orientMir_090.png"" style= ""width:200px""alt=""img"">
                            </div>
                        </div>",0,"",0,"",NA,"","images/map07_viridis_scaleRev_orientMir_090.png","sad",1,7,7,"viridis","orientMir","scaleRev","090",NA,NA
"","","","","","html-slider-response",114,317218,"0.0-110.0","tshvm1e447",20,NA,"<div style=""width:500px;"">
                            <p style=""font-size:50px; font-weight:bold;""
                            >sad</p>
                            <div style=""width:240px; margin: auto;"">
                                <img src=""images/map05_vanimo_scaleRev_orientMir_270.png"" style= ""width:200px""alt=""img"">
                            </div>
                        </div>",0.96,"",0,"",NA,"","images/map05_vanimo_scaleRev_orientMir_270.png","sad",1,5,5,"vanimo","orientMir","scaleRev","270",NA,NA
"","","","","","html-slider-response",115,319235,"0.0-111.0","tshvm1e447",20,NA,"<div style=""width:500px;"">
                            <p style=""font-size:50px; font-weight:bold;""
                            >sad</p>
                            <div style=""width:240px; margin: auto;"">
                                <img src=""images/map15_BuPu_scaleDef_orientMir_000.png"" style= ""width:200px""alt=""img"">
                            </div>
                        </div>",1,"",0,"",NA,"","images/map15_BuPu_scaleDef_orientMir_000.png","sad",1,15,15,"BuPu","orientMir","scaleDef","000",NA,NA
"","","","","","html-slider-response",116,320988,"0.0-112.0","tshvm1e447",20,NA,"<div style=""width:500px;"">
                            <p style=""font-size:50px; font-weight:bold;""
                            >sad</p>
                            <div style=""width:240px; margin: auto;"">
                                <img src=""images/map27_RdGy_scaleDef_orientDef_180.png"" style= ""width:200px""alt=""img"">
                            </div>
                        </div>",1,"",0,"",NA,"","images/map27_RdGy_scaleDef_orientDef_180.png","sad",1,27,27,"RdGy","orientDef","scaleDef","180",NA,NA
"","","","","","html-slider-response",117,323185,"0.0-113.0","tshvm1e447",20,NA,"<div style=""width:500px;"">
                            <p style=""font-size:50px; font-weight:bold;""
                            >sad</p>
                            <div style=""width:240px; margin: auto;"">
                                <img src=""images/map07_plasma_scaleRev_orientMir_270.png"" style= ""width:200px""alt=""img"">
                            </div>
                        </div>",0.0075,"",0,"",NA,"","images/map07_plasma_scaleRev_orientMir_270.png","sad",1,7,7,"plasma","orientMir","scaleRev","270",NA,NA
"","","","","","html-slider-response",118,324935,"0.0-114.0","tshvm1e447",20,NA,"<div style=""width:500px;"">
                            <p style=""font-size:50px; font-weight:bold;""
                            >sad</p>
                            <div style=""width:240px; margin: auto;"">
                                <img src=""images/map07_turbo_scaleRev_orientDef_270.png"" style= ""width:200px""alt=""img"">
                            </div>
                        </div>",0,"",0,"",NA,"","images/map07_turbo_scaleRev_orientDef_270.png","sad",1,7,7,"turbo","orientDef","scaleRev","270",NA,NA
"","","","","","html-slider-response",119,326985,"0.0-115.0","tshvm1e447",20,NA,"<div style=""width:500px;"">
                            <p style=""font-size:50px; font-weight:bold;""
                            >sad</p>
                            <div style=""width:240px; margin: auto;"">
                                <img src=""images/map26_BrBG_scaleDef_orientMir_180.png"" style= ""width:200px""alt=""img"">
                            </div>
                        </div>",0.865,"",0,"",NA,"","images/map26_BrBG_scaleDef_orientMir_180.png","sad",1,26,26,"BrBG","orientMir","scaleDef","180",NA,NA
"","","","","","html-slider-response",120,329385,"0.0-116.0","tshvm1e447",20,NA,"<div style=""width:500px;"">
                            <p style=""font-size:50px; font-weight:bold;""
                            >sad</p>
                            <div style=""width:240px; margin: auto;"">
                                <img src=""images/map05_seismic_scaleRev_orientDef_090.png"" style= ""width:200px""alt=""img"">
                            </div>
                        </div>",0,"",0,"",NA,"","images/map05_seismic_scaleRev_orientDef_090.png","sad",1,5,5,"seismic","orientDef","scaleRev","090",NA,NA
"","","","","","html-slider-response",121,331402,"0.0-117.0","tshvm1e447",20,NA,"<div style=""width:500px;"">
                            <p style=""font-size:50px; font-weight:bold;""
                            >sad</p>
                            <div style=""width:240px; margin: auto;"">
                                <img src=""images/map23_PuBu_scaleRev_orientDef_090.png"" style= ""width:200px""alt=""img"">
                            </div>
                        </div>",1,"",0,"",NA,"","images/map23_PuBu_scaleRev_orientDef_090.png","sad",1,23,23,"PuBu","orientDef","scaleRev","090",NA,NA
"","","","","","html-slider-response",122,334268,"0.0-118.0","tshvm1e447",20,NA,"<div style=""width:500px;"">
                            <p style=""font-size:50px; font-weight:bold;""
                            >sad</p>
                            <div style=""width:240px; margin: auto;"">
                                <img src=""images/map12_Greens_scaleDef_orientMir_000.png"" style= ""width:200px""alt=""img"">
                            </div>
                        </div>",0.36,"",0,"",NA,"","images/map12_Greens_scaleDef_orientMir_000.png","sad",1,12,12,"Greens","orientMir","scaleDef","000",NA,NA
"","","","","","html-slider-response",123,336268,"0.0-119.0","tshvm1e447",20,NA,"<div style=""width:500px;"">
                            <p style=""font-size:50px; font-weight:bold;""
                            >sad</p>
                            <div style=""width:240px; margin: auto;"">
                                <img src=""images/map15_GnBu_scaleRev_orientMir_270.png"" style= ""width:200px""alt=""img"">
                            </div>
                        </div>",0,"",0,"",NA,"","images/map15_GnBu_scaleRev_orientMir_270.png","sad",1,15,15,"GnBu","orientMir","scaleRev","270",NA,NA
"","","","","","html-slider-response",124,338237,"0.0-120.0","tshvm1e447",20,NA,"<div style=""width:500px;"">
                            <p style=""font-size:50px; font-weight:bold;""
                            >sad</p>
                            <div style=""width:240px; margin: auto;"">
                                <img src=""images/map26_PRGn_scaleRev_orientMir_090.png"" style= ""width:200px""alt=""img"">
                            </div>
                        </div>",0.745,"",0,"",NA,"","images/map26_PRGn_scaleRev_orientMir_090.png","sad",1,26,26,"PRGn","orientMir","scaleRev","090",NA,NA
"","","","","","html-slider-response",125,340902,"0.0-121.0","tshvm1e447",20,NA,"<div style=""width:500px;"">
                            <p style=""font-size:50px; font-weight:bold;""
                            >sad</p>
                            <div style=""width:240px; margin: auto;"">
                                <img src=""images/map23_PuBuGn_scaleDef_orientMir_000.png"" style= ""width:200px""alt=""img"">
                            </div>
                        </div>",0.885,"",0,"",NA,"","images/map23_PuBuGn_scaleDef_orientMir_000.png","sad",1,23,23,"PuBuGn","orientMir","scaleDef","000",NA,NA
"","","","","","html-slider-response",126,344785,"0.0-122.0","tshvm1e447",20,NA,"<div style=""width:500px;"">
                            <p style=""font-size:50px; font-weight:bold;""
                            >sad</p>
                            <div style=""width:240px; margin: auto;"">
                                <img src=""images/map23_PuBuGn_scaleRev_orientMir_090.png"" style= ""width:200px""alt=""img"">
                            </div>
                        </div>",0.8375,"",0,"",NA,"","images/map23_PuBuGn_scaleRev_orientMir_090.png","sad",1,23,23,"PuBuGn","orientMir","scaleRev","090",NA,NA
"","","","","","html-slider-response",127,346570,"0.0-123.0","tshvm1e447",20,NA,"<div style=""width:500px;"">
                            <p style=""font-size:50px; font-weight:bold;""
                            >sad</p>
                            <div style=""width:240px; margin: auto;"">
                                <img src=""images/map07_gist_earth_scaleRev_orientDef_090.png"" style= ""width:200px""alt=""img"">
                            </div>
                        </div>",0.92,"",0,"",NA,"","images/map07_gist_earth_scaleRev_orientDef_090.png","sad",1,7,7,"gist","scaleRev","earth","orientDef",NA,NA
"","","","","","html-slider-response",128,349270,"0.0-124.0","tshvm1e447",20,NA,"<div style=""width:500px;"">
                            <p style=""font-size:50px; font-weight:bold;""
                            >sad</p>
                            <div style=""width:240px; margin: auto;"">
                                <img src=""images/map05_berlin_scaleDef_orientDef_180.png"" style= ""width:200px""alt=""img"">
                            </div>
                        </div>",0.5825,"",0,"",NA,"","images/map05_berlin_scaleDef_orientDef_180.png","sad",1,5,5,"berlin","orientDef","scaleDef","180",NA,NA
"","","","","","html-slider-response",129,352154,"0.0-125.0","tshvm1e447",20,NA,"<div style=""width:500px;"">
                            <p style=""font-size:50px; font-weight:bold;""
                            >sad</p>
                            <div style=""width:240px; margin: auto;"">
                                <img src=""images/map13_YlOrRd_scaleDef_orientMir_000.png"" style= ""width:200px""alt=""img"">
                            </div>
                        </div>",0.35,"",0,"",NA,"","images/map13_YlOrRd_scaleDef_orientMir_000.png","sad",1,13,13,"YlOrRd","orientMir","scaleDef","000",NA,NA
"","","","","","html-slider-response",130,353835,"0.0-126.0","tshvm1e447",20,NA,"<div style=""width:500px;"">
                            <p style=""font-size:50px; font-weight:bold;""
                            >sad</p>
                            <div style=""width:240px; margin: auto;"">
                                <img src=""images/map26_YlGn_scaleRev_orientDef_090.png"" style= ""width:200px""alt=""img"">
                            </div>
                        </div>",0.535,"",0,"",NA,"","images/map26_YlGn_scaleRev_orientDef_090.png","sad",1,26,26,"YlGn","orientDef","scaleRev","090",NA,NA
"","","","","","html-slider-response",131,355717,"0.0-127.0","tshvm1e447",20,NA,"<div style=""width:500px;"">
                            <p style=""font-size:50px; font-weight:bold;""
                            >sad</p>
                            <div style=""width:240px; margin: auto;"">
                                <img src=""images/map12_Blues_scaleRev_orientDef_270.png"" style= ""width:200px""alt=""img"">
                            </div>
                        </div>",0.5925,"",0,"",NA,"","images/map12_Blues_scaleRev_orientDef_270.png","sad",1,12,12,"Blues","orientDef","scaleRev","270",NA,NA
"","","","","","html-slider-response",132,357518,"0.0-128.0","tshvm1e447",20,NA,"<div style=""width:500px;"">
                            <p style=""font-size:50px; font-weight:bold;""
                            >sad</p>
                            <div style=""width:240px; margin: auto;"">
                                <img src=""images/map27_RdBu_scaleRev_orientMir_090.png"" style= ""width:200px""alt=""img"">
                            </div>
                        </div>",0.145,"",0,"",NA,"","images/map27_RdBu_scaleRev_orientMir_090.png","sad",1,27,27,"RdBu","orientMir","scaleRev","090",NA,NA
"","","","","","html-slider-response",133,359237,"0.0-129.0","tshvm1e447",20,NA,"<div style=""width:500px;"">
                            <p style=""font-size:50px; font-weight:bold;""
                            >sad</p>
                            <div style=""width:240px; margin: auto;"">
                                <img src=""images/map05_seismic_scaleDef_orientDef_000.png"" style= ""width:200px""alt=""img"">
                            </div>
                        </div>",0.1175,"",0,"",NA,"","images/map05_seismic_scaleDef_orientDef_000.png","sad",1,5,5,"seismic","orientDef","scaleDef","000",NA,NA
"","","","","","html-slider-response",134,362101,"0.0-130.0","tshvm1e447",20,NA,"<div style=""width:500px;"">
                            <p style=""font-size:50px; font-weight:bold;""
                            >sad</p>
                            <div style=""width:240px; margin: auto;"">
                                <img src=""images/map23_YlGnBu_scaleRev_orientDef_270.png"" style= ""width:200px""alt=""img"">
                            </div>
                        </div>",0.195,"",0,"",NA,"","images/map23_YlGnBu_scaleRev_orientDef_270.png","sad",1,23,23,"YlGnBu","orientDef","scaleRev","270",NA,NA
"","","","","","html-slider-response",135,364119,"0.0-131.0","tshvm1e447",20,NA,"<div style=""width:500px;"">
                            <p style=""font-size:50px; font-weight:bold;""
                            >sad</p>
                            <div style=""width:240px; margin: auto;"">
                                <img src=""images/map05_managua_scaleDef_orientMir_000.png"" style= ""width:200px""alt=""img"">
                            </div>
                        </div>",0.515,"",0,"",NA,"","images/map05_managua_scaleDef_orientMir_000.png","sad",1,5,5,"managua","orientMir","scaleDef","000",NA,NA
"","","","","","html-slider-response",136,366186,"0.0-132.0","tshvm1e447",20,NA,"<div style=""width:500px;"">
                            <p style=""font-size:50px; font-weight:bold;""
                            >sad</p>
                            <div style=""width:240px; margin: auto;"">
                                <img src=""images/map10_Greys_scaleDef_orientMir_180.png"" style= ""width:200px""alt=""img"">
                            </div>
                        </div>",1,"",0,"",NA,"","images/map10_Greys_scaleDef_orientMir_180.png","sad",1,10,10,"Greys","orientMir","scaleDef","180",NA,NA
"","","","","","html-slider-response",137,368568,"0.0-133.0","tshvm1e447",20,NA,"<div style=""width:500px;"">
                            <p style=""font-size:50px; font-weight:bold;""
                            >sad</p>
                            <div style=""width:240px; margin: auto;"">
                                <img src=""images/map02_Spectral_scaleDef_orientDef_180.png"" style= ""width:200px""alt=""img"">
                            </div>
                        </div>",0.13,"",0,"",NA,"","images/map02_Spectral_scaleDef_orientDef_180.png","sad",1,2,2,"Spectral","orientDef","scaleDef","180",NA,NA
"","","","","","html-slider-response",138,370351,"0.0-134.0","tshvm1e447",20,NA,"<div style=""width:500px;"">
                            <p style=""font-size:50px; font-weight:bold;""
                            >sad</p>
                            <div style=""width:240px; margin: auto;"">
                                <img src=""images/map13_Reds_scaleDef_orientDef_000.png"" style= ""width:200px""alt=""img"">
                            </div>
                        </div>",0.65,"",0,"",NA,"","images/map13_Reds_scaleDef_orientDef_000.png","sad",1,13,13,"Reds","orientDef","scaleDef","000",NA,NA
"","","","","","html-slider-response",139,372352,"0.0-135.0","tshvm1e447",20,NA,"<div style=""width:500px;"">
                            <p style=""font-size:50px; font-weight:bold;""
                            >sad</p>
                            <div style=""width:240px; margin: auto;"">
                                <img src=""images/map02_RdYlGn_scaleRev_orientDef_090.png"" style= ""width:200px""alt=""img"">
                            </div>
                        </div>",0.6725,"",0,"",NA,"","images/map02_RdYlGn_scaleRev_orientDef_090.png","sad",1,2,2,"RdYlGn","orientDef","scaleRev","090",NA,NA
"","","","","","html-slider-response",140,376084,"0.0-136.0","tshvm1e447",20,NA,"<div style=""width:500px;"">
                            <p style=""font-size:50px; font-weight:bold;""
                            >sad</p>
                            <div style=""width:240px; margin: auto;"">
                                <img src=""images/map02_Spectral_scaleRev_orientDef_270.png"" style= ""width:200px""alt=""img"">
                            </div>
                        </div>",0.655,"",0,"",NA,"","images/map02_Spectral_scaleRev_orientDef_270.png","sad",1,2,2,"Spectral","orientDef","scaleRev","270",NA,NA
"","","","","","html-button-response",141,377890,"0.0-137.0","tshvm1e447",20,1303,"<p>You are doing great!<br></br> You are halway done with the current block. When you are ready to continue, click the 'Continue' button.</p>",0.5,"",NA,"",NA,"","","",NA,NA,NA,"","","","",NA,NA
"","","","","","html-slider-response",142,379952,"0.0-138.0","tshvm1e447",20,NA,"<div style=""width:500px;"">
                            <p style=""font-size:50px; font-weight:bold;""
                            >sad</p>
                            <div style=""width:240px; margin: auto;"">
                                <img src=""images/map05_managua_scaleRev_orientMir_090.png"" style= ""width:200px""alt=""img"">
                            </div>
                        </div>",0.6125,"",0,"",NA,"","images/map05_managua_scaleRev_orientMir_090.png","sad",1,5,5,"managua","orientMir","scaleRev","090",NA,NA
"","","","","","html-slider-response",143,382401,"0.0-139.0","tshvm1e447",20,NA,"<div style=""width:500px;"">
                            <p style=""font-size:50px; font-weight:bold;""
                            >sad</p>
                            <div style=""width:240px; margin: auto;"">
                                <img src=""images/map23_YlGnBu_scaleDef_orientDef_180.png"" style= ""width:200px""alt=""img"">
                            </div>
                        </div>",0.5675,"",0,"",NA,"","images/map23_YlGnBu_scaleDef_orientDef_180.png","sad",1,23,23,"YlGnBu","orientDef","scaleDef","180",NA,NA
"","","","","","html-slider-response",144,384351,"0.0-140.0","tshvm1e447",20,NA,"<div style=""width:500px;"">
                            <p style=""font-size:50px; font-weight:bold;""
                            >sad</p>
                            <div style=""width:240px; margin: auto;"">
                                <img src=""images/map07_viridis_scaleDef_orientMir_000.png"" style= ""width:200px""alt=""img"">
                            </div>
                        </div>",0,"",0,"",NA,"","images/map07_viridis_scaleDef_orientMir_000.png","sad",1,7,7,"viridis","orientMir","scaleDef","000",NA,NA
"","","","","","html-slider-response",145,386070,"0.0-141.0","tshvm1e447",20,NA,"<div style=""width:500px;"">
                            <p style=""font-size:50px; font-weight:bold;""
                            >sad</p>
                            <div style=""width:240px; margin: auto;"">
                                <img src=""images/map26_PiYG_scaleRev_orientDef_270.png"" style= ""width:200px""alt=""img"">
                            </div>
                        </div>",0.645,"",0,"",NA,"","images/map26_PiYG_scaleRev_orientDef_270.png","sad",1,26,26,"PiYG","orientDef","scaleRev","270",NA,NA
"","","","","","html-slider-response",146,387885,"0.0-142.0","tshvm1e447",20,NA,"<div style=""width:500px;"">
                            <p style=""font-size:50px; font-weight:bold;""
                            >sad</p>
                            <div style=""width:240px; margin: auto;"">
                                <img src=""images/map02_RdYlGn_scaleDef_orientDef_000.png"" style= ""width:200px""alt=""img"">
                            </div>
                        </div>",0.8025,"",0,"",NA,"","images/map02_RdYlGn_scaleDef_orientDef_000.png","sad",1,2,2,"RdYlGn","orientDef","scaleDef","000",NA,NA
"","","","","","html-slider-response",147,390584,"0.0-143.0","tshvm1e447",20,NA,"<div style=""width:500px;"">
                            <p style=""font-size:50px; font-weight:bold;""
                            >sad</p>
                            <div style=""width:240px; margin: auto;"">
                                <img src=""images/map27_PuOr_scaleRev_orientDef_090.png"" style= ""width:200px""alt=""img"">
                            </div>
                        </div>",0.205,"",0,"",NA,"","images/map27_PuOr_scaleRev_orientDef_090.png","sad",1,27,27,"PuOr","orientDef","scaleRev","090",NA,NA
"","","","","","html-slider-response",148,392753,"0.0-144.0","tshvm1e447",20,NA,"<div style=""width:500px;"">
                            <p style=""font-size:50px; font-weight:bold;""
                            >sad</p>
                            <div style=""width:240px; margin: auto;"">
                                <img src=""images/map10_magma_scaleRev_orientDef_270.png"" style= ""width:200px""alt=""img"">
                            </div>
                        </div>",0.31,"",0,"",NA,"","images/map10_magma_scaleRev_orientDef_270.png","sad",1,10,10,"magma","orientDef","scaleRev","270",NA,NA
"","","","","","html-slider-response",149,395334,"0.0-145.0","tshvm1e447",20,NA,"<div style=""width:500px;"">
                            <p style=""font-size:50px; font-weight:bold;""
                            >sad</p>
                            <div style=""width:240px; margin: auto;"">
                                <img src=""images/map15_PuRd_scaleRev_orientDef_090.png"" style= ""width:200px""alt=""img"">
                            </div>
                        </div>",0.3025,"",0,"",NA,"","images/map15_PuRd_scaleRev_orientDef_090.png","sad",1,15,15,"PuRd","orientDef","scaleRev","090",NA,NA
"","","","","","html-slider-response",150,397501,"0.0-146.0","tshvm1e447",20,NA,"<div style=""width:500px;"">
                            <p style=""font-size:50px; font-weight:bold;""
                            >sad</p>
                            <div style=""width:240px; margin: auto;"">
                                <img src=""images/map10_inferno_scaleDef_orientDef_000.png"" style= ""width:200px""alt=""img"">
                            </div>
                        </div>",0.2575,"",0,"",NA,"","images/map10_inferno_scaleDef_orientDef_000.png","sad",1,10,10,"inferno","orientDef","scaleDef","000",NA,NA
"","","","","","html-slider-response",151,399151,"0.0-147.0","tshvm1e447",20,NA,"<div style=""width:500px;"">
                            <p style=""font-size:50px; font-weight:bold;""
                            >sad</p>
                            <div style=""width:240px; margin: auto;"">
                                <img src=""images/map10_Greys_scaleRev_orientMir_270.png"" style= ""width:200px""alt=""img"">
                            </div>
                        </div>",1,"",0,"",NA,"","images/map10_Greys_scaleRev_orientMir_270.png","sad",1,10,10,"Greys","orientMir","scaleRev","270",NA,NA
"","","","","","html-slider-response",152,400901,"0.0-148.0","tshvm1e447",20,NA,"<div style=""width:500px;"">
                            <p style=""font-size:50px; font-weight:bold;""
                            >sad</p>
                            <div style=""width:240px; margin: auto;"">
                                <img src=""images/map13_YlOrBr_scaleDef_orientDef_180.png"" style= ""width:200px""alt=""img"">
                            </div>
                        </div>",0.63,"",0,"",NA,"","images/map13_YlOrBr_scaleDef_orientDef_180.png","sad",1,13,13,"YlOrBr","orientDef","scaleDef","180",NA,NA
"","","","","","html-slider-response",153,402653,"0.0-149.0","tshvm1e447",20,NA,"<div style=""width:500px;"">
                            <p style=""font-size:50px; font-weight:bold;""
                            >sad</p>
                            <div style=""width:240px; margin: auto;"">
                                <img src=""images/map15_PuRd_scaleDef_orientDef_000.png"" style= ""width:200px""alt=""img"">
                            </div>
                        </div>",0.365,"",0,"",NA,"","images/map15_PuRd_scaleDef_orientDef_000.png","sad",1,15,15,"PuRd","orientDef","scaleDef","000",NA,NA
"","","","","","html-slider-response",154,404385,"0.0-150.0","tshvm1e447",20,NA,"<div style=""width:500px;"">
                            <p style=""font-size:50px; font-weight:bold;""
                            >sad</p>
                            <div style=""width:240px; margin: auto;"">
                                <img src=""images/map15_RdPu_scaleDef_orientDef_180.png"" style= ""width:200px""alt=""img"">
                            </div>
                        </div>",0.3025,"",0,"",NA,"","images/map15_RdPu_scaleDef_orientDef_180.png","sad",1,15,15,"RdPu","orientDef","scaleDef","180",NA,NA
"","","","","","html-slider-response",155,406251,"0.0-151.0","tshvm1e447",20,NA,"<div style=""width:500px;"">
                            <p style=""font-size:50px; font-weight:bold;""
                            >sad</p>
                            <div style=""width:240px; margin: auto;"">
                                <img src=""images/map13_OrRd_scaleRev_orientMir_270.png"" style= ""width:200px""alt=""img"">
                            </div>
                        </div>",0.6425,"",0,"",NA,"","images/map13_OrRd_scaleRev_orientMir_270.png","sad",1,13,13,"OrRd","orientMir","scaleRev","270",NA,NA
"","","","","","html-slider-response",156,410219,"0.0-152.0","tshvm1e447",20,NA,"<div style=""width:500px;"">
                            <p style=""font-size:50px; font-weight:bold;""
                            >sad</p>
                            <div style=""width:240px; margin: auto;"">
                                <img src=""images/map26_PRGn_scaleDef_orientMir_000.png"" style= ""width:200px""alt=""img"">
                            </div>
                        </div>",0.6875,"",0,"",NA,"","images/map26_PRGn_scaleDef_orientMir_000.png","sad",1,26,26,"PRGn","orientMir","scaleDef","000",NA,NA
"","","","","","html-slider-response",157,412701,"0.0-153.0","tshvm1e447",20,NA,"<div style=""width:500px;"">
                            <p style=""font-size:50px; font-weight:bold;""
                            >sad</p>
                            <div style=""width:240px; margin: auto;"">
                                <img src=""images/map13_YlOrRd_scaleRev_orientMir_090.png"" style= ""width:200px""alt=""img"">
                            </div>
                        </div>",0.35,"",0,"",NA,"","images/map13_YlOrRd_scaleRev_orientMir_090.png","sad",1,13,13,"YlOrRd","orientMir","scaleRev","090",NA,NA
"","","","","","html-slider-response",158,414835,"0.0-154.0","tshvm1e447",20,NA,"<div style=""width:500px;"">
                            <p style=""font-size:50px; font-weight:bold;""
                            >sad</p>
                            <div style=""width:240px; margin: auto;"">
                                <img src=""images/map26_BrBG_scaleRev_orientMir_270.png"" style= ""width:200px""alt=""img"">
                            </div>
                        </div>",0.575,"",0,"",NA,"","images/map26_BrBG_scaleRev_orientMir_270.png","sad",1,26,26,"BrBG","orientMir","scaleRev","270",NA,NA
"","","","","","html-slider-response",159,416884,"0.0-155.0","tshvm1e447",20,NA,"<div style=""width:500px;"">
                            <p style=""font-size:50px; font-weight:bold;""
                            >sad</p>
                            <div style=""width:240px; margin: auto;"">
                                <img src=""images/map02_bwr_scaleDef_orientMir_180.png"" style= ""width:200px""alt=""img"">
                            </div>
                        </div>",0,"",0,"",NA,"","images/map02_bwr_scaleDef_orientMir_180.png","sad",1,2,2,"bwr","orientMir","scaleDef","180",NA,NA
"","","","","","html-slider-response",160,418719,"0.0-156.0","tshvm1e447",20,NA,"<div style=""width:500px;"">
                            <p style=""font-size:50px; font-weight:bold;""
                            >sad</p>
                            <div style=""width:240px; margin: auto;"">
                                <img src=""images/map07_plasma_scaleDef_orientMir_180.png"" style= ""width:200px""alt=""img"">
                            </div>
                        </div>",0.1025,"",0,"",NA,"","images/map07_plasma_scaleDef_orientMir_180.png","sad",1,7,7,"plasma","orientMir","scaleDef","180",NA,NA
"","","","","","html-slider-response",161,420616,"0.0-157.0","tshvm1e447",20,NA,"<div style=""width:500px;"">
                            <p style=""font-size:50px; font-weight:bold;""
                            >sad</p>
                            <div style=""width:240px; margin: auto;"">
                                <img src=""images/map27_RdBu_scaleDef_orientMir_000.png"" style= ""width:200px""alt=""img"">
                            </div>
                        </div>",0.0025,"",0,"",NA,"","images/map27_RdBu_scaleDef_orientMir_000.png","sad",1,27,27,"RdBu","orientMir","scaleDef","000",NA,NA
"","","","","","html-slider-response",162,422684,"0.0-158.0","tshvm1e447",20,NA,"<div style=""width:500px;"">
                            <p style=""font-size:50px; font-weight:bold;""
                            >sad</p>
                            <div style=""width:240px; margin: auto;"">
                                <img src=""images/map23_BuGn_scaleDef_orientMir_180.png"" style= ""width:200px""alt=""img"">
                            </div>
                        </div>",0.385,"",0,"",NA,"","images/map23_BuGn_scaleDef_orientMir_180.png","sad",1,23,23,"BuGn","orientMir","scaleDef","180",NA,NA
