"success","timeout","failed_images","failed_audio","failed_video","trial_type","trial_index","time_elapsed","internal_node_id","subject_id","condition_num","rt","stimulus","response","question_order","slider_start","practiceTrial","practiceTrialNum","correct","image_path","concept","repetition","map_id","map_num","scale_name","orientation_code","mapping_code","rotation_code","ishihara_plate","correct_response"
"true","false","[]","[]","[]","preload",0,467,"0.0-0.0","rc7syq3emr",38,NA,"",NA,"",NA,"",NA,"","","",NA,NA,NA,"","","","",NA,NA
"","","","","","html-button-response",1,2486,"0.0-1.0","rc7syq3emr",38,2017,"Welcome to our experiment!<p>At the bottom of this screen, you will see a button that says ""Begin Experiment"".<br>Please only click that button when you are ready to complete the 30 minute experiment in one sitting.</p><p> Once you click that button, it will not be possible to restart the experiment.",0.5,"",NA,"",NA,"","","",NA,NA,NA,"","","","",NA,NA
"true","","","","","fullscreen",2,4724,"0.0-2.0","rc7syq3emr",38,1222,"",NA,"",NA,"",NA,"","","",NA,NA,NA,"","","","",NA,NA
"","","","","","survey-multi-select",3,47351,"0.0-3.0","rc7syq3emr",38,42622,"",NA,"[0]",NA,"",NA,"","","",NA,NA,NA,"","","","",NA,NA
"","","","","","html-button-response",4,48788,"0.0-4.0","rc7syq3emr",38,1436,"Welcome! <p> This experiment involves two parts: demographic information, followed by the experimental task.<p> It will take about 30 minutes to complete both parts.",0.5,"",NA,"",NA,"","","",NA,NA,NA,"","","","",NA,NA
"","","","","","survey-text",5,63430,"0.0-5.0","rc7syq3emr",38,14632,"",NA,"",NA,"",NA,"","","",NA,NA,NA,"","","","",NA,NA
"","","","","","html-slider-response",6,66248,"0.0-6.0","rc7syq3emr",38,2814,"<div style='text-align:left; font-size:20px; line-height:25px; width: 1000px;'>
                                During this experiment you will be asked to rate how much you associate maps with                    different concepts.<br> Below, you can see some examples of the maps you will be asked to rate. Above the maps
                    is the list of concepts.<br>You will be asked                    to rate how much you associate each map with each concept on a scale from 'not at all' to 'very much' like the
                    one below. <br><br>
                    Now, please look at the list of concepts and maps. For each concept, think about the map you associate 'very
                    much' with the concept.<br>                     When you see that map during the experiment, please rate it near the 'very much' endpoint of the
                    scale.<br>Now, please think about which map you associate 'not at all'                     with each concept. When you see that map during the experiment, please rate it near the 'not at all' endpoint
                    of the scale.<br>
                    Please use the full range of the scale. That is, if a map is somewhat associated with the concept, you would
                    click partway between the middle point and right side of the scale.                    You will be asked to rate each map for a given concept before moving on to the next concept.<br>Press the
                    'Continue' button for instructions on how to use the slider.                    <br>
                </div>

                <div style=""width: 500px; margin: 0 auto;"">
                    <!-- Centered text paragraphs -->
                    <div style=""text-align: center; width: 500px;"">
                        <p style=""font-size:25px; line-height:15px;"">
                            angry&nbsp;&nbsp;&nbsp;&nbsp;
                            disgust&nbsp;&nbsp;&nbsp;&nbsp;
                            sad&nbsp;&nbsp;&nbsp;&nbsp;
                            fearful&nbsp;&nbsp;&nbsp;&nbsp;
                            happy
                        </p>
                        <!-- <p style=""font-size:20px; line-height:15px;"">disgust</p>
                        <p style=""font-size:20px;line-height:15px;"">sad</p>
                        <p style=""font-size:20px;line-height:15px;"">fearful</p>
                        <p style=""font-size:20px;line-height:15px;"">happy</p> -->
                    </div>
            

                    <!-- Grid section -->
                   <div style=""display: flex; justify-content: center; padding-top: 15px;"">
                    <div style=""display: grid; grid-template-columns: repeat(10, 55px); grid-gap: 5px; width: auto;"">
                        <img src=""images/map05_PuOr_scaleRev_orientDef_270.png"" alt=""map"" style=""width: 100%;""><img src=""images/map10_bwr_scaleRev_orientDef_090.png"" alt=""map"" style=""width: 100%;""><img src=""images/map07_Spectral_scaleDef_orientMir_000.png"" alt=""map"" style=""width: 100%;""><img src=""images/map15_Greens_scaleRev_orientMir_270.png"" alt=""map"" style=""width: 100%;""><img src=""images/map10_seismic_scaleRev_orientDef_270.png"" alt=""map"" style=""width: 100%;""><img src=""images/map13_cividis_scaleRev_orientMir_270.png"" alt=""map"" style=""width: 100%;""><img src=""images/map26_OrRd_scaleDef_orientDef_000.png"" alt=""map"" style=""width: 100%;""><img src=""images/map05_RdBu_scaleRev_orientMir_270.png"" alt=""map"" style=""width: 100%;""><img src=""images/map13_inferno_scaleRev_orientDef_270.png"" alt=""map"" style=""width: 100%;""><img src=""images/map10_managua_scaleDef_orientMir_180.png"" alt=""map"" style=""width: 100%;""><img src=""images/map15_Purples_scaleRev_orientDef_270.png"" alt=""map"" style=""width: 100%;""><img src=""images/map23_Reds_scaleDef_orientDef_180.png"" alt=""map"" style=""width: 100%;""><img src=""images/map12_gist_earth_scaleDef_orientDef_180.png"" alt=""map"" style=""width: 100%;""><img src=""images/map05_RdGy_scaleDef_orientMir_000.png"" alt=""map"" style=""width: 100%;""><img src=""images/map12_turbo_scaleRev_orientMir_090.png"" alt=""map"" style=""width: 100%;""><img src=""images/map27_PuBuGn_scaleDef_orientMir_180.png"" alt=""map"" style=""width: 100%;""><img src=""images/map02_YlGn_scaleRev_orientDef_270.png"" alt=""map"" style=""width: 100%;""><img src=""images/map26_PuRd_scaleDef_orientDef_180.png"" alt=""map"" style=""width: 100%;""><img src=""images/map26_BuPu_scaleRev_orientMir_270.png"" alt=""map"" style=""width: 100%;""><img src=""images/map27_YlGnBu_scaleRev_orientMir_090.png"" alt=""map"" style=""width: 100%;""><img src=""images/map02_BuGn_scaleDef_orientDef_000.png"" alt=""map"" style=""width: 100%;""><img src=""images/map07_RdYlGn_scaleRev_orientDef_270.png"" alt=""map"" style=""width: 100%;""><img src=""images/map23_YlOrBr_scaleRev_orientMir_090.png"" alt=""map"" style=""width: 100%;""><img src=""images/map13_magma_scaleRev_orientMir_090.png"" alt=""map"" style=""width: 100%;""><img src=""images/map12_viridis_scaleDef_orientMir_180.png"" alt=""map"" style=""width: 100%;""><img src=""images/map07_coolwarm_scaleRev_orientMir_270.png"" alt=""map"" style=""width: 100%;""><img src=""images/map02_PRGn_scaleRev_orientMir_270.png"" alt=""map"" style=""width: 100%;""><img src=""images/map10_berlin_scaleRev_orientMir_090.png"" alt=""map"" style=""width: 100%;""><img src=""images/map23_Oranges_scaleDef_orientDef_000.png"" alt=""map"" style=""width: 100%;""><img src=""images/map27_PuBu_scaleDef_orientDef_180.png"" alt=""map"" style=""width: 100%;""><img src=""images/map02_PiYG_scaleDef_orientMir_000.png"" alt=""map"" style=""width: 100%;""><img src=""images/map15_Greys_scaleDef_orientDef_000.png"" alt=""map"" style=""width: 100%;""><img src=""images/map15_Blues_scaleDef_orientMir_000.png"" alt=""map"" style=""width: 100%;""><img src=""images/map07_RdYlBu_scaleDef_orientDef_000.png"" alt=""map"" style=""width: 100%;""><img src=""images/map05_BrBG_scaleRev_orientDef_090.png"" alt=""map"" style=""width: 100%;""><img src=""images/map23_YlOrRd_scaleDef_orientMir_180.png"" alt=""map"" style=""width: 100%;""><img src=""images/map12_vanimo_scaleRev_orientDef_090.png"" alt=""map"" style=""width: 100%;""><img src=""images/map26_RdPu_scaleRev_orientMir_090.png"" alt=""map"" style=""width: 100%;""><img src=""images/map13_plasma_scaleRev_orientDef_090.png"" alt=""map"" style=""width: 100%;""><img src=""images/map27_GnBu_scaleRev_orientDef_090.png"" alt=""map"" style=""width: 100%;"">
                    </div>
                </div>

                    <!-- Clear floats -->
                    <div style=""clear: both;""></div>
                </div>
                            ",0.515,"",0,"true",NA,"","","",NA,NA,NA,"","","","",NA,NA
"","","","","","html-button-response",7,66852,"0.0-7.0","rc7syq3emr",38,603,"<div style=""width:800px;""><p style=""text-align:left"">To move the slider, click and drag your cursor to the location of the scale where you would like to make your rating and then let go. When you let go of the slider, your response will be recorded and the next trial will begin. <br>
                    We are interested in your initial impressions of each map for the given concept, so please go with your first intuition. <br>
                    Before you begin the experiment, there will be four training trials for you to practice using the scale. <br>
                     When you are ready to start the training trials, please click ""Continue"".</p><br></div>",0.5,"",NA,"",NA,"","","",NA,NA,NA,"","","","",NA,NA
"","","","","","html-slider-response",8,67677,"0.0-8.0-0.0","rc7syq3emr",38,NA,"<div style=""width:500px;"">
                                    <p style=""font-size:25px;"">Please move the slider all the way to the <br> right endpoint of the scale</p>

                                    </div>
                                </div>",0.505,"",0,"true",0,"false","","",NA,NA,NA,"","","","",NA,NA
"","","","","","html-button-response",9,69932,"0.0-8.0-1.0","rc7syq3emr",38,1743,"<p align='center'><b>Not quite!</b> The slider was not placed near the instructed located. Click on 'Continue' to try again. </p>",0.5,"",NA,"",NA,"","","",NA,NA,NA,"","","","",NA,NA
"","","","","","html-slider-response",10,71291,"0.0-8.1-0.1","rc7syq3emr",38,NA,"<div style=""width:500px;"">
                                    <p style=""font-size:25px;"">Please move the slider all the way to the <br> right endpoint of the scale</p>

                                    </div>
                                </div>",1,"",0,"true",0,"true","","",NA,NA,NA,"","","","",NA,NA
"","","","","","html-button-response",11,72348,"0.0-8.1-1.1","rc7syq3emr",38,554,"<p align='center'><b>Good job!</b> Click on 'Continue' to proceed.</p>",0.5,"",NA,"",NA,"","","",NA,NA,NA,"","","","",NA,NA
"","","","","","html-slider-response",12,73182,"0.0-9.0-0.0","rc7syq3emr",38,NA,"<div style=""width:500px;"">
                                    <p style=""font-size:25px;"">Please move the slider all the way to the <br> left endpoint of the scale</p>

                                    </div>
                                </div>",0,"",0,"true",1,"true","","",NA,NA,NA,"","","","",NA,NA
"","","","","","html-button-response",13,74784,"0.0-9.0-1.0","rc7syq3emr",38,1092,"<p align='center'><b>Good job!</b> Click on 'Continue' to proceed.</p>",0.5,"",NA,"",NA,"","","",NA,NA,NA,"","","","",NA,NA
"","","","","","html-slider-response",14,77535,"0.0-10.0-0.0","rc7syq3emr",38,NA,"<div style=""width:500px;"">
                                    <p style=""font-size:25px;"">Please move the slider halfway between the center and right endpoint of the scale</p>

                                    </div>
                                </div>",0.765,"",0,"true",2,"true","","",NA,NA,NA,"","","","",NA,NA
"","","","","","html-button-response",15,78475,"0.0-10.0-1.0","rc7syq3emr",38,434,"<p align='center'><b>Good job!</b> Click on 'Continue' to proceed.</p>",0.5,"",NA,"",NA,"","","",NA,NA,NA,"","","","",NA,NA
"","","","","","html-slider-response",16,79455,"0.0-11.0-0.0","rc7syq3emr",38,NA,"<div style=""width:500px;"">
                                    <p style=""font-size:25px;"">Please move the slider halfway between the center and left endpoint of the scale</p>

                                    </div>
                                </div>",0.245,"",0,"true",3,"true","","",NA,NA,NA,"","","","",NA,NA
"","","","","","html-button-response",17,80979,"0.0-11.0-1.0","rc7syq3emr",38,1007,"<p align='center'><b>Good job!</b> Click on 'Continue' to proceed.</p>",0.5,"",NA,"",NA,"","","",NA,NA,NA,"","","","",NA,NA
"","","","","","html-button-response",18,81715,"0.0-12.0","rc7syq3emr",38,734,"<p>Great job! You've completed the practice trials. Now you will begin the main task.</p>",0.5,"",NA,"",NA,"","","",NA,NA,NA,"","","","",NA,NA
"","","","","","html-button-response",19,120511,"0.0-13.0","rc7syq3emr",38,38795,"<p>In this block of trials, you will be asked to rate how much you associate each map with:</p > <p style = 'font-size:150%; font-weight: bold'>angry</p><br></br>",0.5,"",NA,"",NA,"","","",NA,NA,NA,"","","","",NA,NA
"","","","","","html-slider-response",20,122020,"0.0-14.0","rc7syq3emr",38,NA,"<div style=""width:500px;"">
                            <p style=""font-size:50px; font-weight:bold;""
                            >angry</p>
                            <div style=""width:240px; margin: auto;"">
                                <img src=""images/map23_YlOrRd_scaleRev_orientMir_270.png"" style= ""width:200px""alt=""img"">
                            </div>
                        </div>",0.84,"",0,"",NA,"","images/map23_YlOrRd_scaleRev_orientMir_270.png","angry",1,23,23,"YlOrRd","orientMir","scaleRev","270",NA,NA
"","","","","","html-slider-response",21,123961,"0.0-15.0","rc7syq3emr",38,NA,"<div style=""width:500px;"">
                            <p style=""font-size:50px; font-weight:bold;""
                            >angry</p>
                            <div style=""width:240px; margin: auto;"">
                                <img src=""images/map12_viridis_scaleRev_orientMir_270.png"" style= ""width:200px""alt=""img"">
                            </div>
                        </div>",0.175,"",0,"",NA,"","images/map12_viridis_scaleRev_orientMir_270.png","angry",1,12,12,"viridis","orientMir","scaleRev","270",NA,NA
"","","","","","html-slider-response",22,125421,"0.0-16.0","rc7syq3emr",38,NA,"<div style=""width:500px;"">
                            <p style=""font-size:50px; font-weight:bold;""
                            >angry</p>
                            <div style=""width:240px; margin: auto;"">
                                <img src=""images/map02_PRGn_scaleDef_orientMir_180.png"" style= ""width:200px""alt=""img"">
                            </div>
                        </div>",0.2425,"",0,"",NA,"","images/map02_PRGn_scaleDef_orientMir_180.png","angry",1,2,2,"PRGn","orientMir","scaleDef","180",NA,NA
"","","","","","html-slider-response",23,126920,"0.0-17.0","rc7syq3emr",38,NA,"<div style=""width:500px;"">
                            <p style=""font-size:50px; font-weight:bold;""
                            >angry</p>
                            <div style=""width:240px; margin: auto;"">
                                <img src=""images/map27_GnBu_scaleRev_orientDef_090.png"" style= ""width:200px""alt=""img"">
                            </div>
                        </div>",0.1875,"",0,"",NA,"","images/map27_GnBu_scaleRev_orientDef_090.png","angry",1,27,27,"GnBu","orientDef","scaleRev","090",NA,NA
"","","","","","html-slider-response",24,128414,"0.0-18.0","rc7syq3emr",38,NA,"<div style=""width:500px;"">
                            <p style=""font-size:50px; font-weight:bold;""
                            >angry</p>
                            <div style=""width:240px; margin: auto;"">
                                <img src=""images/map10_berlin_scaleRev_orientMir_090.png"" style= ""width:200px""alt=""img"">
                            </div>
                        </div>",0.6875,"",0,"",NA,"","images/map10_berlin_scaleRev_orientMir_090.png","angry",1,10,10,"berlin","orientMir","scaleRev","090",NA,NA
"","","","","","html-slider-response",25,129870,"0.0-19.0","rc7syq3emr",38,NA,"<div style=""width:500px;"">
                            <p style=""font-size:50px; font-weight:bold;""
                            >angry</p>
                            <div style=""width:240px; margin: auto;"">
                                <img src=""images/map05_BrBG_scaleRev_orientDef_090.png"" style= ""width:200px""alt=""img"">
                            </div>
                        </div>",0.1875,"",0,"",NA,"","images/map05_BrBG_scaleRev_orientDef_090.png","angry",1,5,5,"BrBG","orientDef","scaleRev","090",NA,NA
"","","","","","html-slider-response",26,131150,"0.0-20.0","rc7syq3emr",38,NA,"<div style=""width:500px;"">
                            <p style=""font-size:50px; font-weight:bold;""
                            >angry</p>
                            <div style=""width:240px; margin: auto;"">
                                <img src=""images/map02_YlGn_scaleDef_orientDef_180.png"" style= ""width:200px""alt=""img"">
                            </div>
                        </div>",0.0975,"",0,"",NA,"","images/map02_YlGn_scaleDef_orientDef_180.png","angry",1,2,2,"YlGn","orientDef","scaleDef","180",NA,NA
"","","","","","html-slider-response",27,132658,"0.0-21.0","rc7syq3emr",38,NA,"<div style=""width:500px;"">
                            <p style=""font-size:50px; font-weight:bold;""
                            >angry</p>
                            <div style=""width:240px; margin: auto;"">
                                <img src=""images/map12_turbo_scaleRev_orientMir_090.png"" style= ""width:200px""alt=""img"">
                            </div>
                        </div>",0.635,"",0,"",NA,"","images/map12_turbo_scaleRev_orientMir_090.png","angry",1,12,12,"turbo","orientMir","scaleRev","090",NA,NA
"","","","","","html-slider-response",28,134106,"0.0-22.0","rc7syq3emr",38,NA,"<div style=""width:500px;"">
                            <p style=""font-size:50px; font-weight:bold;""
                            >angry</p>
                            <div style=""width:240px; margin: auto;"">
                                <img src=""images/map12_gist_earth_scaleDef_orientDef_180.png"" style= ""width:200px""alt=""img"">
                            </div>
                        </div>",0.2225,"",0,"",NA,"","images/map12_gist_earth_scaleDef_orientDef_180.png","angry",1,12,12,"gist","scaleDef","earth","orientDef",NA,NA
"","","","","","html-slider-response",29,135483,"0.0-23.0","rc7syq3emr",38,NA,"<div style=""width:500px;"">
                            <p style=""font-size:50px; font-weight:bold;""
                            >angry</p>
                            <div style=""width:240px; margin: auto;"">
                                <img src=""images/map07_coolwarm_scaleDef_orientMir_180.png"" style= ""width:200px""alt=""img"">
                            </div>
                        </div>",0.645,"",0,"",NA,"","images/map07_coolwarm_scaleDef_orientMir_180.png","angry",1,7,7,"coolwarm","orientMir","scaleDef","180",NA,NA
"","","","","","html-slider-response",30,136962,"0.0-24.0","rc7syq3emr",38,NA,"<div style=""width:500px;"">
                            <p style=""font-size:50px; font-weight:bold;""
                            >angry</p>
                            <div style=""width:240px; margin: auto;"">
                                <img src=""images/map15_Greys_scaleRev_orientDef_090.png"" style= ""width:200px""alt=""img"">
                            </div>
                        </div>",0.6875,"",0,"",NA,"","images/map15_Greys_scaleRev_orientDef_090.png","angry",1,15,15,"Greys","orientDef","scaleRev","090",NA,NA
"","","","","","html-slider-response",31,138377,"0.0-25.0","rc7syq3emr",38,NA,"<div style=""width:500px;"">
                            <p style=""font-size:50px; font-weight:bold;""
                            >angry</p>
                            <div style=""width:240px; margin: auto;"">
                                <img src=""images/map15_Blues_scaleRev_orientMir_090.png"" style= ""width:200px""alt=""img"">
                            </div>
                        </div>",0.315,"",0,"",NA,"","images/map15_Blues_scaleRev_orientMir_090.png","angry",1,15,15,"Blues","orientMir","scaleRev","090",NA,NA
"","","","","","html-slider-response",32,139691,"0.0-26.0","rc7syq3emr",38,NA,"<div style=""width:500px;"">
                            <p style=""font-size:50px; font-weight:bold;""
                            >angry</p>
                            <div style=""width:240px; margin: auto;"">
                                <img src=""images/map15_Greens_scaleDef_orientMir_180.png"" style= ""width:200px""alt=""img"">
                            </div>
                        </div>",0.195,"",0,"",NA,"","images/map15_Greens_scaleDef_orientMir_180.png","angry",1,15,15,"Greens","orientMir","scaleDef","180",NA,NA
"","","","","","html-slider-response",33,141101,"0.0-27.0","rc7syq3emr",38,NA,"<div style=""width:500px;"">
                            <p style=""font-size:50px; font-weight:bold;""
                            >angry</p>
                            <div style=""width:240px; margin: auto;"">
                                <img src=""images/map12_gist_earth_scaleRev_orientDef_270.png"" style= ""width:200px""alt=""img"">
                            </div>
                        </div>",0.255,"",0,"",NA,"","images/map12_gist_earth_scaleRev_orientDef_270.png","angry",1,12,12,"gist","scaleRev","earth","orientDef",NA,NA
"","","","","","html-slider-response",34,142601,"0.0-28.0","rc7syq3emr",38,NA,"<div style=""width:500px;"">
                            <p style=""font-size:50px; font-weight:bold;""
                            >angry</p>
                            <div style=""width:240px; margin: auto;"">
                                <img src=""images/map12_turbo_scaleDef_orientMir_000.png"" style= ""width:200px""alt=""img"">
                            </div>
                        </div>",0.6275,"",0,"",NA,"","images/map12_turbo_scaleDef_orientMir_000.png","angry",1,12,12,"turbo","orientMir","scaleDef","000",NA,NA
"","","","","","html-slider-response",35,143970,"0.0-29.0","rc7syq3emr",38,NA,"<div style=""width:500px;"">
                            <p style=""font-size:50px; font-weight:bold;""
                            >angry</p>
                            <div style=""width:240px; margin: auto;"">
                                <img src=""images/map15_Purples_scaleDef_orientDef_180.png"" style= ""width:200px""alt=""img"">
                            </div>
                        </div>",0.1875,"",0,"",NA,"","images/map15_Purples_scaleDef_orientDef_180.png","angry",1,15,15,"Purples","orientDef","scaleDef","180",NA,NA
"","","","","","html-slider-response",36,145534,"0.0-30.0","rc7syq3emr",38,NA,"<div style=""width:500px;"">
                            <p style=""font-size:50px; font-weight:bold;""
                            >angry</p>
                            <div style=""width:240px; margin: auto;"">
                                <img src=""images/map27_GnBu_scaleDef_orientDef_000.png"" style= ""width:200px""alt=""img"">
                            </div>
                        </div>",0.0725,"",0,"",NA,"","images/map27_GnBu_scaleDef_orientDef_000.png","angry",1,27,27,"GnBu","orientDef","scaleDef","000",NA,NA
"","","","","","html-slider-response",37,147007,"0.0-31.0","rc7syq3emr",38,NA,"<div style=""width:500px;"">
                            <p style=""font-size:50px; font-weight:bold;""
                            >angry</p>
                            <div style=""width:240px; margin: auto;"">
                                <img src=""images/map26_PuRd_scaleDef_orientDef_180.png"" style= ""width:200px""alt=""img"">
                            </div>
                        </div>",0.7725,"",0,"",NA,"","images/map26_PuRd_scaleDef_orientDef_180.png","angry",1,26,26,"PuRd","orientDef","scaleDef","180",NA,NA
"","","","","","html-slider-response",38,148510,"0.0-32.0","rc7syq3emr",38,NA,"<div style=""width:500px;"">
                            <p style=""font-size:50px; font-weight:bold;""
                            >angry</p>
                            <div style=""width:240px; margin: auto;"">
                                <img src=""images/map23_Reds_scaleRev_orientDef_270.png"" style= ""width:200px""alt=""img"">
                            </div>
                        </div>",0.9275,"",0,"",NA,"","images/map23_Reds_scaleRev_orientDef_270.png","angry",1,23,23,"Reds","orientDef","scaleRev","270",NA,NA
"","","","","","html-slider-response",39,149969,"0.0-33.0","rc7syq3emr",38,NA,"<div style=""width:500px;"">
                            <p style=""font-size:50px; font-weight:bold;""
                            >angry</p>
                            <div style=""width:240px; margin: auto;"">
                                <img src=""images/map13_cividis_scaleRev_orientMir_270.png"" style= ""width:200px""alt=""img"">
                            </div>
                        </div>",0.1225,"",0,"",NA,"","images/map13_cividis_scaleRev_orientMir_270.png","angry",1,13,13,"cividis","orientMir","scaleRev","270",NA,NA
"","","","","","html-slider-response",40,151438,"0.0-34.0","rc7syq3emr",38,NA,"<div style=""width:500px;"">
                            <p style=""font-size:50px; font-weight:bold;""
                            >angry</p>
                            <div style=""width:240px; margin: auto;"">
                                <img src=""images/map07_RdYlGn_scaleDef_orientDef_180.png"" style= ""width:200px""alt=""img"">
                            </div>
                        </div>",0.655,"",0,"",NA,"","images/map07_RdYlGn_scaleDef_orientDef_180.png","angry",1,7,7,"RdYlGn","orientDef","scaleDef","180",NA,NA
"","","","","","html-slider-response",41,152900,"0.0-35.0","rc7syq3emr",38,NA,"<div style=""width:500px;"">
                            <p style=""font-size:50px; font-weight:bold;""
                            >angry</p>
                            <div style=""width:240px; margin: auto;"">
                                <img src=""images/map23_YlOrRd_scaleDef_orientMir_180.png"" style= ""width:200px""alt=""img"">
                            </div>
                        </div>",0.925,"",0,"",NA,"","images/map23_YlOrRd_scaleDef_orientMir_180.png","angry",1,23,23,"YlOrRd","orientMir","scaleDef","180",NA,NA
"","","","","","html-slider-response",42,154297,"0.0-36.0","rc7syq3emr",38,NA,"<div style=""width:500px;"">
                            <p style=""font-size:50px; font-weight:bold;""
                            >angry</p>
                            <div style=""width:240px; margin: auto;"">
                                <img src=""images/map27_PuBuGn_scaleDef_orientMir_180.png"" style= ""width:200px""alt=""img"">
                            </div>
                        </div>",0.1525,"",0,"",NA,"","images/map27_PuBuGn_scaleDef_orientMir_180.png","angry",1,27,27,"PuBuGn","orientMir","scaleDef","180",NA,NA
"","","","","","html-slider-response",43,155582,"0.0-37.0","rc7syq3emr",38,NA,"<div style=""width:500px;"">
                            <p style=""font-size:50px; font-weight:bold;""
                            >angry</p>
                            <div style=""width:240px; margin: auto;"">
                                <img src=""images/map13_plasma_scaleRev_orientDef_090.png"" style= ""width:200px""alt=""img"">
                            </div>
                        </div>",0.6675,"",0,"",NA,"","images/map13_plasma_scaleRev_orientDef_090.png","angry",1,13,13,"plasma","orientDef","scaleRev","090",NA,NA
"","","","","","html-slider-response",44,157187,"0.0-38.0","rc7syq3emr",38,NA,"<div style=""width:500px;"">
                            <p style=""font-size:50px; font-weight:bold;""
                            >angry</p>
                            <div style=""width:240px; margin: auto;"">
                                <img src=""images/map15_Blues_scaleDef_orientMir_000.png"" style= ""width:200px""alt=""img"">
                            </div>
                        </div>",0.095,"",0,"",NA,"","images/map15_Blues_scaleDef_orientMir_000.png","angry",1,15,15,"Blues","orientMir","scaleDef","000",NA,NA
"","","","","","html-slider-response",45,158927,"0.0-39.0","rc7syq3emr",38,NA,"<div style=""width:500px;"">
                            <p style=""font-size:50px; font-weight:bold;""
                            >angry</p>
                            <div style=""width:240px; margin: auto;"">
                                <img src=""images/map10_seismic_scaleDef_orientDef_180.png"" style= ""width:200px""alt=""img"">
                            </div>
                        </div>",0.88,"",0,"",NA,"","images/map10_seismic_scaleDef_orientDef_180.png","angry",1,10,10,"seismic","orientDef","scaleDef","180",NA,NA
"","","","","","html-slider-response",46,160275,"0.0-40.0","rc7syq3emr",38,NA,"<div style=""width:500px;"">
                            <p style=""font-size:50px; font-weight:bold;""
                            >angry</p>
                            <div style=""width:240px; margin: auto;"">
                                <img src=""images/map13_plasma_scaleDef_orientDef_000.png"" style= ""width:200px""alt=""img"">
                            </div>
                        </div>",0.365,"",0,"",NA,"","images/map13_plasma_scaleDef_orientDef_000.png","angry",1,13,13,"plasma","orientDef","scaleDef","000",NA,NA
"","","","","","html-slider-response",47,161758,"0.0-41.0","rc7syq3emr",38,NA,"<div style=""width:500px;"">
                            <p style=""font-size:50px; font-weight:bold;""
                            >angry</p>
                            <div style=""width:240px; margin: auto;"">
                                <img src=""images/map10_bwr_scaleRev_orientDef_090.png"" style= ""width:200px""alt=""img"">
                            </div>
                        </div>",0.855,"",0,"",NA,"","images/map10_bwr_scaleRev_orientDef_090.png","angry",1,10,10,"bwr","orientDef","scaleRev","090",NA,NA
"","","","","","html-slider-response",48,163511,"0.0-42.0","rc7syq3emr",38,NA,"<div style=""width:500px;"">
                            <p style=""font-size:50px; font-weight:bold;""
                            >angry</p>
                            <div style=""width:240px; margin: auto;"">
                                <img src=""images/map05_RdBu_scaleDef_orientMir_180.png"" style= ""width:200px""alt=""img"">
                            </div>
                        </div>",0.595,"",0,"",NA,"","images/map05_RdBu_scaleDef_orientMir_180.png","angry",1,5,5,"RdBu","orientMir","scaleDef","180",NA,NA
"","","","","","html-slider-response",49,164724,"0.0-43.0","rc7syq3emr",38,NA,"<div style=""width:500px;"">
                            <p style=""font-size:50px; font-weight:bold;""
                            >angry</p>
                            <div style=""width:240px; margin: auto;"">
                                <img src=""images/map05_PuOr_scaleDef_orientDef_180.png"" style= ""width:200px""alt=""img"">
                            </div>
                        </div>",0.2275,"",0,"",NA,"","images/map05_PuOr_scaleDef_orientDef_180.png","angry",1,5,5,"PuOr","orientDef","scaleDef","180",NA,NA
"","","","","","html-slider-response",50,166508,"0.0-44.0","rc7syq3emr",38,NA,"<div style=""width:500px;"">
                            <p style=""font-size:50px; font-weight:bold;""
                            >angry</p>
                            <div style=""width:240px; margin: auto;"">
                                <img src=""images/map13_inferno_scaleRev_orientDef_270.png"" style= ""width:200px""alt=""img"">
                            </div>
                        </div>",0.4075,"",0,"",NA,"","images/map13_inferno_scaleRev_orientDef_270.png","angry",1,13,13,"inferno","orientDef","scaleRev","270",NA,NA
"","","","","","html-slider-response",51,167924,"0.0-45.0","rc7syq3emr",38,NA,"<div style=""width:500px;"">
                            <p style=""font-size:50px; font-weight:bold;""
                            >angry</p>
                            <div style=""width:240px; margin: auto;"">
                                <img src=""images/map05_RdBu_scaleRev_orientMir_270.png"" style= ""width:200px""alt=""img"">
                            </div>
                        </div>",0.725,"",0,"",NA,"","images/map05_RdBu_scaleRev_orientMir_270.png","angry",1,5,5,"RdBu","orientMir","scaleRev","270",NA,NA
"","","","","","html-slider-response",52,169776,"0.0-46.0","rc7syq3emr",38,NA,"<div style=""width:500px;"">
                            <p style=""font-size:50px; font-weight:bold;""
                            >angry</p>
                            <div style=""width:240px; margin: auto;"">
                                <img src=""images/map05_RdGy_scaleDef_orientMir_000.png"" style= ""width:200px""alt=""img"">
                            </div>
                        </div>",0.915,"",0,"",NA,"","images/map05_RdGy_scaleDef_orientMir_000.png","angry",1,5,5,"RdGy","orientMir","scaleDef","000",NA,NA
"","","","","","html-slider-response",53,171336,"0.0-47.0","rc7syq3emr",38,NA,"<div style=""width:500px;"">
                            <p style=""font-size:50px; font-weight:bold;""
                            >angry</p>
                            <div style=""width:240px; margin: auto;"">
                                <img src=""images/map02_PiYG_scaleDef_orientMir_000.png"" style= ""width:200px""alt=""img"">
                            </div>
                        </div>",0.1725,"",0,"",NA,"","images/map02_PiYG_scaleDef_orientMir_000.png","angry",1,2,2,"PiYG","orientMir","scaleDef","000",NA,NA
"","","","","","html-slider-response",54,173030,"0.0-48.0","rc7syq3emr",38,NA,"<div style=""width:500px;"">
                            <p style=""font-size:50px; font-weight:bold;""
                            >angry</p>
                            <div style=""width:240px; margin: auto;"">
                                <img src=""images/map26_RdPu_scaleRev_orientMir_090.png"" style= ""width:200px""alt=""img"">
                            </div>
                        </div>",0.3675,"",0,"",NA,"","images/map26_RdPu_scaleRev_orientMir_090.png","angry",1,26,26,"RdPu","orientMir","scaleRev","090",NA,NA
"","","","","","html-slider-response",55,174370,"0.0-49.0","rc7syq3emr",38,NA,"<div style=""width:500px;"">
                            <p style=""font-size:50px; font-weight:bold;""
                            >angry</p>
                            <div style=""width:240px; margin: auto;"">
                                <img src=""images/map26_OrRd_scaleRev_orientDef_090.png"" style= ""width:200px""alt=""img"">
                            </div>
                        </div>",0.9125,"",0,"",NA,"","images/map26_OrRd_scaleRev_orientDef_090.png","angry",1,26,26,"OrRd","orientDef","scaleRev","090",NA,NA
"","","","","","html-slider-response",56,175798,"0.0-50.0","rc7syq3emr",38,NA,"<div style=""width:500px;"">
                            <p style=""font-size:50px; font-weight:bold;""
                            >angry</p>
                            <div style=""width:240px; margin: auto;"">
                                <img src=""images/map02_YlGn_scaleRev_orientDef_270.png"" style= ""width:200px""alt=""img"">
                            </div>
                        </div>",0.235,"",0,"",NA,"","images/map02_YlGn_scaleRev_orientDef_270.png","angry",1,2,2,"YlGn","orientDef","scaleRev","270",NA,NA
"","","","","","html-slider-response",57,177075,"0.0-51.0","rc7syq3emr",38,NA,"<div style=""width:500px;"">
                            <p style=""font-size:50px; font-weight:bold;""
                            >angry</p>
                            <div style=""width:240px; margin: auto;"">
                                <img src=""images/map07_coolwarm_scaleRev_orientMir_270.png"" style= ""width:200px""alt=""img"">
                            </div>
                        </div>",0.6125,"",0,"",NA,"","images/map07_coolwarm_scaleRev_orientMir_270.png","angry",1,7,7,"coolwarm","orientMir","scaleRev","270",NA,NA
"","","","","","html-slider-response",58,179708,"0.0-52.0","rc7syq3emr",38,NA,"<div style=""width:500px;"">
                            <p style=""font-size:50px; font-weight:bold;""
                            >angry</p>
                            <div style=""width:240px; margin: auto;"">
                                <img src=""images/map13_inferno_scaleDef_orientDef_180.png"" style= ""width:200px""alt=""img"">
                            </div>
                        </div>",0.515,"",0,"",NA,"","images/map13_inferno_scaleDef_orientDef_180.png","angry",1,13,13,"inferno","orientDef","scaleDef","180",NA,NA
"","","","","","html-slider-response",59,181149,"0.0-53.0","rc7syq3emr",38,NA,"<div style=""width:500px;"">
                            <p style=""font-size:50px; font-weight:bold;""
                            >angry</p>
                            <div style=""width:240px; margin: auto;"">
                                <img src=""images/map07_RdYlBu_scaleRev_orientDef_090.png"" style= ""width:200px""alt=""img"">
                            </div>
                        </div>",0.6925,"",0,"",NA,"","images/map07_RdYlBu_scaleRev_orientDef_090.png","angry",1,7,7,"RdYlBu","orientDef","scaleRev","090",NA,NA
"","","","","","html-button-response",60,182715,"0.0-54.0","rc7syq3emr",38,1064,"<p>You are doing great!<br></br> You are halway done with the current block. When you are ready to continue, click the 'Continue' button.</p>",0.5,"",NA,"",NA,"","","",NA,NA,NA,"","","","",NA,NA
"","","","","","html-slider-response",61,186503,"0.0-55.0","rc7syq3emr",38,NA,"<div style=""width:500px;"">
                            <p style=""font-size:50px; font-weight:bold;""
                            >angry</p>
                            <div style=""width:240px; margin: auto;"">
                                <img src=""images/map26_PuRd_scaleRev_orientDef_270.png"" style= ""width:200px""alt=""img"">
                            </div>
                        </div>",0.7275,"",0,"",NA,"","images/map26_PuRd_scaleRev_orientDef_270.png","angry",1,26,26,"PuRd","orientDef","scaleRev","270",NA,NA
"","","","","","html-slider-response",62,189958,"0.0-56.0","rc7syq3emr",38,NA,"<div style=""width:500px;"">
                            <p style=""font-size:50px; font-weight:bold;""
                            >angry</p>
                            <div style=""width:240px; margin: auto;"">
                                <img src=""images/map07_Spectral_scaleDef_orientMir_000.png"" style= ""width:200px""alt=""img"">
                            </div>
                        </div>",0.635,"",0,"",NA,"","images/map07_Spectral_scaleDef_orientMir_000.png","angry",1,7,7,"Spectral","orientMir","scaleDef","000",NA,NA
"","","","","","html-slider-response",63,211642,"0.0-57.0","rc7syq3emr",38,NA,"<div style=""width:500px;"">
                            <p style=""font-size:50px; font-weight:bold;""
                            >angry</p>
                            <div style=""width:240px; margin: auto;"">
                                <img src=""images/map05_RdGy_scaleRev_orientMir_090.png"" style= ""width:200px""alt=""img"">
                            </div>
                        </div>",0.7,"",0,"",NA,"","images/map05_RdGy_scaleRev_orientMir_090.png","angry",1,5,5,"RdGy","orientMir","scaleRev","090",NA,NA
"","","","","","html-slider-response",64,213790,"0.0-58.0","rc7syq3emr",38,NA,"<div style=""width:500px;"">
                            <p style=""font-size:50px; font-weight:bold;""
                            >angry</p>
                            <div style=""width:240px; margin: auto;"">
                                <img src=""images/map23_Oranges_scaleDef_orientDef_000.png"" style= ""width:200px""alt=""img"">
                            </div>
                        </div>",0.3725,"",0,"",NA,"","images/map23_Oranges_scaleDef_orientDef_000.png","angry",1,23,23,"Oranges","orientDef","scaleDef","000",NA,NA
"","","","","","html-slider-response",65,215719,"0.0-59.0","rc7syq3emr",38,NA,"<div style=""width:500px;"">
                            <p style=""font-size:50px; font-weight:bold;""
                            >angry</p>
                            <div style=""width:240px; margin: auto;"">
                                <img src=""images/map12_vanimo_scaleRev_orientDef_090.png"" style= ""width:200px""alt=""img"">
                            </div>
                        </div>",0.17,"",0,"",NA,"","images/map12_vanimo_scaleRev_orientDef_090.png","angry",1,12,12,"vanimo","orientDef","scaleRev","090",NA,NA
"","","","","","html-slider-response",66,217764,"0.0-60.0","rc7syq3emr",38,NA,"<div style=""width:500px;"">
                            <p style=""font-size:50px; font-weight:bold;""
                            >angry</p>
                            <div style=""width:240px; margin: auto;"">
                                <img src=""images/map27_YlGnBu_scaleRev_orientMir_090.png"" style= ""width:200px""alt=""img"">
                            </div>
                        </div>",0.1775,"",0,"",NA,"","images/map27_YlGnBu_scaleRev_orientMir_090.png","angry",1,27,27,"YlGnBu","orientMir","scaleRev","090",NA,NA
"","","","","","html-slider-response",67,220491,"0.0-61.0","rc7syq3emr",38,NA,"<div style=""width:500px;"">
                            <p style=""font-size:50px; font-weight:bold;""
                            >angry</p>
                            <div style=""width:240px; margin: auto;"">
                                <img src=""images/map15_Greens_scaleRev_orientMir_270.png"" style= ""width:200px""alt=""img"">
                            </div>
                        </div>",0.1725,"",0,"",NA,"","images/map15_Greens_scaleRev_orientMir_270.png","angry",1,15,15,"Greens","orientMir","scaleRev","270",NA,NA
"","","","","","html-slider-response",68,232055,"0.0-62.0","rc7syq3emr",38,NA,"<div style=""width:500px;"">
                            <p style=""font-size:50px; font-weight:bold;""
                            >angry</p>
                            <div style=""width:240px; margin: auto;"">
                                <img src=""images/map07_RdYlGn_scaleRev_orientDef_270.png"" style= ""width:200px""alt=""img"">
                            </div>
                        </div>",0.7425,"",0,"",NA,"","images/map07_RdYlGn_scaleRev_orientDef_270.png","angry",1,7,7,"RdYlGn","orientDef","scaleRev","270",NA,NA
"","","","","","html-slider-response",69,233590,"0.0-63.0","rc7syq3emr",38,NA,"<div style=""width:500px;"">
                            <p style=""font-size:50px; font-weight:bold;""
                            >angry</p>
                            <div style=""width:240px; margin: auto;"">
                                <img src=""images/map12_viridis_scaleDef_orientMir_180.png"" style= ""width:200px""alt=""img"">
                            </div>
                        </div>",0.2675,"",0,"",NA,"","images/map12_viridis_scaleDef_orientMir_180.png","angry",1,12,12,"viridis","orientMir","scaleDef","180",NA,NA
"","","","","","html-slider-response",70,235121,"0.0-64.0","rc7syq3emr",38,NA,"<div style=""width:500px;"">
                            <p style=""font-size:50px; font-weight:bold;""
                            >angry</p>
                            <div style=""width:240px; margin: auto;"">
                                <img src=""images/map23_YlOrBr_scaleRev_orientMir_090.png"" style= ""width:200px""alt=""img"">
                            </div>
                        </div>",0.4,"",0,"",NA,"","images/map23_YlOrBr_scaleRev_orientMir_090.png","angry",1,23,23,"YlOrBr","orientMir","scaleRev","090",NA,NA
"","","","","","html-slider-response",71,237030,"0.0-65.0","rc7syq3emr",38,NA,"<div style=""width:500px;"">
                            <p style=""font-size:50px; font-weight:bold;""
                            >angry</p>
                            <div style=""width:240px; margin: auto;"">
                                <img src=""images/map23_YlOrBr_scaleDef_orientMir_000.png"" style= ""width:200px""alt=""img"">
                            </div>
                        </div>",0.265,"",0,"",NA,"","images/map23_YlOrBr_scaleDef_orientMir_000.png","angry",1,23,23,"YlOrBr","orientMir","scaleDef","000",NA,NA
"","","","","","html-slider-response",72,240323,"0.0-66.0","rc7syq3emr",38,NA,"<div style=""width:500px;"">
                            <p style=""font-size:50px; font-weight:bold;""
                            >angry</p>
                            <div style=""width:240px; margin: auto;"">
                                <img src=""images/map23_Oranges_scaleRev_orientDef_090.png"" style= ""width:200px""alt=""img"">
                            </div>
                        </div>",0.5225,"",0,"",NA,"","images/map23_Oranges_scaleRev_orientDef_090.png","angry",1,23,23,"Oranges","orientDef","scaleRev","090",NA,NA
"","","","","","html-slider-response",73,241600,"0.0-67.0","rc7syq3emr",38,NA,"<div style=""width:500px;"">
                            <p style=""font-size:50px; font-weight:bold;""
                            >angry</p>
                            <div style=""width:240px; margin: auto;"">
                                <img src=""images/map13_magma_scaleRev_orientMir_090.png"" style= ""width:200px""alt=""img"">
                            </div>
                        </div>",0.6925,"",0,"",NA,"","images/map13_magma_scaleRev_orientMir_090.png","angry",1,13,13,"magma","orientMir","scaleRev","090",NA,NA
"","","","","","html-slider-response",74,242744,"0.0-68.0","rc7syq3emr",38,NA,"<div style=""width:500px;"">
                            <p style=""font-size:50px; font-weight:bold;""
                            >angry</p>
                            <div style=""width:240px; margin: auto;"">
                                <img src=""images/map02_BuGn_scaleDef_orientDef_000.png"" style= ""width:200px""alt=""img"">
                            </div>
                        </div>",0.1725,"",0,"",NA,"","images/map02_BuGn_scaleDef_orientDef_000.png","angry",1,2,2,"BuGn","orientDef","scaleDef","000",NA,NA
"","","","","","html-slider-response",75,244324,"0.0-69.0","rc7syq3emr",38,NA,"<div style=""width:500px;"">
                            <p style=""font-size:50px; font-weight:bold;""
                            >angry</p>
                            <div style=""width:240px; margin: auto;"">
                                <img src=""images/map23_Reds_scaleDef_orientDef_180.png"" style= ""width:200px""alt=""img"">
                            </div>
                        </div>",0.955,"",0,"",NA,"","images/map23_Reds_scaleDef_orientDef_180.png","angry",1,23,23,"Reds","orientDef","scaleDef","180",NA,NA
"","","","","","html-slider-response",76,245724,"0.0-70.0","rc7syq3emr",38,NA,"<div style=""width:500px;"">
                            <p style=""font-size:50px; font-weight:bold;""
                            >angry</p>
                            <div style=""width:240px; margin: auto;"">
                                <img src=""images/map10_seismic_scaleRev_orientDef_270.png"" style= ""width:200px""alt=""img"">
                            </div>
                        </div>",0.81,"",0,"",NA,"","images/map10_seismic_scaleRev_orientDef_270.png","angry",1,10,10,"seismic","orientDef","scaleRev","270",NA,NA
"","","","","","html-slider-response",77,247079,"0.0-71.0","rc7syq3emr",38,NA,"<div style=""width:500px;"">
                            <p style=""font-size:50px; font-weight:bold;""
                            >angry</p>
                            <div style=""width:240px; margin: auto;"">
                                <img src=""images/map02_PiYG_scaleRev_orientMir_090.png"" style= ""width:200px""alt=""img"">
                            </div>
                        </div>",0.1975,"",0,"",NA,"","images/map02_PiYG_scaleRev_orientMir_090.png","angry",1,2,2,"PiYG","orientMir","scaleRev","090",NA,NA
"","","","","","html-slider-response",78,248370,"0.0-72.0","rc7syq3emr",38,NA,"<div style=""width:500px;"">
                            <p style=""font-size:50px; font-weight:bold;""
                            >angry</p>
                            <div style=""width:240px; margin: auto;"">
                                <img src=""images/map27_PuBu_scaleRev_orientDef_270.png"" style= ""width:200px""alt=""img"">
                            </div>
                        </div>",0.1225,"",0,"",NA,"","images/map27_PuBu_scaleRev_orientDef_270.png","angry",1,27,27,"PuBu","orientDef","scaleRev","270",NA,NA
"","","","","","html-slider-response",79,249855,"0.0-73.0","rc7syq3emr",38,NA,"<div style=""width:500px;"">
                            <p style=""font-size:50px; font-weight:bold;""
                            >angry</p>
                            <div style=""width:240px; margin: auto;"">
                                <img src=""images/map27_PuBu_scaleDef_orientDef_180.png"" style= ""width:200px""alt=""img"">
                            </div>
                        </div>",0.1375,"",0,"",NA,"","images/map27_PuBu_scaleDef_orientDef_180.png","angry",1,27,27,"PuBu","orientDef","scaleDef","180",NA,NA
"","","","","","html-slider-response",80,251090,"0.0-74.0","rc7syq3emr",38,NA,"<div style=""width:500px;"">
                            <p style=""font-size:50px; font-weight:bold;""
                            >angry</p>
                            <div style=""width:240px; margin: auto;"">
                                <img src=""images/map07_Spectral_scaleRev_orientMir_090.png"" style= ""width:200px""alt=""img"">
                            </div>
                        </div>",0.5525,"",0,"",NA,"","images/map07_Spectral_scaleRev_orientMir_090.png","angry",1,7,7,"Spectral","orientMir","scaleRev","090",NA,NA
"","","","","","html-slider-response",81,252422,"0.0-75.0","rc7syq3emr",38,NA,"<div style=""width:500px;"">
                            <p style=""font-size:50px; font-weight:bold;""
                            >angry</p>
                            <div style=""width:240px; margin: auto;"">
                                <img src=""images/map26_OrRd_scaleDef_orientDef_000.png"" style= ""width:200px""alt=""img"">
                            </div>
                        </div>",0.895,"",0,"",NA,"","images/map26_OrRd_scaleDef_orientDef_000.png","angry",1,26,26,"OrRd","orientDef","scaleDef","000",NA,NA
"","","","","","html-slider-response",82,253804,"0.0-76.0","rc7syq3emr",38,NA,"<div style=""width:500px;"">
                            <p style=""font-size:50px; font-weight:bold;""
                            >angry</p>
                            <div style=""width:240px; margin: auto;"">
                                <img src=""images/map02_BuGn_scaleRev_orientDef_090.png"" style= ""width:200px""alt=""img"">
                            </div>
                        </div>",0.0975,"",0,"",NA,"","images/map02_BuGn_scaleRev_orientDef_090.png","angry",1,2,2,"BuGn","orientDef","scaleRev","090",NA,NA
"","","","","","html-slider-response",83,255542,"0.0-77.0","rc7syq3emr",38,NA,"<div style=""width:500px;"">
                            <p style=""font-size:50px; font-weight:bold;""
                            >angry</p>
                            <div style=""width:240px; margin: auto;"">
                                <img src=""images/map13_magma_scaleDef_orientMir_000.png"" style= ""width:200px""alt=""img"">
                            </div>
                        </div>",0.465,"",0,"",NA,"","images/map13_magma_scaleDef_orientMir_000.png","angry",1,13,13,"magma","orientMir","scaleDef","000",NA,NA
"","","","","","html-slider-response",84,256873,"0.0-78.0","rc7syq3emr",38,NA,"<div style=""width:500px;"">
                            <p style=""font-size:50px; font-weight:bold;""
                            >angry</p>
                            <div style=""width:240px; margin: auto;"">
                                <img src=""images/map07_RdYlBu_scaleDef_orientDef_000.png"" style= ""width:200px""alt=""img"">
                            </div>
                        </div>",0.6325,"",0,"",NA,"","images/map07_RdYlBu_scaleDef_orientDef_000.png","angry",1,7,7,"RdYlBu","orientDef","scaleDef","000",NA,NA
"","","","","","html-slider-response",85,258203,"0.0-79.0","rc7syq3emr",38,NA,"<div style=""width:500px;"">
                            <p style=""font-size:50px; font-weight:bold;""
                            >angry</p>
                            <div style=""width:240px; margin: auto;"">
                                <img src=""images/map27_PuBuGn_scaleRev_orientMir_270.png"" style= ""width:200px""alt=""img"">
                            </div>
                        </div>",0.085,"",0,"",NA,"","images/map27_PuBuGn_scaleRev_orientMir_270.png","angry",1,27,27,"PuBuGn","orientMir","scaleRev","270",NA,NA
"","","","","","html-slider-response",86,259606,"0.0-80.0","rc7syq3emr",38,NA,"<div style=""width:500px;"">
                            <p style=""font-size:50px; font-weight:bold;""
                            >angry</p>
                            <div style=""width:240px; margin: auto;"">
                                <img src=""images/map05_PuOr_scaleRev_orientDef_270.png"" style= ""width:200px""alt=""img"">
                            </div>
                        </div>",0.1925,"",0,"",NA,"","images/map05_PuOr_scaleRev_orientDef_270.png","angry",1,5,5,"PuOr","orientDef","scaleRev","270",NA,NA
"","","","","","html-slider-response",87,261068,"0.0-81.0","rc7syq3emr",38,NA,"<div style=""width:500px;"">
                            <p style=""font-size:50px; font-weight:bold;""
                            >angry</p>
                            <div style=""width:240px; margin: auto;"">
                                <img src=""images/map26_BuPu_scaleDef_orientMir_180.png"" style= ""width:200px""alt=""img"">
                            </div>
                        </div>",0.22,"",0,"",NA,"","images/map26_BuPu_scaleDef_orientMir_180.png","angry",1,26,26,"BuPu","orientMir","scaleDef","180",NA,NA
"","","","","","html-slider-response",88,262628,"0.0-82.0","rc7syq3emr",38,NA,"<div style=""width:500px;"">
                            <p style=""font-size:50px; font-weight:bold;""
                            >angry</p>
                            <div style=""width:240px; margin: auto;"">
                                <img src=""images/map05_BrBG_scaleDef_orientDef_000.png"" style= ""width:200px""alt=""img"">
                            </div>
                        </div>",0.335,"",0,"",NA,"","images/map05_BrBG_scaleDef_orientDef_000.png","angry",1,5,5,"BrBG","orientDef","scaleDef","000",NA,NA
"","","","","","html-slider-response",89,263835,"0.0-83.0","rc7syq3emr",38,NA,"<div style=""width:500px;"">
                            <p style=""font-size:50px; font-weight:bold;""
                            >angry</p>
                            <div style=""width:240px; margin: auto;"">
                                <img src=""images/map13_cividis_scaleDef_orientMir_180.png"" style= ""width:200px""alt=""img"">
                            </div>
                        </div>",0.405,"",0,"",NA,"","images/map13_cividis_scaleDef_orientMir_180.png","angry",1,13,13,"cividis","orientMir","scaleDef","180",NA,NA
"","","","","","html-slider-response",90,265436,"0.0-84.0","rc7syq3emr",38,NA,"<div style=""width:500px;"">
                            <p style=""font-size:50px; font-weight:bold;""
                            >angry</p>
                            <div style=""width:240px; margin: auto;"">
                                <img src=""images/map10_managua_scaleDef_orientMir_180.png"" style= ""width:200px""alt=""img"">
                            </div>
                        </div>",0.175,"",0,"",NA,"","images/map10_managua_scaleDef_orientMir_180.png","angry",1,10,10,"managua","orientMir","scaleDef","180",NA,NA
"","","","","","html-slider-response",91,266804,"0.0-85.0","rc7syq3emr",38,NA,"<div style=""width:500px;"">
                            <p style=""font-size:50px; font-weight:bold;""
                            >angry</p>
                            <div style=""width:240px; margin: auto;"">
                                <img src=""images/map10_bwr_scaleDef_orientDef_000.png"" style= ""width:200px""alt=""img"">
                            </div>
                        </div>",0.805,"",0,"",NA,"","images/map10_bwr_scaleDef_orientDef_000.png","angry",1,10,10,"bwr","orientDef","scaleDef","000",NA,NA
"","","","","","html-slider-response",92,268075,"0.0-86.0","rc7syq3emr",38,NA,"<div style=""width:500px;"">
                            <p style=""font-size:50px; font-weight:bold;""
                            >angry</p>
                            <div style=""width:240px; margin: auto;"">
                                <img src=""images/map15_Purples_scaleRev_orientDef_270.png"" style= ""width:200px""alt=""img"">
                            </div>
                        </div>",0.225,"",0,"",NA,"","images/map15_Purples_scaleRev_orientDef_270.png","angry",1,15,15,"Purples","orientDef","scaleRev","270",NA,NA
"","","","","","html-slider-response",93,269347,"0.0-87.0","rc7syq3emr",38,NA,"<div style=""width:500px;"">
                            <p style=""font-size:50px; font-weight:bold;""
                            >angry</p>
                            <div style=""width:240px; margin: auto;"">
                                <img src=""images/map10_managua_scaleRev_orientMir_270.png"" style= ""width:200px""alt=""img"">
                            </div>
                        </div>",0.365,"",0,"",NA,"","images/map10_managua_scaleRev_orientMir_270.png","angry",1,10,10,"managua","orientMir","scaleRev","270",NA,NA
"","","","","","html-slider-response",94,270575,"0.0-88.0","rc7syq3emr",38,NA,"<div style=""width:500px;"">
                            <p style=""font-size:50px; font-weight:bold;""
                            >angry</p>
                            <div style=""width:240px; margin: auto;"">
                                <img src=""images/map26_BuPu_scaleRev_orientMir_270.png"" style= ""width:200px""alt=""img"">
                            </div>
                        </div>",0.4275,"",0,"",NA,"","images/map26_BuPu_scaleRev_orientMir_270.png","angry",1,26,26,"BuPu","orientMir","scaleRev","270",NA,NA
"","","","","","html-slider-response",95,272436,"0.0-89.0","rc7syq3emr",38,NA,"<div style=""width:500px;"">
                            <p style=""font-size:50px; font-weight:bold;""
                            >angry</p>
                            <div style=""width:240px; margin: auto;"">
                                <img src=""images/map27_YlGnBu_scaleDef_orientMir_000.png"" style= ""width:200px""alt=""img"">
                            </div>
                        </div>",0.14,"",0,"",NA,"","images/map27_YlGnBu_scaleDef_orientMir_000.png","angry",1,27,27,"YlGnBu","orientMir","scaleDef","000",NA,NA
"","","","","","html-slider-response",96,273892,"0.0-90.0","rc7syq3emr",38,NA,"<div style=""width:500px;"">
                            <p style=""font-size:50px; font-weight:bold;""
                            >angry</p>
                            <div style=""width:240px; margin: auto;"">
                                <img src=""images/map02_PRGn_scaleRev_orientMir_270.png"" style= ""width:200px""alt=""img"">
                            </div>
                        </div>",0.225,"",0,"",NA,"","images/map02_PRGn_scaleRev_orientMir_270.png","angry",1,2,2,"PRGn","orientMir","scaleRev","270",NA,NA
"","","","","","html-slider-response",97,275245,"0.0-91.0","rc7syq3emr",38,NA,"<div style=""width:500px;"">
                            <p style=""font-size:50px; font-weight:bold;""
                            >angry</p>
                            <div style=""width:240px; margin: auto;"">
                                <img src=""images/map12_vanimo_scaleDef_orientDef_000.png"" style= ""width:200px""alt=""img"">
                            </div>
                        </div>",0.325,"",0,"",NA,"","images/map12_vanimo_scaleDef_orientDef_000.png","angry",1,12,12,"vanimo","orientDef","scaleDef","000",NA,NA
"","","","","","html-slider-response",98,276790,"0.0-92.0","rc7syq3emr",38,NA,"<div style=""width:500px;"">
                            <p style=""font-size:50px; font-weight:bold;""
                            >angry</p>
                            <div style=""width:240px; margin: auto;"">
                                <img src=""images/map15_Greys_scaleDef_orientDef_000.png"" style= ""width:200px""alt=""img"">
                            </div>
                        </div>",0.6125,"",0,"",NA,"","images/map15_Greys_scaleDef_orientDef_000.png","angry",1,15,15,"Greys","orientDef","scaleDef","000",NA,NA
"","","","","","html-slider-response",99,278262,"0.0-93.0","rc7syq3emr",38,NA,"<div style=""width:500px;"">
                            <p style=""font-size:50px; font-weight:bold;""
                            >angry</p>
                            <div style=""width:240px; margin: auto;"">
                                <img src=""images/map10_berlin_scaleDef_orientMir_000.png"" style= ""width:200px""alt=""img"">
                            </div>
                        </div>",0.705,"",0,"",NA,"","images/map10_berlin_scaleDef_orientMir_000.png","angry",1,10,10,"berlin","orientMir","scaleDef","000",NA,NA
"","","","","","html-slider-response",100,279540,"0.0-94.0","rc7syq3emr",38,NA,"<div style=""width:500px;"">
                            <p style=""font-size:50px; font-weight:bold;""
                            >angry</p>
                            <div style=""width:240px; margin: auto;"">
                                <img src=""images/map26_RdPu_scaleDef_orientMir_000.png"" style= ""width:200px""alt=""img"">
                            </div>
                        </div>",0.3275,"",0,"",NA,"","images/map26_RdPu_scaleDef_orientMir_000.png","angry",1,26,26,"RdPu","orientMir","scaleDef","000",NA,NA
"","","","","","html-button-response",101,281485,"0.0-95.0","rc7syq3emr",38,1439,"<p>Great Job! You've finished block 1.<br></br> You have 4 block(s) left to go.<br></br></p>",0.5,"",NA,"",NA,"","","",NA,NA,NA,"","","","",NA,NA
"","","","","","html-button-response",102,282195,"0.0-96.0","rc7syq3emr",38,706,"<p>In this block of trials, you will be asked to rate how much you associate each map with:</p > <p style = 'font-size:150%; font-weight: bold'>disgust</p><br></br>",0.5,"",NA,"",NA,"","","",NA,NA,NA,"","","","",NA,NA
"","","","","","html-slider-response",103,283607,"0.0-97.0","rc7syq3emr",38,NA,"<div style=""width:500px;"">
                            <p style=""font-size:50px; font-weight:bold;""
                            >disgust</p>
                            <div style=""width:240px; margin: auto;"">
                                <img src=""images/map10_seismic_scaleDef_orientDef_180.png"" style= ""width:200px""alt=""img"">
                            </div>
                        </div>",0.2075,"",0,"",NA,"","images/map10_seismic_scaleDef_orientDef_180.png","disgust",1,10,10,"seismic","orientDef","scaleDef","180",NA,NA
"","","","","","html-slider-response",104,285842,"0.0-98.0","rc7syq3emr",38,NA,"<div style=""width:500px;"">
                            <p style=""font-size:50px; font-weight:bold;""
                            >disgust</p>
                            <div style=""width:240px; margin: auto;"">
                                <img src=""images/map15_Greys_scaleDef_orientDef_000.png"" style= ""width:200px""alt=""img"">
                            </div>
                        </div>",0.3925,"",0,"",NA,"","images/map15_Greys_scaleDef_orientDef_000.png","disgust",1,15,15,"Greys","orientDef","scaleDef","000",NA,NA
"","","","","","html-slider-response",105,287338,"0.0-99.0","rc7syq3emr",38,NA,"<div style=""width:500px;"">
                            <p style=""font-size:50px; font-weight:bold;""
                            >disgust</p>
                            <div style=""width:240px; margin: auto;"">
                                <img src=""images/map07_RdYlGn_scaleRev_orientDef_270.png"" style= ""width:200px""alt=""img"">
                            </div>
                        </div>",0.7725,"",0,"",NA,"","images/map07_RdYlGn_scaleRev_orientDef_270.png","disgust",1,7,7,"RdYlGn","orientDef","scaleRev","270",NA,NA
"","","","","","html-slider-response",106,289192,"0.0-100.0","rc7syq3emr",38,NA,"<div style=""width:500px;"">
                            <p style=""font-size:50px; font-weight:bold;""
                            >disgust</p>
                            <div style=""width:240px; margin: auto;"">
                                <img src=""images/map26_PuRd_scaleRev_orientDef_270.png"" style= ""width:200px""alt=""img"">
                            </div>
                        </div>",0.4275,"",0,"",NA,"","images/map26_PuRd_scaleRev_orientDef_270.png","disgust",1,26,26,"PuRd","orientDef","scaleRev","270",NA,NA
"","","","","","html-slider-response",107,290431,"0.0-101.0","rc7syq3emr",38,NA,"<div style=""width:500px;"">
                            <p style=""font-size:50px; font-weight:bold;""
                            >disgust</p>
                            <div style=""width:240px; margin: auto;"">
                                <img src=""images/map26_PuRd_scaleDef_orientDef_180.png"" style= ""width:200px""alt=""img"">
                            </div>
                        </div>",0.4275,"",0,"",NA,"","images/map26_PuRd_scaleDef_orientDef_180.png","disgust",1,26,26,"PuRd","orientDef","scaleDef","180",NA,NA
"","","","","","html-slider-response",108,292073,"0.0-102.0","rc7syq3emr",38,NA,"<div style=""width:500px;"">
                            <p style=""font-size:50px; font-weight:bold;""
                            >disgust</p>
                            <div style=""width:240px; margin: auto;"">
                                <img src=""images/map07_coolwarm_scaleDef_orientMir_180.png"" style= ""width:200px""alt=""img"">
                            </div>
                        </div>",0.165,"",0,"",NA,"","images/map07_coolwarm_scaleDef_orientMir_180.png","disgust",1,7,7,"coolwarm","orientMir","scaleDef","180",NA,NA
"","","","","","html-slider-response",109,293703,"0.0-103.0","rc7syq3emr",38,NA,"<div style=""width:500px;"">
                            <p style=""font-size:50px; font-weight:bold;""
                            >disgust</p>
                            <div style=""width:240px; margin: auto;"">
                                <img src=""images/map27_GnBu_scaleDef_orientDef_000.png"" style= ""width:200px""alt=""img"">
                            </div>
                        </div>",0.5675,"",0,"",NA,"","images/map27_GnBu_scaleDef_orientDef_000.png","disgust",1,27,27,"GnBu","orientDef","scaleDef","000",NA,NA
"","","","","","html-slider-response",110,295158,"0.0-104.0","rc7syq3emr",38,NA,"<div style=""width:500px;"">
                            <p style=""font-size:50px; font-weight:bold;""
                            >disgust</p>
                            <div style=""width:240px; margin: auto;"">
                                <img src=""images/map26_BuPu_scaleRev_orientMir_270.png"" style= ""width:200px""alt=""img"">
                            </div>
                        </div>",0.285,"",0,"",NA,"","images/map26_BuPu_scaleRev_orientMir_270.png","disgust",1,26,26,"BuPu","orientMir","scaleRev","270",NA,NA
"","","","","","html-slider-response",111,297073,"0.0-105.0","rc7syq3emr",38,NA,"<div style=""width:500px;"">
                            <p style=""font-size:50px; font-weight:bold;""
                            >disgust</p>
                            <div style=""width:240px; margin: auto;"">
                                <img src=""images/map27_GnBu_scaleRev_orientDef_090.png"" style= ""width:200px""alt=""img"">
                            </div>
                        </div>",0.27,"",0,"",NA,"","images/map27_GnBu_scaleRev_orientDef_090.png","disgust",1,27,27,"GnBu","orientDef","scaleRev","090",NA,NA
"","","","","","html-slider-response",112,300635,"0.0-106.0","rc7syq3emr",38,NA,"<div style=""width:500px;"">
                            <p style=""font-size:50px; font-weight:bold;""
                            >disgust</p>
                            <div style=""width:240px; margin: auto;"">
                                <img src=""images/map12_vanimo_scaleDef_orientDef_000.png"" style= ""width:200px""alt=""img"">
                            </div>
                        </div>",0.945,"",0,"",NA,"","images/map12_vanimo_scaleDef_orientDef_000.png","disgust",1,12,12,"vanimo","orientDef","scaleDef","000",NA,NA
"","","","","","html-slider-response",113,302248,"0.0-107.0","rc7syq3emr",38,NA,"<div style=""width:500px;"">
                            <p style=""font-size:50px; font-weight:bold;""
                            >disgust</p>
                            <div style=""width:240px; margin: auto;"">
                                <img src=""images/map15_Blues_scaleRev_orientMir_090.png"" style= ""width:200px""alt=""img"">
                            </div>
                        </div>",0.335,"",0,"",NA,"","images/map15_Blues_scaleRev_orientMir_090.png","disgust",1,15,15,"Blues","orientMir","scaleRev","090",NA,NA
"","","","","","html-slider-response",114,303772,"0.0-108.0","rc7syq3emr",38,NA,"<div style=""width:500px;"">
                            <p style=""font-size:50px; font-weight:bold;""
                            >disgust</p>
                            <div style=""width:240px; margin: auto;"">
                                <img src=""images/map05_BrBG_scaleDef_orientDef_000.png"" style= ""width:200px""alt=""img"">
                            </div>
                        </div>",0.625,"",0,"",NA,"","images/map05_BrBG_scaleDef_orientDef_000.png","disgust",1,5,5,"BrBG","orientDef","scaleDef","000",NA,NA
"","","","","","html-slider-response",115,305175,"0.0-109.0","rc7syq3emr",38,NA,"<div style=""width:500px;"">
                            <p style=""font-size:50px; font-weight:bold;""
                            >disgust</p>
                            <div style=""width:240px; margin: auto;"">
                                <img src=""images/map12_viridis_scaleDef_orientMir_180.png"" style= ""width:200px""alt=""img"">
                            </div>
                        </div>",0.9075,"",0,"",NA,"","images/map12_viridis_scaleDef_orientMir_180.png","disgust",1,12,12,"viridis","orientMir","scaleDef","180",NA,NA
"","","","","","html-slider-response",116,308324,"0.0-110.0","rc7syq3emr",38,NA,"<div style=""width:500px;"">
                            <p style=""font-size:50px; font-weight:bold;""
                            >disgust</p>
                            <div style=""width:240px; margin: auto;"">
                                <img src=""images/map02_PRGn_scaleDef_orientMir_180.png"" style= ""width:200px""alt=""img"">
                            </div>
                        </div>",0.8,"",0,"",NA,"","images/map02_PRGn_scaleDef_orientMir_180.png","disgust",1,2,2,"PRGn","orientMir","scaleDef","180",NA,NA
"","","","","","html-slider-response",117,309552,"0.0-111.0","rc7syq3emr",38,NA,"<div style=""width:500px;"">
                            <p style=""font-size:50px; font-weight:bold;""
                            >disgust</p>
                            <div style=""width:240px; margin: auto;"">
                                <img src=""images/map26_OrRd_scaleDef_orientDef_000.png"" style= ""width:200px""alt=""img"">
                            </div>
                        </div>",0.375,"",0,"",NA,"","images/map26_OrRd_scaleDef_orientDef_000.png","disgust",1,26,26,"OrRd","orientDef","scaleDef","000",NA,NA
"","","","","","html-slider-response",118,311008,"0.0-112.0","rc7syq3emr",38,NA,"<div style=""width:500px;"">
                            <p style=""font-size:50px; font-weight:bold;""
                            >disgust</p>
                            <div style=""width:240px; margin: auto;"">
                                <img src=""images/map23_YlOrBr_scaleRev_orientMir_090.png"" style= ""width:200px""alt=""img"">
                            </div>
                        </div>",0.46,"",0,"",NA,"","images/map23_YlOrBr_scaleRev_orientMir_090.png","disgust",1,23,23,"YlOrBr","orientMir","scaleRev","090",NA,NA
"","","","","","html-slider-response",119,312532,"0.0-113.0","rc7syq3emr",38,NA,"<div style=""width:500px;"">
                            <p style=""font-size:50px; font-weight:bold;""
                            >disgust</p>
                            <div style=""width:240px; margin: auto;"">
                                <img src=""images/map26_BuPu_scaleDef_orientMir_180.png"" style= ""width:200px""alt=""img"">
                            </div>
                        </div>",0.365,"",0,"",NA,"","images/map26_BuPu_scaleDef_orientMir_180.png","disgust",1,26,26,"BuPu","orientMir","scaleDef","180",NA,NA
"","","","","","html-slider-response",120,314057,"0.0-114.0","rc7syq3emr",38,NA,"<div style=""width:500px;"">
                            <p style=""font-size:50px; font-weight:bold;""
                            >disgust</p>
                            <div style=""width:240px; margin: auto;"">
                                <img src=""images/map02_BuGn_scaleRev_orientDef_090.png"" style= ""width:200px""alt=""img"">
                            </div>
                        </div>",0.935,"",0,"",NA,"","images/map02_BuGn_scaleRev_orientDef_090.png","disgust",1,2,2,"BuGn","orientDef","scaleRev","090",NA,NA
"","","","","","html-slider-response",121,316210,"0.0-115.0","rc7syq3emr",38,NA,"<div style=""width:500px;"">
                            <p style=""font-size:50px; font-weight:bold;""
                            >disgust</p>
                            <div style=""width:240px; margin: auto;"">
                                <img src=""images/map12_turbo_scaleRev_orientMir_090.png"" style= ""width:200px""alt=""img"">
                            </div>
                        </div>",0.5875,"",0,"",NA,"","images/map12_turbo_scaleRev_orientMir_090.png","disgust",1,12,12,"turbo","orientMir","scaleRev","090",NA,NA
"","","","","","html-slider-response",122,317578,"0.0-116.0","rc7syq3emr",38,NA,"<div style=""width:500px;"">
                            <p style=""font-size:50px; font-weight:bold;""
                            >disgust</p>
                            <div style=""width:240px; margin: auto;"">
                                <img src=""images/map23_Oranges_scaleRev_orientDef_090.png"" style= ""width:200px""alt=""img"">
                            </div>
                        </div>",0.2275,"",0,"",NA,"","images/map23_Oranges_scaleRev_orientDef_090.png","disgust",1,23,23,"Oranges","orientDef","scaleRev","090",NA,NA
"","","","","","html-slider-response",123,318841,"0.0-117.0","rc7syq3emr",38,NA,"<div style=""width:500px;"">
                            <p style=""font-size:50px; font-weight:bold;""
                            >disgust</p>
                            <div style=""width:240px; margin: auto;"">
                                <img src=""images/map23_YlOrBr_scaleDef_orientMir_000.png"" style= ""width:200px""alt=""img"">
                            </div>
                        </div>",0.215,"",0,"",NA,"","images/map23_YlOrBr_scaleDef_orientMir_000.png","disgust",1,23,23,"YlOrBr","orientMir","scaleDef","000",NA,NA
"","","","","","html-slider-response",124,321074,"0.0-118.0","rc7syq3emr",38,NA,"<div style=""width:500px;"">
                            <p style=""font-size:50px; font-weight:bold;""
                            >disgust</p>
                            <div style=""width:240px; margin: auto;"">
                                <img src=""images/map07_RdYlBu_scaleDef_orientDef_000.png"" style= ""width:200px""alt=""img"">
                            </div>
                        </div>",0.2375,"",0,"",NA,"","images/map07_RdYlBu_scaleDef_orientDef_000.png","disgust",1,7,7,"RdYlBu","orientDef","scaleDef","000",NA,NA
"","","","","","html-slider-response",125,322491,"0.0-119.0","rc7syq3emr",38,NA,"<div style=""width:500px;"">
                            <p style=""font-size:50px; font-weight:bold;""
                            >disgust</p>
                            <div style=""width:240px; margin: auto;"">
                                <img src=""images/map02_BuGn_scaleDef_orientDef_000.png"" style= ""width:200px""alt=""img"">
                            </div>
                        </div>",0.7925,"",0,"",NA,"","images/map02_BuGn_scaleDef_orientDef_000.png","disgust",1,2,2,"BuGn","orientDef","scaleDef","000",NA,NA
"","","","","","html-slider-response",126,323799,"0.0-120.0","rc7syq3emr",38,NA,"<div style=""width:500px;"">
                            <p style=""font-size:50px; font-weight:bold;""
                            >disgust</p>
                            <div style=""width:240px; margin: auto;"">
                                <img src=""images/map23_Reds_scaleDef_orientDef_180.png"" style= ""width:200px""alt=""img"">
                            </div>
                        </div>",0.34,"",0,"",NA,"","images/map23_Reds_scaleDef_orientDef_180.png","disgust",1,23,23,"Reds","orientDef","scaleDef","180",NA,NA
"","","","","","html-slider-response",127,325523,"0.0-121.0","rc7syq3emr",38,NA,"<div style=""width:500px;"">
                            <p style=""font-size:50px; font-weight:bold;""
                            >disgust</p>
                            <div style=""width:240px; margin: auto;"">
                                <img src=""images/map15_Greens_scaleRev_orientMir_270.png"" style= ""width:200px""alt=""img"">
                            </div>
                        </div>",0.9425,"",0,"",NA,"","images/map15_Greens_scaleRev_orientMir_270.png","disgust",1,15,15,"Greens","orientMir","scaleRev","270",NA,NA
"","","","","","html-slider-response",128,327038,"0.0-122.0","rc7syq3emr",38,NA,"<div style=""width:500px;"">
                            <p style=""font-size:50px; font-weight:bold;""
                            >disgust</p>
                            <div style=""width:240px; margin: auto;"">
                                <img src=""images/map07_Spectral_scaleDef_orientMir_000.png"" style= ""width:200px""alt=""img"">
                            </div>
                        </div>",0.2875,"",0,"",NA,"","images/map07_Spectral_scaleDef_orientMir_000.png","disgust",1,7,7,"Spectral","orientMir","scaleDef","000",NA,NA
"","","","","","html-slider-response",129,328629,"0.0-123.0","rc7syq3emr",38,NA,"<div style=""width:500px;"">
                            <p style=""font-size:50px; font-weight:bold;""
                            >disgust</p>
                            <div style=""width:240px; margin: auto;"">
                                <img src=""images/map02_YlGn_scaleRev_orientDef_270.png"" style= ""width:200px""alt=""img"">
                            </div>
                        </div>",0.8575,"",0,"",NA,"","images/map02_YlGn_scaleRev_orientDef_270.png","disgust",1,2,2,"YlGn","orientDef","scaleRev","270",NA,NA
"","","","","","html-slider-response",130,329921,"0.0-124.0","rc7syq3emr",38,NA,"<div style=""width:500px;"">
                            <p style=""font-size:50px; font-weight:bold;""
                            >disgust</p>
                            <div style=""width:240px; margin: auto;"">
                                <img src=""images/map23_Reds_scaleRev_orientDef_270.png"" style= ""width:200px""alt=""img"">
                            </div>
                        </div>",0.225,"",0,"",NA,"","images/map23_Reds_scaleRev_orientDef_270.png","disgust",1,23,23,"Reds","orientDef","scaleRev","270",NA,NA
"","","","","","html-slider-response",131,331324,"0.0-125.0","rc7syq3emr",38,NA,"<div style=""width:500px;"">
                            <p style=""font-size:50px; font-weight:bold;""
                            >disgust</p>
                            <div style=""width:240px; margin: auto;"">
                                <img src=""images/map13_cividis_scaleRev_orientMir_270.png"" style= ""width:200px""alt=""img"">
                            </div>
                        </div>",0.305,"",0,"",NA,"","images/map13_cividis_scaleRev_orientMir_270.png","disgust",1,13,13,"cividis","orientMir","scaleRev","270",NA,NA
"","","","","","html-slider-response",132,332831,"0.0-126.0","rc7syq3emr",38,NA,"<div style=""width:500px;"">
                            <p style=""font-size:50px; font-weight:bold;""
                            >disgust</p>
                            <div style=""width:240px; margin: auto;"">
                                <img src=""images/map15_Purples_scaleRev_orientDef_270.png"" style= ""width:200px""alt=""img"">
                            </div>
                        </div>",0.195,"",0,"",NA,"","images/map15_Purples_scaleRev_orientDef_270.png","disgust",1,15,15,"Purples","orientDef","scaleRev","270",NA,NA
"","","","","","html-slider-response",133,334183,"0.0-127.0","rc7syq3emr",38,NA,"<div style=""width:500px;"">
                            <p style=""font-size:50px; font-weight:bold;""
                            >disgust</p>
                            <div style=""width:240px; margin: auto;"">
                                <img src=""images/map13_inferno_scaleDef_orientDef_180.png"" style= ""width:200px""alt=""img"">
                            </div>
                        </div>",0.16,"",0,"",NA,"","images/map13_inferno_scaleDef_orientDef_180.png","disgust",1,13,13,"inferno","orientDef","scaleDef","180",NA,NA
"","","","","","html-slider-response",134,335857,"0.0-128.0","rc7syq3emr",38,NA,"<div style=""width:500px;"">
                            <p style=""font-size:50px; font-weight:bold;""
                            >disgust</p>
                            <div style=""width:240px; margin: auto;"">
                                <img src=""images/map12_gist_earth_scaleDef_orientDef_180.png"" style= ""width:200px""alt=""img"">
                            </div>
                        </div>",1,"",0,"",NA,"","images/map12_gist_earth_scaleDef_orientDef_180.png","disgust",1,12,12,"gist","scaleDef","earth","orientDef",NA,NA
"","","","","","html-slider-response",135,337283,"0.0-129.0","rc7syq3emr",38,NA,"<div style=""width:500px;"">
                            <p style=""font-size:50px; font-weight:bold;""
                            >disgust</p>
                            <div style=""width:240px; margin: auto;"">
                                <img src=""images/map07_RdYlBu_scaleRev_orientDef_090.png"" style= ""width:200px""alt=""img"">
                            </div>
                        </div>",0.285,"",0,"",NA,"","images/map07_RdYlBu_scaleRev_orientDef_090.png","disgust",1,7,7,"RdYlBu","orientDef","scaleRev","090",NA,NA
"","","","","","html-slider-response",136,338697,"0.0-130.0","rc7syq3emr",38,NA,"<div style=""width:500px;"">
                            <p style=""font-size:50px; font-weight:bold;""
                            >disgust</p>
                            <div style=""width:240px; margin: auto;"">
                                <img src=""images/map23_YlOrRd_scaleDef_orientMir_180.png"" style= ""width:200px""alt=""img"">
                            </div>
                        </div>",0.185,"",0,"",NA,"","images/map23_YlOrRd_scaleDef_orientMir_180.png","disgust",1,23,23,"YlOrRd","orientMir","scaleDef","180",NA,NA
"","","","","","html-slider-response",137,341794,"0.0-131.0","rc7syq3emr",38,NA,"<div style=""width:500px;"">
                            <p style=""font-size:50px; font-weight:bold;""
                            >disgust</p>
                            <div style=""width:240px; margin: auto;"">
                                <img src=""images/map27_YlGnBu_scaleRev_orientMir_090.png"" style= ""width:200px""alt=""img"">
                            </div>
                        </div>",0.5225,"",0,"",NA,"","images/map27_YlGnBu_scaleRev_orientMir_090.png","disgust",1,27,27,"YlGnBu","orientMir","scaleRev","090",NA,NA
"","","","","","html-slider-response",138,343174,"0.0-132.0","rc7syq3emr",38,NA,"<div style=""width:500px;"">
                            <p style=""font-size:50px; font-weight:bold;""
                            >disgust</p>
                            <div style=""width:240px; margin: auto;"">
                                <img src=""images/map10_berlin_scaleRev_orientMir_090.png"" style= ""width:200px""alt=""img"">
                            </div>
                        </div>",0.295,"",0,"",NA,"","images/map10_berlin_scaleRev_orientMir_090.png","disgust",1,10,10,"berlin","orientMir","scaleRev","090",NA,NA
"","","","","","html-slider-response",139,344574,"0.0-133.0","rc7syq3emr",38,NA,"<div style=""width:500px;"">
                            <p style=""font-size:50px; font-weight:bold;""
                            >disgust</p>
                            <div style=""width:240px; margin: auto;"">
                                <img src=""images/map02_PiYG_scaleRev_orientMir_090.png"" style= ""width:200px""alt=""img"">
                            </div>
                        </div>",0.8525,"",0,"",NA,"","images/map02_PiYG_scaleRev_orientMir_090.png","disgust",1,2,2,"PiYG","orientMir","scaleRev","090",NA,NA
"","","","","","html-slider-response",140,346056,"0.0-134.0","rc7syq3emr",38,NA,"<div style=""width:500px;"">
                            <p style=""font-size:50px; font-weight:bold;""
                            >disgust</p>
                            <div style=""width:240px; margin: auto;"">
                                <img src=""images/map27_PuBu_scaleRev_orientDef_270.png"" style= ""width:200px""alt=""img"">
                            </div>
                        </div>",0.225,"",0,"",NA,"","images/map27_PuBu_scaleRev_orientDef_270.png","disgust",1,27,27,"PuBu","orientDef","scaleRev","270",NA,NA
"","","","","","html-slider-response",141,353123,"0.0-135.0","rc7syq3emr",38,NA,"<div style=""width:500px;"">
                            <p style=""font-size:50px; font-weight:bold;""
                            >disgust</p>
                            <div style=""width:240px; margin: auto;"">
                                <img src=""images/map13_plasma_scaleRev_orientDef_090.png"" style= ""width:200px""alt=""img"">
                            </div>
                        </div>",0.265,"",0,"",NA,"","images/map13_plasma_scaleRev_orientDef_090.png","disgust",1,13,13,"plasma","orientDef","scaleRev","090",NA,NA
"","","","","","html-slider-response",142,354363,"0.0-136.0","rc7syq3emr",38,NA,"<div style=""width:500px;"">
                            <p style=""font-size:50px; font-weight:bold;""
                            >disgust</p>
                            <div style=""width:240px; margin: auto;"">
                                <img src=""images/map05_RdBu_scaleDef_orientMir_180.png"" style= ""width:200px""alt=""img"">
                            </div>
                        </div>",0.175,"",0,"",NA,"","images/map05_RdBu_scaleDef_orientMir_180.png","disgust",1,5,5,"RdBu","orientMir","scaleDef","180",NA,NA
"","","","","","html-button-response",143,357976,"0.0-137.0","rc7syq3emr",38,3107,"<p>You are doing great!<br></br> You are halway done with the current block. When you are ready to continue, click the 'Continue' button.</p>",0.5,"",NA,"",NA,"","","",NA,NA,NA,"","","","",NA,NA
"","","","","","html-slider-response",144,360433,"0.0-138.0","rc7syq3emr",38,NA,"<div style=""width:500px;"">
                            <p style=""font-size:50px; font-weight:bold;""
                            >disgust</p>
                            <div style=""width:240px; margin: auto;"">
                                <img src=""images/map13_magma_scaleRev_orientMir_090.png"" style= ""width:200px""alt=""img"">
                            </div>
                        </div>",0.2675,"",0,"",NA,"","images/map13_magma_scaleRev_orientMir_090.png","disgust",1,13,13,"magma","orientMir","scaleRev","090",NA,NA
"","","","","","html-slider-response",145,362007,"0.0-139.0","rc7syq3emr",38,NA,"<div style=""width:500px;"">
                            <p style=""font-size:50px; font-weight:bold;""
                            >disgust</p>
                            <div style=""width:240px; margin: auto;"">
                                <img src=""images/map23_YlOrRd_scaleRev_orientMir_270.png"" style= ""width:200px""alt=""img"">
                            </div>
                        </div>",0.165,"",0,"",NA,"","images/map23_YlOrRd_scaleRev_orientMir_270.png","disgust",1,23,23,"YlOrRd","orientMir","scaleRev","270",NA,NA
"","","","","","html-slider-response",146,363691,"0.0-140.0","rc7syq3emr",38,NA,"<div style=""width:500px;"">
                            <p style=""font-size:50px; font-weight:bold;""
                            >disgust</p>
                            <div style=""width:240px; margin: auto;"">
                                <img src=""images/map07_coolwarm_scaleRev_orientMir_270.png"" style= ""width:200px""alt=""img"">
                            </div>
                        </div>",0.2075,"",0,"",NA,"","images/map07_coolwarm_scaleRev_orientMir_270.png","disgust",1,7,7,"coolwarm","orientMir","scaleRev","270",NA,NA
"","","","","","html-slider-response",147,365813,"0.0-141.0","rc7syq3emr",38,NA,"<div style=""width:500px;"">
                            <p style=""font-size:50px; font-weight:bold;""
                            >disgust</p>
                            <div style=""width:240px; margin: auto;"">
                                <img src=""images/map27_PuBuGn_scaleRev_orientMir_270.png"" style= ""width:200px""alt=""img"">
                            </div>
                        </div>",0.4275,"",0,"",NA,"","images/map27_PuBuGn_scaleRev_orientMir_270.png","disgust",1,27,27,"PuBuGn","orientMir","scaleRev","270",NA,NA
"","","","","","html-slider-response",148,367608,"0.0-142.0","rc7syq3emr",38,NA,"<div style=""width:500px;"">
                            <p style=""font-size:50px; font-weight:bold;""
                            >disgust</p>
                            <div style=""width:240px; margin: auto;"">
                                <img src=""images/map05_RdGy_scaleRev_orientMir_090.png"" style= ""width:200px""alt=""img"">
                            </div>
                        </div>",0.355,"",0,"",NA,"","images/map05_RdGy_scaleRev_orientMir_090.png","disgust",1,5,5,"RdGy","orientMir","scaleRev","090",NA,NA
"","","","","","html-slider-response",149,369004,"0.0-143.0","rc7syq3emr",38,NA,"<div style=""width:500px;"">
                            <p style=""font-size:50px; font-weight:bold;""
                            >disgust</p>
                            <div style=""width:240px; margin: auto;"">
                                <img src=""images/map05_RdGy_scaleDef_orientMir_000.png"" style= ""width:200px""alt=""img"">
                            </div>
                        </div>",0.18,"",0,"",NA,"","images/map05_RdGy_scaleDef_orientMir_000.png","disgust",1,5,5,"RdGy","orientMir","scaleDef","000",NA,NA
"","","","","","html-slider-response",150,371636,"0.0-144.0","rc7syq3emr",38,NA,"<div style=""width:500px;"">
                            <p style=""font-size:50px; font-weight:bold;""
                            >disgust</p>
                            <div style=""width:240px; margin: auto;"">
                                <img src=""images/map05_BrBG_scaleRev_orientDef_090.png"" style= ""width:200px""alt=""img"">
                            </div>
                        </div>",0.495,"",0,"",NA,"","images/map05_BrBG_scaleRev_orientDef_090.png","disgust",1,5,5,"BrBG","orientDef","scaleRev","090",NA,NA
"","","","","","html-slider-response",151,373568,"0.0-145.0","rc7syq3emr",38,NA,"<div style=""width:500px;"">
                            <p style=""font-size:50px; font-weight:bold;""
                            >disgust</p>
                            <div style=""width:240px; margin: auto;"">
                                <img src=""images/map10_managua_scaleRev_orientMir_270.png"" style= ""width:200px""alt=""img"">
                            </div>
                        </div>",0.405,"",0,"",NA,"","images/map10_managua_scaleRev_orientMir_270.png","disgust",1,10,10,"managua","orientMir","scaleRev","270",NA,NA
"","","","","","html-slider-response",152,374996,"0.0-146.0","rc7syq3emr",38,NA,"<div style=""width:500px;"">
                            <p style=""font-size:50px; font-weight:bold;""
                            >disgust</p>
                            <div style=""width:240px; margin: auto;"">
                                <img src=""images/map26_OrRd_scaleRev_orientDef_090.png"" style= ""width:200px""alt=""img"">
                            </div>
                        </div>",0.2825,"",0,"",NA,"","images/map26_OrRd_scaleRev_orientDef_090.png","disgust",1,26,26,"OrRd","orientDef","scaleRev","090",NA,NA
"","","","","","html-slider-response",153,376630,"0.0-147.0","rc7syq3emr",38,NA,"<div style=""width:500px;"">
                            <p style=""font-size:50px; font-weight:bold;""
                            >disgust</p>
                            <div style=""width:240px; margin: auto;"">
                                <img src=""images/map12_viridis_scaleRev_orientMir_270.png"" style= ""width:200px""alt=""img"">
                            </div>
                        </div>",0.7125,"",0,"",NA,"","images/map12_viridis_scaleRev_orientMir_270.png","disgust",1,12,12,"viridis","orientMir","scaleRev","270",NA,NA
"","","","","","html-slider-response",154,377956,"0.0-148.0","rc7syq3emr",38,NA,"<div style=""width:500px;"">
                            <p style=""font-size:50px; font-weight:bold;""
                            >disgust</p>
                            <div style=""width:240px; margin: auto;"">
                                <img src=""images/map10_berlin_scaleDef_orientMir_000.png"" style= ""width:200px""alt=""img"">
                            </div>
                        </div>",0.42,"",0,"",NA,"","images/map10_berlin_scaleDef_orientMir_000.png","disgust",1,10,10,"berlin","orientMir","scaleDef","000",NA,NA
"","","","","","html-slider-response",155,379425,"0.0-149.0","rc7syq3emr",38,NA,"<div style=""width:500px;"">
                            <p style=""font-size:50px; font-weight:bold;""
                            >disgust</p>
                            <div style=""width:240px; margin: auto;"">
                                <img src=""images/map02_PiYG_scaleDef_orientMir_000.png"" style= ""width:200px""alt=""img"">
                            </div>
                        </div>",0.89,"",0,"",NA,"","images/map02_PiYG_scaleDef_orientMir_000.png","disgust",1,2,2,"PiYG","orientMir","scaleDef","000",NA,NA
"","","","","","html-slider-response",156,380788,"0.0-150.0","rc7syq3emr",38,NA,"<div style=""width:500px;"">
                            <p style=""font-size:50px; font-weight:bold;""
                            >disgust</p>
                            <div style=""width:240px; margin: auto;"">
                                <img src=""images/map07_RdYlGn_scaleDef_orientDef_180.png"" style= ""width:200px""alt=""img"">
                            </div>
                        </div>",0.8275,"",0,"",NA,"","images/map07_RdYlGn_scaleDef_orientDef_180.png","disgust",1,7,7,"RdYlGn","orientDef","scaleDef","180",NA,NA
"","","","","","html-slider-response",157,382025,"0.0-151.0","rc7syq3emr",38,NA,"<div style=""width:500px;"">
                            <p style=""font-size:50px; font-weight:bold;""
                            >disgust</p>
                            <div style=""width:240px; margin: auto;"">
                                <img src=""images/map10_bwr_scaleRev_orientDef_090.png"" style= ""width:200px""alt=""img"">
                            </div>
                        </div>",0.4275,"",0,"",NA,"","images/map10_bwr_scaleRev_orientDef_090.png","disgust",1,10,10,"bwr","orientDef","scaleRev","090",NA,NA
"","","","","","html-slider-response",158,383331,"0.0-152.0","rc7syq3emr",38,NA,"<div style=""width:500px;"">
                            <p style=""font-size:50px; font-weight:bold;""
                            >disgust</p>
                            <div style=""width:240px; margin: auto;"">
                                <img src=""images/map26_RdPu_scaleDef_orientMir_000.png"" style= ""width:200px""alt=""img"">
                            </div>
                        </div>",0.275,"",0,"",NA,"","images/map26_RdPu_scaleDef_orientMir_000.png","disgust",1,26,26,"RdPu","orientMir","scaleDef","000",NA,NA
"","","","","","html-slider-response",159,385018,"0.0-153.0","rc7syq3emr",38,NA,"<div style=""width:500px;"">
                            <p style=""font-size:50px; font-weight:bold;""
                            >disgust</p>
                            <div style=""width:240px; margin: auto;"">
                                <img src=""images/map15_Greys_scaleRev_orientDef_090.png"" style= ""width:200px""alt=""img"">
                            </div>
                        </div>",0.3875,"",0,"",NA,"","images/map15_Greys_scaleRev_orientDef_090.png","disgust",1,15,15,"Greys","orientDef","scaleRev","090",NA,NA
"","","","","","html-slider-response",160,386439,"0.0-154.0","rc7syq3emr",38,NA,"<div style=""width:500px;"">
                            <p style=""font-size:50px; font-weight:bold;""
                            >disgust</p>
                            <div style=""width:240px; margin: auto;"">
                                <img src=""images/map05_PuOr_scaleRev_orientDef_270.png"" style= ""width:200px""alt=""img"">
                            </div>
                        </div>",0.285,"",0,"",NA,"","images/map05_PuOr_scaleRev_orientDef_270.png","disgust",1,5,5,"PuOr","orientDef","scaleRev","270",NA,NA
"","","","","","html-slider-response",161,387768,"0.0-155.0","rc7syq3emr",38,NA,"<div style=""width:500px;"">
                            <p style=""font-size:50px; font-weight:bold;""
                            >disgust</p>
                            <div style=""width:240px; margin: auto;"">
                                <img src=""images/map13_plasma_scaleDef_orientDef_000.png"" style= ""width:200px""alt=""img"">
                            </div>
                        </div>",0.245,"",0,"",NA,"","images/map13_plasma_scaleDef_orientDef_000.png","disgust",1,13,13,"plasma","orientDef","scaleDef","000",NA,NA
"","","","","","html-slider-response",162,389170,"0.0-156.0","rc7syq3emr",38,NA,"<div style=""width:500px;"">
                            <p style=""font-size:50px; font-weight:bold;""
                            >disgust</p>
                            <div style=""width:240px; margin: auto;"">
                                <img src=""images/map02_PRGn_scaleRev_orientMir_270.png"" style= ""width:200px""alt=""img"">
                            </div>
                        </div>",0.9175,"",0,"",NA,"","images/map02_PRGn_scaleRev_orientMir_270.png","disgust",1,2,2,"PRGn","orientMir","scaleRev","270",NA,NA
"","","","","","html-slider-response",163,390771,"0.0-157.0","rc7syq3emr",38,NA,"<div style=""width:500px;"">
                            <p style=""font-size:50px; font-weight:bold;""
                            >disgust</p>
