"success","timeout","failed_images","failed_audio","failed_video","trial_type","trial_index","time_elapsed","internal_node_id","subject_id","condition_num","rt","stimulus","response","question_order","slider_start","practiceTrial","practiceTrialNum","correct","image_path","concept","repetition","map_id","map_num","scale_name","orientation_code","mapping_code","rotation_code","ishihara_plate","correct_response"
"true","false","[]","[]","[]","preload",0,1208,"0.0-0.0","825xa3kzyp",2,NA,"",NA,"",NA,"",NA,"","","",NA,NA,NA,"","","","",NA,NA
"","","","","","html-button-response",1,2933,"0.0-1.0","825xa3kzyp",2,1722,"Welcome to our experiment!<p>At the bottom of this screen, you will see a button that says ""Begin Experiment"".<br>Please only click that button when you are ready to complete the 30 minute experiment in one sitting.</p><p> Once you click that button, it will not be possible to restart the experiment.",0.5,"",NA,"",NA,"","","",NA,NA,NA,"","","","",NA,NA
"true","","","","","fullscreen",2,5402,"0.0-2.0","825xa3kzyp",2,1464,"",NA,"",NA,"",NA,"","","",NA,NA,NA,"","","","",NA,NA
"","","","","","survey-multi-select",3,14738,"0.0-3.0","825xa3kzyp",2,9330,"",NA,"[0]",NA,"",NA,"","","",NA,NA,NA,"","","","",NA,NA
"","","","","","html-button-response",4,16401,"0.0-4.0","825xa3kzyp",2,1661,"Welcome! <p> This experiment involves two parts: demographic information, followed by the experimental task.<p> It will take about 30 minutes to complete both parts.",0.5,"",NA,"",NA,"","","",NA,NA,NA,"","","","",NA,NA
"","","","","","survey-text",5,24070,"0.0-5.0","825xa3kzyp",2,7658,"",NA,"",NA,"",NA,"","","",NA,NA,NA,"","","","",NA,NA
"","","","","","html-slider-response",6,57967,"0.0-6.0","825xa3kzyp",2,33891,"<div style='text-align:left; font-size:20px; line-height:25px; width: 1000px;'>
                                During this experiment you will be asked to rate how much you associate maps with                    different concepts.<br> Below, you can see some examples of the maps you will be asked to rate. Above the maps
                    is the list of concepts.<br>You will be asked                    to rate how much you associate each map with each concept on a scale from 'not at all' to 'very much' like the
                    one below. <br><br>
                    Now, please look at the list of concepts and maps. For each concept, think about the map you associate 'very
                    much' with the concept.<br>                     When you see that map during the experiment, please rate it near the 'very much' endpoint of the
                    scale.<br>Now, please think about which map you associate 'not at all'                     with each concept. When you see that map during the experiment, please rate it near the 'not at all' endpoint
                    of the scale.<br>
                    Please use the full range of the scale. That is, if a map is somewhat associated with the concept, you would
                    click partway between the middle point and right side of the scale.                    You will be asked to rate each map for a given concept before moving on to the next concept.<br>Press the
                    'Continue' button for instructions on how to use the slider.                    <br>
                </div>

                <div style=""width: 500px; margin: 0 auto;"">
                    <!-- Centered text paragraphs -->
                    <div style=""text-align: center; width: 500px;"">
                        <p style=""font-size:25px; line-height:15px;"">
                            sad&nbsp;&nbsp;&nbsp;&nbsp;
                            angry&nbsp;&nbsp;&nbsp;&nbsp;
                            happy&nbsp;&nbsp;&nbsp;&nbsp;
                            disgust&nbsp;&nbsp;&nbsp;&nbsp;
                            fearful
                        </p>
                        <!-- <p style=""font-size:20px; line-height:15px;"">angry</p>
                        <p style=""font-size:20px;line-height:15px;"">happy</p>
                        <p style=""font-size:20px;line-height:15px;"">disgust</p>
                        <p style=""font-size:20px;line-height:15px;"">fearful</p> -->
                    </div>
            

                    <!-- Grid section -->
                   <div style=""display: flex; justify-content: center; padding-top: 15px;"">
                    <div style=""display: grid; grid-template-columns: repeat(10, 55px); grid-gap: 5px; width: auto;"">
                        <img src=""images/map26_bwr_scaleRev_orientMir_090.png"" alt=""map"" style=""width: 100%;""><img src=""images/map05_Purples_scaleDef_orientMir_180.png"" alt=""map"" style=""width: 100%;""><img src=""images/map12_GnBu_scaleRev_orientMir_090.png"" alt=""map"" style=""width: 100%;""><img src=""images/map07_Greens_scaleRev_orientDef_270.png"" alt=""map"" style=""width: 100%;""><img src=""images/map10_YlOrRd_scaleDef_orientDef_180.png"" alt=""map"" style=""width: 100%;""><img src=""images/map26_seismic_scaleDef_orientMir_180.png"" alt=""map"" style=""width: 100%;""><img src=""images/map23_RdBu_scaleRev_orientDef_270.png"" alt=""map"" style=""width: 100%;""><img src=""images/map27_vanimo_scaleDef_orientMir_000.png"" alt=""map"" style=""width: 100%;""><img src=""images/map05_Greys_scaleRev_orientMir_090.png"" alt=""map"" style=""width: 100%;""><img src=""images/map12_PuBu_scaleDef_orientMir_180.png"" alt=""map"" style=""width: 100%;""><img src=""images/map13_PuBuGn_scaleDef_orientDef_180.png"" alt=""map"" style=""width: 100%;""><img src=""images/map26_coolwarm_scaleRev_orientDef_270.png"" alt=""map"" style=""width: 100%;""><img src=""images/map15_PiYG_scaleRev_orientDef_090.png"" alt=""map"" style=""width: 100%;""><img src=""images/map13_YlGnBu_scaleRev_orientDef_090.png"" alt=""map"" style=""width: 100%;""><img src=""images/map05_cividis_scaleRev_orientDef_270.png"" alt=""map"" style=""width: 100%;""><img src=""images/map07_Oranges_scaleRev_orientMir_090.png"" alt=""map"" style=""width: 100%;""><img src=""images/map23_RdYlGn_scaleRev_orientMir_270.png"" alt=""map"" style=""width: 100%;""><img src=""images/map26_Spectral_scaleDef_orientDef_000.png"" alt=""map"" style=""width: 100%;""><img src=""images/map15_PRGn_scaleDef_orientDef_180.png"" alt=""map"" style=""width: 100%;""><img src=""images/map15_BrBG_scaleRev_orientMir_090.png"" alt=""map"" style=""width: 100%;""><img src=""images/map23_RdYlBu_scaleDef_orientMir_000.png"" alt=""map"" style=""width: 100%;""><img src=""images/map13_BuGn_scaleDef_orientMir_000.png"" alt=""map"" style=""width: 100%;""><img src=""images/map02_plasma_scaleRev_orientMir_090.png"" alt=""map"" style=""width: 100%;""><img src=""images/map07_Reds_scaleRev_orientMir_270.png"" alt=""map"" style=""width: 100%;""><img src=""images/map02_viridis_scaleDef_orientDef_180.png"" alt=""map"" style=""width: 100%;""><img src=""images/map12_RdPu_scaleDef_orientDef_000.png"" alt=""map"" style=""width: 100%;""><img src=""images/map10_OrRd_scaleRev_orientMir_090.png"" alt=""map"" style=""width: 100%;""><img src=""images/map13_YlGn_scaleDef_orientMir_180.png"" alt=""map"" style=""width: 100%;""><img src=""images/map05_magma_scaleDef_orientDef_000.png"" alt=""map"" style=""width: 100%;""><img src=""images/map27_berlin_scaleRev_orientDef_090.png"" alt=""map"" style=""width: 100%;""><img src=""images/map27_gist_earth_scaleDef_orientMir_180.png"" alt=""map"" style=""width: 100%;""><img src=""images/map02_turbo_scaleDef_orientDef_000.png"" alt=""map"" style=""width: 100%;""><img src=""images/map07_Blues_scaleDef_orientDef_000.png"" alt=""map"" style=""width: 100%;""><img src=""images/map10_PuRd_scaleRev_orientMir_270.png"" alt=""map"" style=""width: 100%;""><img src=""images/map15_PuOr_scaleDef_orientMir_180.png"" alt=""map"" style=""width: 100%;""><img src=""images/map10_YlOrBr_scaleRev_orientDef_090.png"" alt=""map"" style=""width: 100%;""><img src=""images/map12_BuPu_scaleRev_orientDef_270.png"" alt=""map"" style=""width: 100%;""><img src=""images/map02_inferno_scaleRev_orientMir_270.png"" alt=""map"" style=""width: 100%;""><img src=""images/map27_managua_scaleDef_orientDef_180.png"" alt=""map"" style=""width: 100%;""><img src=""images/map23_RdGy_scaleRev_orientDef_090.png"" alt=""map"" style=""width: 100%;"">
                    </div>
                </div>

                    <!-- Clear floats -->
                    <div style=""clear: both;""></div>
                </div>
                            ",0.42,"",0,"true",NA,"","","",NA,NA,NA,"","","","",NA,NA
"","","","","","html-button-response",7,59667,"0.0-7.0","825xa3kzyp",2,1697,"<div style=""width:800px;""><p style=""text-align:left"">To move the slider, click and drag your cursor to the location of the scale where you would like to make your rating and then let go. When you let go of the slider, your response will be recorded and the next trial will begin. <br>
                    We are interested in your initial impressions of each map for the given concept, so please go with your first intuition. <br>
                    Before you begin the experiment, there will be four training trials for you to practice using the scale. <br>
                     When you are ready to start the training trials, please click ""Continue"".</p><br></div>",0.5,"",NA,"",NA,"","","",NA,NA,NA,"","","","",NA,NA
"","","","","","html-slider-response",8,62697,"0.0-8.0-0.0","825xa3kzyp",2,NA,"<div style=""width:500px;"">
                                    <p style=""font-size:25px;"">Please move the slider all the way to the <br> right endpoint of the scale</p>

                                    </div>
                                </div>",0,"",0,"true",0,"false","","",NA,NA,NA,"","","","",NA,NA
"","","","","","html-button-response",9,65767,"0.0-8.0-1.0","825xa3kzyp",2,2566,"<p align='center'><b>Not quite!</b> The slider was not placed near the instructed located. Click on 'Continue' to try again. </p>",0.5,"",NA,"",NA,"","","",NA,NA,NA,"","","","",NA,NA
"","","","","","html-slider-response",10,67259,"0.0-8.1-0.1","825xa3kzyp",2,NA,"<div style=""width:500px;"">
                                    <p style=""font-size:25px;"">Please move the slider all the way to the <br> right endpoint of the scale</p>

                                    </div>
                                </div>",1,"",0,"true",0,"true","","",NA,NA,NA,"","","","",NA,NA
"","","","","","html-button-response",11,68484,"0.0-8.1-1.1","825xa3kzyp",2,722,"<p align='center'><b>Good job!</b> Click on 'Continue' to proceed.</p>",0.5,"",NA,"",NA,"","","",NA,NA,NA,"","","","",NA,NA
"","","","","","html-slider-response",12,69715,"0.0-9.0-0.0","825xa3kzyp",2,NA,"<div style=""width:500px;"">
                                    <p style=""font-size:25px;"">Please move the slider all the way to the <br> left endpoint of the scale</p>

                                    </div>
                                </div>",0.0725,"",0,"true",1,"false","","",NA,NA,NA,"","","","",NA,NA
"","","","","","html-button-response",13,71550,"0.0-9.0-1.0","825xa3kzyp",2,1333,"<p align='center'><b>Not quite!</b> The slider was not placed near the instructed located. Click on 'Continue' to try again. </p>",0.5,"",NA,"",NA,"","","",NA,NA,NA,"","","","",NA,NA
"","","","","","html-slider-response",14,72560,"0.0-9.1-0.1","825xa3kzyp",2,NA,"<div style=""width:500px;"">
                                    <p style=""font-size:25px;"">Please move the slider all the way to the <br> left endpoint of the scale</p>

                                    </div>
                                </div>",0,"",0,"true",1,"true","","",NA,NA,NA,"","","","",NA,NA
"","","","","","html-button-response",15,73550,"0.0-9.1-1.1","825xa3kzyp",2,487,"<p align='center'><b>Good job!</b> Click on 'Continue' to proceed.</p>",0.5,"",NA,"",NA,"","","",NA,NA,NA,"","","","",NA,NA
"","","","","","html-slider-response",16,75661,"0.0-10.0-0.0","825xa3kzyp",2,NA,"<div style=""width:500px;"">
                                    <p style=""font-size:25px;"">Please move the slider halfway between the center and right endpoint of the scale</p>

                                    </div>
                                </div>",0.4975,"",0,"true",2,"false","","",NA,NA,NA,"","","","",NA,NA
"","","","","","html-button-response",17,77133,"0.0-10.0-1.0","825xa3kzyp",2,969,"<p align='center'><b>Not quite!</b> The slider was not placed near the instructed located. Click on 'Continue' to try again. </p>",0.5,"",NA,"",NA,"","","",NA,NA,NA,"","","","",NA,NA
"","","","","","html-slider-response",18,80895,"0.0-10.1-0.1","825xa3kzyp",2,NA,"<div style=""width:500px;"">
                                    <p style=""font-size:25px;"">Please move the slider halfway between the center and right endpoint of the scale</p>

                                    </div>
                                </div>",0.765,"",0,"true",2,"true","","",NA,NA,NA,"","","","",NA,NA
"","","","","","html-button-response",19,81883,"0.0-10.1-1.1","825xa3kzyp",2,485,"<p align='center'><b>Good job!</b> Click on 'Continue' to proceed.</p>",0.5,"",NA,"",NA,"","","",NA,NA,NA,"","","","",NA,NA
"","","","","","html-slider-response",20,84011,"0.0-11.0-0.0","825xa3kzyp",2,NA,"<div style=""width:500px;"">
                                    <p style=""font-size:25px;"">Please move the slider halfway between the center and left endpoint of the scale</p>

                                    </div>
                                </div>",0.24,"",0,"true",3,"true","","",NA,NA,NA,"","","","",NA,NA
"","","","","","html-button-response",21,84933,"0.0-11.0-1.0","825xa3kzyp",2,419,"<p align='center'><b>Good job!</b> Click on 'Continue' to proceed.</p>",0.5,"",NA,"",NA,"","","",NA,NA,NA,"","","","",NA,NA
"","","","","","html-button-response",22,85866,"0.0-12.0","825xa3kzyp",2,932,"<p>Great job! You've completed the practice trials. Now you will begin the main task.</p>",0.5,"",NA,"",NA,"","","",NA,NA,NA,"","","","",NA,NA
"","","","","","html-button-response",23,87666,"0.0-13.0","825xa3kzyp",2,1798,"<p>In this block of trials, you will be asked to rate how much you associate each map with:</p > <p style = 'font-size:150%; font-weight: bold'>sad</p><br></br>",0.5,"",NA,"",NA,"","","",NA,NA,NA,"","","","",NA,NA
"","","","","","html-slider-response",24,91577,"0.0-14.0","825xa3kzyp",2,NA,"<div style=""width:500px;"">
                            <p style=""font-size:50px; font-weight:bold;""
                            >sad</p>
                            <div style=""width:240px; margin: auto;"">
                                <img src=""images/map13_YlGn_scaleRev_orientMir_270.png"" style= ""width:200px""alt=""img"">
                            </div>
                        </div>",0.39,"",0,"",NA,"","images/map13_YlGn_scaleRev_orientMir_270.png","sad",1,13,13,"YlGn","orientMir","scaleRev","270",NA,NA
"","","","","","html-slider-response",25,93779,"0.0-15.0","825xa3kzyp",2,NA,"<div style=""width:500px;"">
                            <p style=""font-size:50px; font-weight:bold;""
                            >sad</p>
                            <div style=""width:240px; margin: auto;"">
                                <img src=""images/map07_Greens_scaleRev_orientDef_270.png"" style= ""width:200px""alt=""img"">
                            </div>
                        </div>",0.365,"",0,"",NA,"","images/map07_Greens_scaleRev_orientDef_270.png","sad",1,7,7,"Greens","orientDef","scaleRev","270",NA,NA
"","","","","","html-slider-response",26,96066,"0.0-16.0","825xa3kzyp",2,NA,"<div style=""width:500px;"">
                            <p style=""font-size:50px; font-weight:bold;""
                            >sad</p>
                            <div style=""width:240px; margin: auto;"">
                                <img src=""images/map12_RdPu_scaleRev_orientDef_090.png"" style= ""width:200px""alt=""img"">
                            </div>
                        </div>",0.0875,"",0,"",NA,"","images/map12_RdPu_scaleRev_orientDef_090.png","sad",1,12,12,"RdPu","orientDef","scaleRev","090",NA,NA
"","","","","","html-slider-response",27,98511,"0.0-17.0","825xa3kzyp",2,NA,"<div style=""width:500px;"">
                            <p style=""font-size:50px; font-weight:bold;""
                            >sad</p>
                            <div style=""width:240px; margin: auto;"">
                                <img src=""images/map10_YlOrBr_scaleDef_orientDef_000.png"" style= ""width:200px""alt=""img"">
                            </div>
                        </div>",0.5575,"",0,"",NA,"","images/map10_YlOrBr_scaleDef_orientDef_000.png","sad",1,10,10,"YlOrBr","orientDef","scaleDef","000",NA,NA
"","","","","","html-slider-response",28,100177,"0.0-18.0","825xa3kzyp",2,NA,"<div style=""width:500px;"">
                            <p style=""font-size:50px; font-weight:bold;""
                            >sad</p>
                            <div style=""width:240px; margin: auto;"">
                                <img src=""images/map07_Oranges_scaleDef_orientMir_000.png"" style= ""width:200px""alt=""img"">
                            </div>
                        </div>",0.585,"",0,"",NA,"","images/map07_Oranges_scaleDef_orientMir_000.png","sad",1,7,7,"Oranges","orientMir","scaleDef","000",NA,NA
"","","","","","html-slider-response",29,101627,"0.0-19.0","825xa3kzyp",2,NA,"<div style=""width:500px;"">
                            <p style=""font-size:50px; font-weight:bold;""
                            >sad</p>
                            <div style=""width:240px; margin: auto;"">
                                <img src=""images/map10_YlOrRd_scaleDef_orientDef_180.png"" style= ""width:200px""alt=""img"">
                            </div>
                        </div>",0.64,"",0,"",NA,"","images/map10_YlOrRd_scaleDef_orientDef_180.png","sad",1,10,10,"YlOrRd","orientDef","scaleDef","180",NA,NA
"","","","","","html-slider-response",30,104093,"0.0-20.0","825xa3kzyp",2,NA,"<div style=""width:500px;"">
                            <p style=""font-size:50px; font-weight:bold;""
                            >sad</p>
                            <div style=""width:240px; margin: auto;"">
                                <img src=""images/map10_OrRd_scaleRev_orientMir_090.png"" style= ""width:200px""alt=""img"">
                            </div>
                        </div>",0.4175,"",0,"",NA,"","images/map10_OrRd_scaleRev_orientMir_090.png","sad",1,10,10,"OrRd","orientMir","scaleRev","090",NA,NA
"","","","","","html-slider-response",31,105994,"0.0-21.0","825xa3kzyp",2,NA,"<div style=""width:500px;"">
                            <p style=""font-size:50px; font-weight:bold;""
                            >sad</p>
                            <div style=""width:240px; margin: auto;"">
                                <img src=""images/map05_Greys_scaleRev_orientMir_090.png"" style= ""width:200px""alt=""img"">
                            </div>
                        </div>",0.8275,"",0,"",NA,"","images/map05_Greys_scaleRev_orientMir_090.png","sad",1,5,5,"Greys","orientMir","scaleRev","090",NA,NA
"","","","","","html-slider-response",32,107762,"0.0-22.0","825xa3kzyp",2,NA,"<div style=""width:500px;"">
                            <p style=""font-size:50px; font-weight:bold;""
                            >sad</p>
                            <div style=""width:240px; margin: auto;"">
                                <img src=""images/map02_turbo_scaleDef_orientDef_000.png"" style= ""width:200px""alt=""img"">
                            </div>
                        </div>",0.3575,"",0,"",NA,"","images/map02_turbo_scaleDef_orientDef_000.png","sad",1,2,2,"turbo","orientDef","scaleDef","000",NA,NA
"","","","","","html-slider-response",33,109167,"0.0-23.0","825xa3kzyp",2,NA,"<div style=""width:500px;"">
                            <p style=""font-size:50px; font-weight:bold;""
                            >sad</p>
                            <div style=""width:240px; margin: auto;"">
                                <img src=""images/map26_bwr_scaleDef_orientMir_000.png"" style= ""width:200px""alt=""img"">
                            </div>
                        </div>",0.395,"",0,"",NA,"","images/map26_bwr_scaleDef_orientMir_000.png","sad",1,26,26,"bwr","orientMir","scaleDef","000",NA,NA
"","","","","","html-slider-response",34,110792,"0.0-24.0","825xa3kzyp",2,NA,"<div style=""width:500px;"">
                            <p style=""font-size:50px; font-weight:bold;""
                            >sad</p>
                            <div style=""width:240px; margin: auto;"">
                                <img src=""images/map23_RdYlGn_scaleRev_orientMir_270.png"" style= ""width:200px""alt=""img"">
                            </div>
                        </div>",0.6075,"",0,"",NA,"","images/map23_RdYlGn_scaleRev_orientMir_270.png","sad",1,23,23,"RdYlGn","orientMir","scaleRev","270",NA,NA
"","","","","","html-slider-response",35,112613,"0.0-25.0","825xa3kzyp",2,NA,"<div style=""width:500px;"">
                            <p style=""font-size:50px; font-weight:bold;""
                            >sad</p>
                            <div style=""width:240px; margin: auto;"">
                                <img src=""images/map10_PuRd_scaleRev_orientMir_270.png"" style= ""width:200px""alt=""img"">
                            </div>
                        </div>",0.0825,"",0,"",NA,"","images/map10_PuRd_scaleRev_orientMir_270.png","sad",1,10,10,"PuRd","orientMir","scaleRev","270",NA,NA
"","","","","","html-slider-response",36,114511,"0.0-26.0","825xa3kzyp",2,NA,"<div style=""width:500px;"">
                            <p style=""font-size:50px; font-weight:bold;""
                            >sad</p>
                            <div style=""width:240px; margin: auto;"">
                                <img src=""images/map26_seismic_scaleDef_orientMir_180.png"" style= ""width:200px""alt=""img"">
                            </div>
                        </div>",0.405,"",0,"",NA,"","images/map26_seismic_scaleDef_orientMir_180.png","sad",1,26,26,"seismic","orientMir","scaleDef","180",NA,NA
"","","","","","html-slider-response",37,116243,"0.0-27.0","825xa3kzyp",2,NA,"<div style=""width:500px;"">
                            <p style=""font-size:50px; font-weight:bold;""
                            >sad</p>
                            <div style=""width:240px; margin: auto;"">
                                <img src=""images/map27_managua_scaleDef_orientDef_180.png"" style= ""width:200px""alt=""img"">
                            </div>
                        </div>",0.575,"",0,"",NA,"","images/map27_managua_scaleDef_orientDef_180.png","sad",1,27,27,"managua","orientDef","scaleDef","180",NA,NA
"","","","","","html-slider-response",38,119059,"0.0-28.0","825xa3kzyp",2,NA,"<div style=""width:500px;"">
                            <p style=""font-size:50px; font-weight:bold;""
                            >sad</p>
                            <div style=""width:240px; margin: auto;"">
                                <img src=""images/map15_PRGn_scaleRev_orientDef_270.png"" style= ""width:200px""alt=""img"">
                            </div>
                        </div>",0.3325,"",0,"",NA,"","images/map15_PRGn_scaleRev_orientDef_270.png","sad",1,15,15,"PRGn","orientDef","scaleRev","270",NA,NA
"","","","","","html-slider-response",39,120594,"0.0-29.0","825xa3kzyp",2,NA,"<div style=""width:500px;"">
                            <p style=""font-size:50px; font-weight:bold;""
                            >sad</p>
                            <div style=""width:240px; margin: auto;"">
                                <img src=""images/map07_Reds_scaleRev_orientMir_270.png"" style= ""width:200px""alt=""img"">
                            </div>
                        </div>",0.5975,"",0,"",NA,"","images/map07_Reds_scaleRev_orientMir_270.png","sad",1,7,7,"Reds","orientMir","scaleRev","270",NA,NA
"","","","","","html-slider-response",40,122358,"0.0-30.0","825xa3kzyp",2,NA,"<div style=""width:500px;"">
                            <p style=""font-size:50px; font-weight:bold;""
                            >sad</p>
                            <div style=""width:240px; margin: auto;"">
                                <img src=""images/map13_YlGn_scaleDef_orientMir_180.png"" style= ""width:200px""alt=""img"">
                            </div>
                        </div>",0.4,"",0,"",NA,"","images/map13_YlGn_scaleDef_orientMir_180.png","sad",1,13,13,"YlGn","orientMir","scaleDef","180",NA,NA
"","","","","","html-slider-response",41,123941,"0.0-31.0","825xa3kzyp",2,NA,"<div style=""width:500px;"">
                            <p style=""font-size:50px; font-weight:bold;""
                            >sad</p>
                            <div style=""width:240px; margin: auto;"">
                                <img src=""images/map02_turbo_scaleRev_orientDef_090.png"" style= ""width:200px""alt=""img"">
                            </div>
                        </div>",0.3175,"",0,"",NA,"","images/map02_turbo_scaleRev_orientDef_090.png","sad",1,2,2,"turbo","orientDef","scaleRev","090",NA,NA
"","","","","","html-slider-response",42,125560,"0.0-32.0","825xa3kzyp",2,NA,"<div style=""width:500px;"">
                            <p style=""font-size:50px; font-weight:bold;""
                            >sad</p>
                            <div style=""width:240px; margin: auto;"">
                                <img src=""images/map02_inferno_scaleDef_orientMir_180.png"" style= ""width:200px""alt=""img"">
                            </div>
                        </div>",0.3,"",0,"",NA,"","images/map02_inferno_scaleDef_orientMir_180.png","sad",1,2,2,"inferno","orientMir","scaleDef","180",NA,NA
"","","","","","html-slider-response",43,127177,"0.0-33.0","825xa3kzyp",2,NA,"<div style=""width:500px;"">
                            <p style=""font-size:50px; font-weight:bold;""
                            >sad</p>
                            <div style=""width:240px; margin: auto;"">
                                <img src=""images/map07_Blues_scaleRev_orientDef_090.png"" style= ""width:200px""alt=""img"">
                            </div>
                        </div>",0.6675,"",0,"",NA,"","images/map07_Blues_scaleRev_orientDef_090.png","sad",1,7,7,"Blues","orientDef","scaleRev","090",NA,NA
"","","","","","html-slider-response",44,128741,"0.0-34.0","825xa3kzyp",2,NA,"<div style=""width:500px;"">
                            <p style=""font-size:50px; font-weight:bold;""
                            >sad</p>
                            <div style=""width:240px; margin: auto;"">
                                <img src=""images/map27_managua_scaleRev_orientDef_270.png"" style= ""width:200px""alt=""img"">
                            </div>
                        </div>",0.365,"",0,"",NA,"","images/map27_managua_scaleRev_orientDef_270.png","sad",1,27,27,"managua","orientDef","scaleRev","270",NA,NA
"","","","","","html-slider-response",45,130161,"0.0-35.0","825xa3kzyp",2,NA,"<div style=""width:500px;"">
                            <p style=""font-size:50px; font-weight:bold;""
                            >sad</p>
                            <div style=""width:240px; margin: auto;"">
                                <img src=""images/map26_bwr_scaleRev_orientMir_090.png"" style= ""width:200px""alt=""img"">
                            </div>
                        </div>",0.37,"",0,"",NA,"","images/map26_bwr_scaleRev_orientMir_090.png","sad",1,26,26,"bwr","orientMir","scaleRev","090",NA,NA
"","","","","","html-slider-response",46,131810,"0.0-36.0","825xa3kzyp",2,NA,"<div style=""width:500px;"">
                            <p style=""font-size:50px; font-weight:bold;""
                            >sad</p>
                            <div style=""width:240px; margin: auto;"">
                                <img src=""images/map10_PuRd_scaleDef_orientMir_180.png"" style= ""width:200px""alt=""img"">
                            </div>
                        </div>",0.1675,"",0,"",NA,"","images/map10_PuRd_scaleDef_orientMir_180.png","sad",1,10,10,"PuRd","orientMir","scaleDef","180",NA,NA
"","","","","","html-slider-response",47,133510,"0.0-37.0","825xa3kzyp",2,NA,"<div style=""width:500px;"">
                            <p style=""font-size:50px; font-weight:bold;""
                            >sad</p>
                            <div style=""width:240px; margin: auto;"">
                                <img src=""images/map13_YlGnBu_scaleDef_orientDef_000.png"" style= ""width:200px""alt=""img"">
                            </div>
                        </div>",0.6625,"",0,"",NA,"","images/map13_YlGnBu_scaleDef_orientDef_000.png","sad",1,13,13,"YlGnBu","orientDef","scaleDef","000",NA,NA
"","","","","","html-slider-response",48,135076,"0.0-38.0","825xa3kzyp",2,NA,"<div style=""width:500px;"">
                            <p style=""font-size:50px; font-weight:bold;""
                            >sad</p>
                            <div style=""width:240px; margin: auto;"">
                                <img src=""images/map05_Purples_scaleDef_orientMir_180.png"" style= ""width:200px""alt=""img"">
                            </div>
                        </div>",0.365,"",0,"",NA,"","images/map05_Purples_scaleDef_orientMir_180.png","sad",1,5,5,"Purples","orientMir","scaleDef","180",NA,NA
"","","","","","html-slider-response",49,136495,"0.0-39.0","825xa3kzyp",2,NA,"<div style=""width:500px;"">
                            <p style=""font-size:50px; font-weight:bold;""
                            >sad</p>
                            <div style=""width:240px; margin: auto;"">
                                <img src=""images/map13_BuGn_scaleDef_orientMir_000.png"" style= ""width:200px""alt=""img"">
                            </div>
                        </div>",0.34,"",0,"",NA,"","images/map13_BuGn_scaleDef_orientMir_000.png","sad",1,13,13,"BuGn","orientMir","scaleDef","000",NA,NA
"","","","","","html-slider-response",50,138061,"0.0-40.0","825xa3kzyp",2,NA,"<div style=""width:500px;"">
                            <p style=""font-size:50px; font-weight:bold;""
                            >sad</p>
                            <div style=""width:240px; margin: auto;"">
                                <img src=""images/map05_Greys_scaleDef_orientMir_000.png"" style= ""width:200px""alt=""img"">
                            </div>
                        </div>",0.91,"",0,"",NA,"","images/map05_Greys_scaleDef_orientMir_000.png","sad",1,5,5,"Greys","orientMir","scaleDef","000",NA,NA
"","","","","","html-slider-response",51,139578,"0.0-41.0","825xa3kzyp",2,NA,"<div style=""width:500px;"">
                            <p style=""font-size:50px; font-weight:bold;""
                            >sad</p>
                            <div style=""width:240px; margin: auto;"">
                                <img src=""images/map15_PuOr_scaleRev_orientMir_270.png"" style= ""width:200px""alt=""img"">
                            </div>
                        </div>",0.345,"",0,"",NA,"","images/map15_PuOr_scaleRev_orientMir_270.png","sad",1,15,15,"PuOr","orientMir","scaleRev","270",NA,NA
"","","","","","html-slider-response",52,141194,"0.0-42.0","825xa3kzyp",2,NA,"<div style=""width:500px;"">
                            <p style=""font-size:50px; font-weight:bold;""
                            >sad</p>
                            <div style=""width:240px; margin: auto;"">
                                <img src=""images/map27_vanimo_scaleDef_orientMir_000.png"" style= ""width:200px""alt=""img"">
                            </div>
                        </div>",0.6975,"",0,"",NA,"","images/map27_vanimo_scaleDef_orientMir_000.png","sad",1,27,27,"vanimo","orientMir","scaleDef","000",NA,NA
"","","","","","html-slider-response",53,142591,"0.0-43.0","825xa3kzyp",2,NA,"<div style=""width:500px;"">
                            <p style=""font-size:50px; font-weight:bold;""
                            >sad</p>
                            <div style=""width:240px; margin: auto;"">
                                <img src=""images/map12_GnBu_scaleDef_orientMir_000.png"" style= ""width:200px""alt=""img"">
                            </div>
                        </div>",0.31,"",0,"",NA,"","images/map12_GnBu_scaleDef_orientMir_000.png","sad",1,12,12,"GnBu","orientMir","scaleDef","000",NA,NA
"","","","","","html-slider-response",54,143942,"0.0-44.0","825xa3kzyp",2,NA,"<div style=""width:500px;"">
                            <p style=""font-size:50px; font-weight:bold;""
                            >sad</p>
                            <div style=""width:240px; margin: auto;"">
                                <img src=""images/map02_inferno_scaleRev_orientMir_270.png"" style= ""width:200px""alt=""img"">
                            </div>
                        </div>",0.285,"",0,"",NA,"","images/map02_inferno_scaleRev_orientMir_270.png","sad",1,2,2,"inferno","orientMir","scaleRev","270",NA,NA
"","","","","","html-slider-response",55,145242,"0.0-45.0","825xa3kzyp",2,NA,"<div style=""width:500px;"">
                            <p style=""font-size:50px; font-weight:bold;""
                            >sad</p>
                            <div style=""width:240px; margin: auto;"">
                                <img src=""images/map15_BrBG_scaleDef_orientMir_000.png"" style= ""width:200px""alt=""img"">
                            </div>
                        </div>",0.2725,"",0,"",NA,"","images/map15_BrBG_scaleDef_orientMir_000.png","sad",1,15,15,"BrBG","orientMir","scaleDef","000",NA,NA
"","","","","","html-slider-response",56,146475,"0.0-46.0","825xa3kzyp",2,NA,"<div style=""width:500px;"">
                            <p style=""font-size:50px; font-weight:bold;""
                            >sad</p>
                            <div style=""width:240px; margin: auto;"">
                                <img src=""images/map15_BrBG_scaleRev_orientMir_090.png"" style= ""width:200px""alt=""img"">
                            </div>
                        </div>",0.265,"",0,"",NA,"","images/map15_BrBG_scaleRev_orientMir_090.png","sad",1,15,15,"BrBG","orientMir","scaleRev","090",NA,NA
"","","","","","html-slider-response",57,147809,"0.0-47.0","825xa3kzyp",2,NA,"<div style=""width:500px;"">
                            <p style=""font-size:50px; font-weight:bold;""
                            >sad</p>
                            <div style=""width:240px; margin: auto;"">
                                <img src=""images/map13_BuGn_scaleRev_orientMir_090.png"" style= ""width:200px""alt=""img"">
                            </div>
                        </div>",0.275,"",0,"",NA,"","images/map13_BuGn_scaleRev_orientMir_090.png","sad",1,13,13,"BuGn","orientMir","scaleRev","090",NA,NA
"","","","","","html-slider-response",58,149167,"0.0-48.0","825xa3kzyp",2,NA,"<div style=""width:500px;"">
                            <p style=""font-size:50px; font-weight:bold;""
                            >sad</p>
                            <div style=""width:240px; margin: auto;"">
                                <img src=""images/map26_coolwarm_scaleDef_orientDef_180.png"" style= ""width:200px""alt=""img"">
                            </div>
                        </div>",0.3075,"",0,"",NA,"","images/map26_coolwarm_scaleDef_orientDef_180.png","sad",1,26,26,"coolwarm","orientDef","scaleDef","180",NA,NA
"","","","","","html-slider-response",59,150484,"0.0-49.0","825xa3kzyp",2,NA,"<div style=""width:500px;"">
                            <p style=""font-size:50px; font-weight:bold;""
                            >sad</p>
                            <div style=""width:240px; margin: auto;"">
                                <img src=""images/map26_Spectral_scaleRev_orientDef_090.png"" style= ""width:200px""alt=""img"">
                            </div>
                        </div>",0.305,"",0,"",NA,"","images/map26_Spectral_scaleRev_orientDef_090.png","sad",1,26,26,"Spectral","orientDef","scaleRev","090",NA,NA
"","","","","","html-slider-response",60,151842,"0.0-50.0","825xa3kzyp",2,NA,"<div style=""width:500px;"">
                            <p style=""font-size:50px; font-weight:bold;""
                            >sad</p>
                            <div style=""width:240px; margin: auto;"">
                                <img src=""images/map27_berlin_scaleRev_orientDef_090.png"" style= ""width:200px""alt=""img"">
                            </div>
                        </div>",0.7225,"",0,"",NA,"","images/map27_berlin_scaleRev_orientDef_090.png","sad",1,27,27,"berlin","orientDef","scaleRev","090",NA,NA
"","","","","","html-slider-response",61,153174,"0.0-51.0","825xa3kzyp",2,NA,"<div style=""width:500px;"">
                            <p style=""font-size:50px; font-weight:bold;""
                            >sad</p>
                            <div style=""width:240px; margin: auto;"">
                                <img src=""images/map23_RdYlGn_scaleDef_orientMir_180.png"" style= ""width:200px""alt=""img"">
                            </div>
                        </div>",0.37,"",0,"",NA,"","images/map23_RdYlGn_scaleDef_orientMir_180.png","sad",1,23,23,"RdYlGn","orientMir","scaleDef","180",NA,NA
"","","","","","html-slider-response",62,154426,"0.0-52.0","825xa3kzyp",2,NA,"<div style=""width:500px;"">
                            <p style=""font-size:50px; font-weight:bold;""
                            >sad</p>
                            <div style=""width:240px; margin: auto;"">
                                <img src=""images/map12_GnBu_scaleRev_orientMir_090.png"" style= ""width:200px""alt=""img"">
                            </div>
                        </div>",0.34,"",0,"",NA,"","images/map12_GnBu_scaleRev_orientMir_090.png","sad",1,12,12,"GnBu","orientMir","scaleRev","090",NA,NA
"","","","","","html-slider-response",63,155777,"0.0-53.0","825xa3kzyp",2,NA,"<div style=""width:500px;"">
                            <p style=""font-size:50px; font-weight:bold;""
                            >sad</p>
                            <div style=""width:240px; margin: auto;"">
                                <img src=""images/map10_OrRd_scaleDef_orientMir_000.png"" style= ""width:200px""alt=""img"">
                            </div>
                        </div>",0.22,"",0,"",NA,"","images/map10_OrRd_scaleDef_orientMir_000.png","sad",1,10,10,"OrRd","orientMir","scaleDef","000",NA,NA
"","","","","","html-button-response",64,158799,"0.0-54.0","825xa3kzyp",2,2520,"<p>You are doing great!<br></br> You are halway done with the current block. When you are ready to continue, click the 'Continue' button.</p>",0.5,"",NA,"",NA,"","","",NA,NA,NA,"","","","",NA,NA
"","","","","","html-slider-response",65,160143,"0.0-55.0","825xa3kzyp",2,NA,"<div style=""width:500px;"">
                            <p style=""font-size:50px; font-weight:bold;""
                            >sad</p>
                            <div style=""width:240px; margin: auto;"">
                                <img src=""images/map23_RdGy_scaleRev_orientDef_090.png"" style= ""width:200px""alt=""img"">
                            </div>
                        </div>",0.295,"",0,"",NA,"","images/map23_RdGy_scaleRev_orientDef_090.png","sad",1,23,23,"RdGy","orientDef","scaleRev","090",NA,NA
"","","","","","html-slider-response",66,161491,"0.0-56.0","825xa3kzyp",2,NA,"<div style=""width:500px;"">
                            <p style=""font-size:50px; font-weight:bold;""
                            >sad</p>
                            <div style=""width:240px; margin: auto;"">
                                <img src=""images/map05_magma_scaleDef_orientDef_000.png"" style= ""width:200px""alt=""img"">
                            </div>
                        </div>",0.3375,"",0,"",NA,"","images/map05_magma_scaleDef_orientDef_000.png","sad",1,5,5,"magma","orientDef","scaleDef","000",NA,NA
"","","","","","html-slider-response",67,162757,"0.0-57.0","825xa3kzyp",2,NA,"<div style=""width:500px;"">
                            <p style=""font-size:50px; font-weight:bold;""
                            >sad</p>
                            <div style=""width:240px; margin: auto;"">
                                <img src=""images/map07_Blues_scaleDef_orientDef_000.png"" style= ""width:200px""alt=""img"">
                            </div>
                        </div>",0.33,"",0,"",NA,"","images/map07_Blues_scaleDef_orientDef_000.png","sad",1,7,7,"Blues","orientDef","scaleDef","000",NA,NA
"","","","","","html-slider-response",68,163973,"0.0-58.0","825xa3kzyp",2,NA,"<div style=""width:500px;"">
                            <p style=""font-size:50px; font-weight:bold;""
                            >sad</p>
                            <div style=""width:240px; margin: auto;"">
                                <img src=""images/map02_viridis_scaleRev_orientDef_270.png"" style= ""width:200px""alt=""img"">
                            </div>
                        </div>",0.2775,"",0,"",NA,"","images/map02_viridis_scaleRev_orientDef_270.png","sad",1,2,2,"viridis","orientDef","scaleRev","270",NA,NA
"","","","","","html-slider-response",69,165291,"0.0-59.0","825xa3kzyp",2,NA,"<div style=""width:500px;"">
                            <p style=""font-size:50px; font-weight:bold;""
                            >sad</p>
                            <div style=""width:240px; margin: auto;"">
                                <img src=""images/map23_RdGy_scaleDef_orientDef_000.png"" style= ""width:200px""alt=""img"">
                            </div>
                        </div>",0.7275,"",0,"",NA,"","images/map23_RdGy_scaleDef_orientDef_000.png","sad",1,23,23,"RdGy","orientDef","scaleDef","000",NA,NA
"","","","","","html-slider-response",70,166750,"0.0-60.0","825xa3kzyp",2,NA,"<div style=""width:500px;"">
                            <p style=""font-size:50px; font-weight:bold;""
                            >sad</p>
                            <div style=""width:240px; margin: auto;"">
                                <img src=""images/map07_Reds_scaleDef_orientMir_180.png"" style= ""width:200px""alt=""img"">
                            </div>
                        </div>",0.43,"",0,"",NA,"","images/map07_Reds_scaleDef_orientMir_180.png","sad",1,7,7,"Reds","orientMir","scaleDef","180",NA,NA
"","","","","","html-slider-response",71,167995,"0.0-61.0","825xa3kzyp",2,NA,"<div style=""width:500px;"">
                            <p style=""font-size:50px; font-weight:bold;""
                            >sad</p>
                            <div style=""width:240px; margin: auto;"">
                                <img src=""images/map15_PRGn_scaleDef_orientDef_180.png"" style= ""width:200px""alt=""img"">
                            </div>
                        </div>",0.315,"",0,"",NA,"","images/map15_PRGn_scaleDef_orientDef_180.png","sad",1,15,15,"PRGn","orientDef","scaleDef","180",NA,NA
"","","","","","html-slider-response",72,169259,"0.0-62.0","825xa3kzyp",2,NA,"<div style=""width:500px;"">
                            <p style=""font-size:50px; font-weight:bold;""
                            >sad</p>
                            <div style=""width:240px; margin: auto;"">
                                <img src=""images/map13_YlGnBu_scaleRev_orientDef_090.png"" style= ""width:200px""alt=""img"">
                            </div>
                        </div>",0.265,"",0,"",NA,"","images/map13_YlGnBu_scaleRev_orientDef_090.png","sad",1,13,13,"YlGnBu","orientDef","scaleRev","090",NA,NA
"","","","","","html-slider-response",73,170459,"0.0-63.0","825xa3kzyp",2,NA,"<div style=""width:500px;"">
                            <p style=""font-size:50px; font-weight:bold;""
                            >sad</p>
                            <div style=""width:240px; margin: auto;"">
                                <img src=""images/map23_RdYlBu_scaleDef_orientMir_000.png"" style= ""width:200px""alt=""img"">
                            </div>
                        </div>",0.34,"",0,"",NA,"","images/map23_RdYlBu_scaleDef_orientMir_000.png","sad",1,23,23,"RdYlBu","orientMir","scaleDef","000",NA,NA
"","","","","","html-slider-response",74,171642,"0.0-64.0","825xa3kzyp",2,NA,"<div style=""width:500px;"">
                            <p style=""font-size:50px; font-weight:bold;""
                            >sad</p>
                            <div style=""width:240px; margin: auto;"">
                                <img src=""images/map12_PuBu_scaleRev_orientMir_270.png"" style= ""width:200px""alt=""img"">
                            </div>
                        </div>",0.3275,"",0,"",NA,"","images/map12_PuBu_scaleRev_orientMir_270.png","sad",1,12,12,"PuBu","orientMir","scaleRev","270",NA,NA
"","","","","","html-slider-response",75,172840,"0.0-65.0","825xa3kzyp",2,NA,"<div style=""width:500px;"">
                            <p style=""font-size:50px; font-weight:bold;""
                            >sad</p>
                            <div style=""width:240px; margin: auto;"">
                                <img src=""images/map12_PuBu_scaleDef_orientMir_180.png"" style= ""width:200px""alt=""img"">
                            </div>
                        </div>",0.305,"",0,"",NA,"","images/map12_PuBu_scaleDef_orientMir_180.png","sad",1,12,12,"PuBu","orientMir","scaleDef","180",NA,NA
"","","","","","html-slider-response",76,174075,"0.0-66.0","825xa3kzyp",2,NA,"<div style=""width:500px;"">
                            <p style=""font-size:50px; font-weight:bold;""
                            >sad</p>
                            <div style=""width:240px; margin: auto;"">
                                <img src=""images/map05_Purples_scaleRev_orientMir_270.png"" style= ""width:200px""alt=""img"">
                            </div>
                        </div>",0.295,"",0,"",NA,"","images/map05_Purples_scaleRev_orientMir_270.png","sad",1,5,5,"Purples","orientMir","scaleRev","270",NA,NA
"","","","","","html-slider-response",77,175393,"0.0-67.0","825xa3kzyp",2,NA,"<div style=""width:500px;"">
                            <p style=""font-size:50px; font-weight:bold;""
                            >sad</p>
                            <div style=""width:240px; margin: auto;"">
                                <img src=""images/map15_PiYG_scaleRev_orientDef_090.png"" style= ""width:200px""alt=""img"">
                            </div>
                        </div>",0.345,"",0,"",NA,"","images/map15_PiYG_scaleRev_orientDef_090.png","sad",1,15,15,"PiYG","orientDef","scaleRev","090",NA,NA
"","","","","","html-slider-response",78,176775,"0.0-68.0","825xa3kzyp",2,NA,"<div style=""width:500px;"">
                            <p style=""font-size:50px; font-weight:bold;""
                            >sad</p>
                            <div style=""width:240px; margin: auto;"">
                                <img src=""images/map26_coolwarm_scaleRev_orientDef_270.png"" style= ""width:200px""alt=""img"">
                            </div>
                        </div>",0.235,"",0,"",NA,"","images/map26_coolwarm_scaleRev_orientDef_270.png","sad",1,26,26,"coolwarm","orientDef","scaleRev","270",NA,NA
"","","","","","html-slider-response",79,179410,"0.0-69.0","825xa3kzyp",2,NA,"<div style=""width:500px;"">
                            <p style=""font-size:50px; font-weight:bold;""
                            >sad</p>
                            <div style=""width:240px; margin: auto;"">
                                <img src=""images/map02_plasma_scaleRev_orientMir_090.png"" style= ""width:200px""alt=""img"">
                            </div>
                        </div>",0.3025,"",0,"",NA,"","images/map02_plasma_scaleRev_orientMir_090.png","sad",1,2,2,"plasma","orientMir","scaleRev","090",NA,NA
"","","","","","html-slider-response",80,180526,"0.0-70.0","825xa3kzyp",2,NA,"<div style=""width:500px;"">
                            <p style=""font-size:50px; font-weight:bold;""
                            >sad</p>
                            <div style=""width:240px; margin: auto;"">
                                <img src=""images/map05_magma_scaleRev_orientDef_090.png"" style= ""width:200px""alt=""img"">
                            </div>
                        </div>",0.255,"",0,"",NA,"","images/map05_magma_scaleRev_orientDef_090.png","sad",1,5,5,"magma","orientDef","scaleRev","090",NA,NA
"","","","","","html-slider-response",81,182110,"0.0-71.0","825xa3kzyp",2,NA,"<div style=""width:500px;"">
                            <p style=""font-size:50px; font-weight:bold;""
                            >sad</p>
                            <div style=""width:240px; margin: auto;"">
                                <img src=""images/map07_Greens_scaleDef_orientDef_180.png"" style= ""width:200px""alt=""img"">
                            </div>
                        </div>",0.5975,"",0,"",NA,"","images/map07_Greens_scaleDef_orientDef_180.png","sad",1,7,7,"Greens","orientDef","scaleDef","180",NA,NA
"","","","","","html-slider-response",82,183193,"0.0-72.0","825xa3kzyp",2,NA,"<div style=""width:500px;"">
                            <p style=""font-size:50px; font-weight:bold;""
                            >sad</p>
                            <div style=""width:240px; margin: auto;"">
                                <img src=""images/map26_seismic_scaleRev_orientMir_270.png"" style= ""width:200px""alt=""img"">
                            </div>
                        </div>",0.2975,"",0,"",NA,"","images/map26_seismic_scaleRev_orientMir_270.png","sad",1,26,26,"seismic","orientMir","scaleRev","270",NA,NA
"","","","","","html-slider-response",83,184412,"0.0-73.0","825xa3kzyp",2,NA,"<div style=""width:500px;"">
                            <p style=""font-size:50px; font-weight:bold;""
                            >sad</p>
                            <div style=""width:240px; margin: auto;"">
                                <img src=""images/map12_BuPu_scaleRev_orientDef_270.png"" style= ""width:200px""alt=""img"">
                            </div>
                        </div>",0.485,"",0,"",NA,"","images/map12_BuPu_scaleRev_orientDef_270.png","sad",1,12,12,"BuPu","orientDef","scaleRev","270",NA,NA
"","","","","","html-slider-response",84,185592,"0.0-74.0","825xa3kzyp",2,NA,"<div style=""width:500px;"">
                            <p style=""font-size:50px; font-weight:bold;""
                            >sad</p>
                            <div style=""width:240px; margin: auto;"">
                                <img src=""images/map23_RdYlBu_scaleRev_orientMir_090.png"" style= ""width:200px""alt=""img"">
                            </div>
                        </div>",0.395,"",0,"",NA,"","images/map23_RdYlBu_scaleRev_orientMir_090.png","sad",1,23,23,"RdYlBu","orientMir","scaleRev","090",NA,NA
"","","","","","html-slider-response",85,186810,"0.0-75.0","825xa3kzyp",2,NA,"<div style=""width:500px;"">
                            <p style=""font-size:50px; font-weight:bold;""
                            >sad</p>
                            <div style=""width:240px; margin: auto;"">
                                <img src=""images/map12_BuPu_scaleDef_orientDef_180.png"" style= ""width:200px""alt=""img"">
                            </div>
                        </div>",0.3575,"",0,"",NA,"","images/map12_BuPu_scaleDef_orientDef_180.png","sad",1,12,12,"BuPu","orientDef","scaleDef","180",NA,NA
"","","","","","html-slider-response",86,187912,"0.0-76.0","825xa3kzyp",2,NA,"<div style=""width:500px;"">
                            <p style=""font-size:50px; font-weight:bold;""
                            >sad</p>
                            <div style=""width:240px; margin: auto;"">
                                <img src=""images/map02_plasma_scaleDef_orientMir_000.png"" style= ""width:200px""alt=""img"">
                            </div>
                        </div>",0.285,"",0,"",NA,"","images/map02_plasma_scaleDef_orientMir_000.png","sad",1,2,2,"plasma","orientMir","scaleDef","000",NA,NA
"","","","","","html-slider-response",87,188893,"0.0-77.0","825xa3kzyp",2,NA,"<div style=""width:500px;"">
                            <p style=""font-size:50px; font-weight:bold;""
                            >sad</p>
                            <div style=""width:240px; margin: auto;"">
                                <img src=""images/map02_viridis_scaleDef_orientDef_180.png"" style= ""width:200px""alt=""img"">
                            </div>
                        </div>",0.25,"",0,"",NA,"","images/map02_viridis_scaleDef_orientDef_180.png","sad",1,2,2,"viridis","orientDef","scaleDef","180",NA,NA
"","","","","","html-slider-response",88,189910,"0.0-78.0","825xa3kzyp",2,NA,"<div style=""width:500px;"">
                            <p style=""font-size:50px; font-weight:bold;""
                            >sad</p>
                            <div style=""width:240px; margin: auto;"">
                                <img src=""images/map15_PiYG_scaleDef_orientDef_000.png"" style= ""width:200px""alt=""img"">
                            </div>
                        </div>",0.275,"",0,"",NA,"","images/map15_PiYG_scaleDef_orientDef_000.png","sad",1,15,15,"PiYG","orientDef","scaleDef","000",NA,NA
"","","","","","html-slider-response",89,190895,"0.0-79.0","825xa3kzyp",2,NA,"<div style=""width:500px;"">
                            <p style=""font-size:50px; font-weight:bold;""
                            >sad</p>
                            <div style=""width:240px; margin: auto;"">
                                <img src=""images/map27_gist_earth_scaleDef_orientMir_180.png"" style= ""width:200px""alt=""img"">
                            </div>
                        </div>",0.2775,"",0,"",NA,"","images/map27_gist_earth_scaleDef_orientMir_180.png","sad",1,27,27,"gist","scaleDef","earth","orientMir",NA,NA
"","","","","","html-slider-response",90,191909,"0.0-80.0","825xa3kzyp",2,NA,"<div style=""width:500px;"">
                            <p style=""font-size:50px; font-weight:bold;""
                            >sad</p>
                            <div style=""width:240px; margin: auto;"">
                                <img src=""images/map26_Spectral_scaleDef_orientDef_000.png"" style= ""width:200px""alt=""img"">
                            </div>
                        </div>",0.2825,"",0,"",NA,"","images/map26_Spectral_scaleDef_orientDef_000.png","sad",1,26,26,"Spectral","orientDef","scaleDef","000",NA,NA
"","","","","","html-slider-response",91,192877,"0.0-81.0","825xa3kzyp",2,NA,"<div style=""width:500px;"">
                            <p style=""font-size:50px; font-weight:bold;""
                            >sad</p>
                            <div style=""width:240px; margin: auto;"">
                                <img src=""images/map23_RdBu_scaleRev_orientDef_270.png"" style= ""width:200px""alt=""img"">
                            </div>
                        </div>",0.275,"",0,"",NA,"","images/map23_RdBu_scaleRev_orientDef_270.png","sad",1,23,23,"RdBu","orientDef","scaleRev","270",NA,NA
"","","","","","html-slider-response",92,193810,"0.0-82.0","825xa3kzyp",2,NA,"<div style=""width:500px;"">
                            <p style=""font-size:50px; font-weight:bold;""
                            >sad</p>
                            <div style=""width:240px; margin: auto;"">
                                <img src=""images/map27_vanimo_scaleRev_orientMir_090.png"" style= ""width:200px""alt=""img"">
                            </div>
                        </div>",0.265,"",0,"",NA,"","images/map27_vanimo_scaleRev_orientMir_090.png","sad",1,27,27,"vanimo","orientMir","scaleRev","090",NA,NA
"","","","","","html-slider-response",93,194909,"0.0-83.0","825xa3kzyp",2,NA,"<div style=""width:500px;"">
                            <p style=""font-size:50px; font-weight:bold;""
                            >sad</p>
                            <div style=""width:240px; margin: auto;"">
                                <img src=""images/map15_PuOr_scaleDef_orientMir_180.png"" style= ""width:200px""alt=""img"">
                            </div>
                        </div>",0.285,"",0,"",NA,"","images/map15_PuOr_scaleDef_orientMir_180.png","sad",1,15,15,"PuOr","orientMir","scaleDef","180",NA,NA
"","","","","","html-slider-response",94,196442,"0.0-84.0","825xa3kzyp",2,NA,"<div style=""width:500px;"">
                            <p style=""font-size:50px; font-weight:bold;""
                            >sad</p>
                            <div style=""width:240px; margin: auto;"">
                                <img src=""images/map05_cividis_scaleDef_orientDef_180.png"" style= ""width:200px""alt=""img"">
                            </div>
                        </div>",0.6425,"",0,"",NA,"","images/map05_cividis_scaleDef_orientDef_180.png","sad",1,5,5,"cividis","orientDef","scaleDef","180",NA,NA
"","","","","","html-slider-response",95,197592,"0.0-85.0","825xa3kzyp",2,NA,"<div style=""width:500px;"">
                            <p style=""font-size:50px; font-weight:bold;""
                            >sad</p>
                            <div style=""width:240px; margin: auto;"">
                                <img src=""images/map07_Oranges_scaleRev_orientMir_090.png"" style= ""width:200px""alt=""img"">
                            </div>
                        </div>",0.315,"",0,"",NA,"","images/map07_Oranges_scaleRev_orientMir_090.png","sad",1,7,7,"Oranges","orientMir","scaleRev","090",NA,NA
"","","","","","html-slider-response",96,198976,"0.0-86.0","825xa3kzyp",2,NA,"<div style=""width:500px;"">
                            <p style=""font-size:50px; font-weight:bold;""
                            >sad</p>
                            <div style=""width:240px; margin: auto;"">
                                <img src=""images/map05_cividis_scaleRev_orientDef_270.png"" style= ""width:200px""alt=""img"">
                            </div>
                        </div>",0.725,"",0,"",NA,"","images/map05_cividis_scaleRev_orientDef_270.png","sad",1,5,5,"cividis","orientDef","scaleRev","270",NA,NA
"","","","","","html-slider-response",97,200410,"0.0-87.0","825xa3kzyp",2,NA,"<div style=""width:500px;"">
                            <p style=""font-size:50px; font-weight:bold;""
                            >sad</p>
                            <div style=""width:240px; margin: auto;"">
                                <img src=""images/map27_berlin_scaleDef_orientDef_000.png"" style= ""width:200px""alt=""img"">
                            </div>
                        </div>",0.79,"",0,"",NA,"","images/map27_berlin_scaleDef_orientDef_000.png","sad",1,27,27,"berlin","orientDef","scaleDef","000",NA,NA
"","","","","","html-slider-response",98,201892,"0.0-88.0","825xa3kzyp",2,NA,"<div style=""width:500px;"">
                            <p style=""font-size:50px; font-weight:bold;""
                            >sad</p>
                            <div style=""width:240px; margin: auto;"">
                                <img src=""images/map13_PuBuGn_scaleDef_orientDef_180.png"" style= ""width:200px""alt=""img"">
                            </div>
                        </div>",0.8775,"",0,"",NA,"","images/map13_PuBuGn_scaleDef_orientDef_180.png","sad",1,13,13,"PuBuGn","orientDef","scaleDef","180",NA,NA
"","","","","","html-slider-response",99,203211,"0.0-89.0","825xa3kzyp",2,NA,"<div style=""width:500px;"">
                            <p style=""font-size:50px; font-weight:bold;""
                            >sad</p>
                            <div style=""width:240px; margin: auto;"">
                                <img src=""images/map27_gist_earth_scaleRev_orientMir_270.png"" style= ""width:200px""alt=""img"">
                            </div>
                        </div>",0.77,"",0,"",NA,"","images/map27_gist_earth_scaleRev_orientMir_270.png","sad",1,27,27,"gist","scaleRev","earth","orientMir",NA,NA
"","","","","","html-slider-response",100,204462,"0.0-90.0","825xa3kzyp",2,NA,"<div style=""width:500px;"">
                            <p style=""font-size:50px; font-weight:bold;""
                            >sad</p>
                            <div style=""width:240px; margin: auto;"">
                                <img src=""images/map13_PuBuGn_scaleRev_orientDef_270.png"" style= ""width:200px""alt=""img"">
                            </div>
                        </div>",0.67,"",0,"",NA,"","images/map13_PuBuGn_scaleRev_orientDef_270.png","sad",1,13,13,"PuBuGn","orientDef","scaleRev","270",NA,NA
"","","","","","html-slider-response",101,205825,"0.0-91.0","825xa3kzyp",2,NA,"<div style=""width:500px;"">
                            <p style=""font-size:50px; font-weight:bold;""
                            >sad</p>
                            <div style=""width:240px; margin: auto;"">
                                <img src=""images/map10_YlOrRd_scaleRev_orientDef_270.png"" style= ""width:200px""alt=""img"">
                            </div>
                        </div>",0.385,"",0,"",NA,"","images/map10_YlOrRd_scaleRev_orientDef_270.png","sad",1,10,10,"YlOrRd","orientDef","scaleRev","270",NA,NA
"","","","","","html-slider-response",102,207076,"0.0-92.0","825xa3kzyp",2,NA,"<div style=""width:500px;"">
                            <p style=""font-size:50px; font-weight:bold;""
                            >sad</p>
                            <div style=""width:240px; margin: auto;"">
                                <img src=""images/map23_RdBu_scaleDef_orientDef_180.png"" style= ""width:200px""alt=""img"">
                            </div>
                        </div>",0.405,"",0,"",NA,"","images/map23_RdBu_scaleDef_orientDef_180.png","sad",1,23,23,"RdBu","orientDef","scaleDef","180",NA,NA
"","","","","","html-slider-response",103,208292,"0.0-93.0","825xa3kzyp",2,NA,"<div style=""width:500px;"">
                            <p style=""font-size:50px; font-weight:bold;""
                            >sad</p>
                            <div style=""width:240px; margin: auto;"">
                                <img src=""images/map10_YlOrBr_scaleRev_orientDef_090.png"" style= ""width:200px""alt=""img"">
                            </div>
                        </div>",0.4225,"",0,"",NA,"","images/map10_YlOrBr_scaleRev_orientDef_090.png","sad",1,10,10,"YlOrBr","orientDef","scaleRev","090",NA,NA
"","","","","","html-slider-response",104,210176,"0.0-94.0","825xa3kzyp",2,NA,"<div style=""width:500px;"">
                            <p style=""font-size:50px; font-weight:bold;""
                            >sad</p>
                            <div style=""width:240px; margin: auto;"">
                                <img src=""images/map12_RdPu_scaleDef_orientDef_000.png"" style= ""width:200px""alt=""img"">
                            </div>
                        </div>",0.075,"",0,"",NA,"","images/map12_RdPu_scaleDef_orientDef_000.png","sad",1,12,12,"RdPu","orientDef","scaleDef","000",NA,NA
"","","","","","html-button-response",105,211765,"0.0-95.0","825xa3kzyp",2,1086,"<p>Great Job! You've finished block 1.<br></br> You have 4 block(s) left to go.<br></br></p>",0.5,"",NA,"",NA,"","","",NA,NA,NA,"","","","",NA,NA
"","","","","","html-button-response",106,212632,"0.0-96.0","825xa3kzyp",2,865,"<p>In this block of trials, you will be asked to rate how much you associate each map with:</p > <p style = 'font-size:150%; font-weight: bold'>angry</p><br></br>",0.5,"",NA,"",NA,"","","",NA,NA,NA,"","","","",NA,NA
"","","","","","html-slider-response",107,213543,"0.0-97.0","825xa3kzyp",2,NA,"<div style=""width:500px;"">
                            <p style=""font-size:50px; font-weight:bold;""
                            >angry</p>
                            <div style=""width:240px; margin: auto;"">
                                <img src=""images/map15_PiYG_scaleRev_orientDef_090.png"" style= ""width:200px""alt=""img"">
                            </div>
                        </div>",0.265,"",0,"",NA,"","images/map15_PiYG_scaleRev_orientDef_090.png","angry",1,15,15,"PiYG","orientDef","scaleRev","090",NA,NA
"","","","","","html-slider-response",108,214878,"0.0-98.0","825xa3kzyp",2,NA,"<div style=""width:500px;"">
                            <p style=""font-size:50px; font-weight:bold;""
                            >angry</p>
                            <div style=""width:240px; margin: auto;"">
                                <img src=""images/map07_Greens_scaleRev_orientDef_270.png"" style= ""width:200px""alt=""img"">
                            </div>
                        </div>",0.19,"",0,"",NA,"","images/map07_Greens_scaleRev_orientDef_270.png","angry",1,7,7,"Greens","orientDef","scaleRev","270",NA,NA
"","","","","","html-slider-response",109,216461,"0.0-99.0","825xa3kzyp",2,NA,"<div style=""width:500px;"">
                            <p style=""font-size:50px; font-weight:bold;""
                            >angry</p>
                            <div style=""width:240px; margin: auto;"">
                                <img src=""images/map02_turbo_scaleRev_orientDef_090.png"" style= ""width:200px""alt=""img"">
                            </div>
                        </div>",0.645,"",0,"",NA,"","images/map02_turbo_scaleRev_orientDef_090.png","angry",1,2,2,"turbo","orientDef","scaleRev","090",NA,NA
"","","","","","html-slider-response",110,217693,"0.0-100.0","825xa3kzyp",2,NA,"<div style=""width:500px;"">
                            <p style=""font-size:50px; font-weight:bold;""
                            >angry</p>
                            <div style=""width:240px; margin: auto;"">
                                <img src=""images/map27_gist_earth_scaleDef_orientMir_180.png"" style= ""width:200px""alt=""img"">
                            </div>
                        </div>",0.295,"",0,"",NA,"","images/map27_gist_earth_scaleDef_orientMir_180.png","angry",1,27,27,"gist","scaleDef","earth","orientMir",NA,NA
"","","","","","html-slider-response",111,219342,"0.0-101.0","825xa3kzyp",2,NA,"<div style=""width:500px;"">
                            <p style=""font-size:50px; font-weight:bold;""
                            >angry</p>
                            <div style=""width:240px; margin: auto;"">
                                <img src=""images/map27_managua_scaleRev_orientDef_270.png"" style= ""width:200px""alt=""img"">
                            </div>
                        </div>",0.6775,"",0,"",NA,"","images/map27_managua_scaleRev_orientDef_270.png","angry",1,27,27,"managua","orientDef","scaleRev","270",NA,NA
"","","","","","html-slider-response",112,220826,"0.0-102.0","825xa3kzyp",2,NA,"<div style=""width:500px;"">
                            <p style=""font-size:50px; font-weight:bold;""
                            >angry</p>
                            <div style=""width:240px; margin: auto;"">
                                <img src=""images/map27_vanimo_scaleRev_orientMir_090.png"" style= ""width:200px""alt=""img"">
                            </div>
                        </div>",0.805,"",0,"",NA,"","images/map27_vanimo_scaleRev_orientMir_090.png","angry",1,27,27,"vanimo","orientMir","scaleRev","090",NA,NA
"","","","","","html-slider-response",113,222295,"0.0-103.0","825xa3kzyp",2,NA,"<div style=""width:500px;"">
                            <p style=""font-size:50px; font-weight:bold;""
                            >angry</p>
                            <div style=""width:240px; margin: auto;"">
                                <img src=""images/map23_RdBu_scaleDef_orientDef_180.png"" style= ""width:200px""alt=""img"">
                            </div>
                        </div>",0.35,"",0,"",NA,"","images/map23_RdBu_scaleDef_orientDef_180.png","angry",1,23,23,"RdBu","orientDef","scaleDef","180",NA,NA
"","","","","","html-slider-response",114,223842,"0.0-104.0","825xa3kzyp",2,NA,"<div style=""width:500px;"">
                            <p style=""font-size:50px; font-weight:bold;""
                            >angry</p>
                            <div style=""width:240px; margin: auto;"">
                                <img src=""images/map15_BrBG_scaleDef_orientMir_000.png"" style= ""width:200px""alt=""img"">
                            </div>
                        </div>",0.3925,"",0,"",NA,"","images/map15_BrBG_scaleDef_orientMir_000.png","angry",1,15,15,"BrBG","orientMir","scaleDef","000",NA,NA
"","","","","","html-slider-response",115,225225,"0.0-105.0","825xa3kzyp",2,NA,"<div style=""width:500px;"">
                            <p style=""font-size:50px; font-weight:bold;""
                            >angry</p>
                            <div style=""width:240px; margin: auto;"">
                                <img src=""images/map02_viridis_scaleRev_orientDef_270.png"" style= ""width:200px""alt=""img"">
                            </div>
                        </div>",0.275,"",0,"",NA,"","images/map02_viridis_scaleRev_orientDef_270.png","angry",1,2,2,"viridis","orientDef","scaleRev","270",NA,NA
"","","","","","html-slider-response",116,226510,"0.0-106.0","825xa3kzyp",2,NA,"<div style=""width:500px;"">
                            <p style=""font-size:50px; font-weight:bold;""
                            >angry</p>
                            <div style=""width:240px; margin: auto;"">
                                <img src=""images/map12_RdPu_scaleDef_orientDef_000.png"" style= ""width:200px""alt=""img"">
                            </div>
                        </div>",0.17,"",0,"",NA,"","images/map12_RdPu_scaleDef_orientDef_000.png","angry",1,12,12,"RdPu","orientDef","scaleDef","000",NA,NA
"","","","","","html-slider-response",117,228494,"0.0-107.0","825xa3kzyp",2,NA,"<div style=""width:500px;"">
                            <p style=""font-size:50px; font-weight:bold;""
                            >angry</p>
                            <div style=""width:240px; margin: auto;"">
                                <img src=""images/map12_GnBu_scaleDef_orientMir_000.png"" style= ""width:200px""alt=""img"">
                            </div>
                        </div>",0.3725,"",0,"",NA,"","images/map12_GnBu_scaleDef_orientMir_000.png","angry",1,12,12,"GnBu","orientMir","scaleDef","000",NA,NA
"","","","","","html-slider-response",118,230194,"0.0-108.0","825xa3kzyp",2,NA,"<div style=""width:500px;"">
                            <p style=""font-size:50px; font-weight:bold;""
                            >angry</p>
                            <div style=""width:240px; margin: auto;"">
                                <img src=""images/map23_RdYlBu_scaleRev_orientMir_090.png"" style= ""width:200px""alt=""img"">
                            </div>
                        </div>",0.75,"",0,"",NA,"","images/map23_RdYlBu_scaleRev_orientMir_090.png","angry",1,23,23,"RdYlBu","orientMir","scaleRev","090",NA,NA
"","","","","","html-slider-response",119,231892,"0.0-109.0","825xa3kzyp",2,NA,"<div style=""width:500px;"">
                            <p style=""font-size:50px; font-weight:bold;""
                            >angry</p>
                            <div style=""width:240px; margin: auto;"">
                                <img src=""images/map10_YlOrRd_scaleRev_orientDef_270.png"" style= ""width:200px""alt=""img"">
                            </div>
                        </div>",0.965,"",0,"",NA,"","images/map10_YlOrRd_scaleRev_orientDef_270.png","angry",1,10,10,"YlOrRd","orientDef","scaleRev","270",NA,NA
"","","","","","html-slider-response",120,233424,"0.0-110.0","825xa3kzyp",2,NA,"<div style=""width:500px;"">
                            <p style=""font-size:50px; font-weight:bold;""
                            >angry</p>
                            <div style=""width:240px; margin: auto;"">
                                <img src=""images/map26_bwr_scaleDef_orientMir_000.png"" style= ""width:200px""alt=""img"">
                            </div>
                        </div>",0.2025,"",0,"",NA,"","images/map26_bwr_scaleDef_orientMir_000.png","angry",1,26,26,"bwr","orientMir","scaleDef","000",NA,NA
"","","","","","html-slider-response",121,234658,"0.0-111.0","825xa3kzyp",2,NA,"<div style=""width:500px;"">
                            <p style=""font-size:50px; font-weight:bold;""
                            >angry</p>
                            <div style=""width:240px; margin: auto;"">
                                <img src=""images/map13_PuBuGn_scaleRev_orientDef_270.png"" style= ""width:200px""alt=""img"">
                            </div>
                        </div>",0.2025,"",0,"",NA,"","images/map13_PuBuGn_scaleRev_orientDef_270.png","angry",1,13,13,"PuBuGn","orientDef","scaleRev","270",NA,NA
"","","","","","html-slider-response",122,236328,"0.0-112.0","825xa3kzyp",2,NA,"<div style=""width:500px;"">
                            <p style=""font-size:50px; font-weight:bold;""
                            >angry</p>
                            <div style=""width:240px; margin: auto;"">
                                <img src=""images/map02_inferno_scaleDef_orientMir_180.png"" style= ""width:200px""alt=""img"">
                            </div>
                        </div>",1,"",0,"",NA,"","images/map02_inferno_scaleDef_orientMir_180.png","angry",1,2,2,"inferno","orientMir","scaleDef","180",NA,NA
"","","","","","html-slider-response",123,238141,"0.0-113.0","825xa3kzyp",2,NA,"<div style=""width:500px;"">
                            <p style=""font-size:50px; font-weight:bold;""
                            >angry</p>
                            <div style=""width:240px; margin: auto;"">
                                <img src=""images/map27_managua_scaleDef_orientDef_180.png"" style= ""width:200px""alt=""img"">
                            </div>
                        </div>",0.2575,"",0,"",NA,"","images/map27_managua_scaleDef_orientDef_180.png","angry",1,27,27,"managua","orientDef","scaleDef","180",NA,NA
"","","","","","html-slider-response",124,239708,"0.0-114.0","825xa3kzyp",2,NA,"<div style=""width:500px;"">
                            <p style=""font-size:50px; font-weight:bold;""
                            >angry</p>
                            <div style=""width:240px; margin: auto;"">
                                <img src=""images/map15_PiYG_scaleDef_orientDef_000.png"" style= ""width:200px""alt=""img"">
                            </div>
                        </div>",0.2525,"",0,"",NA,"","images/map15_PiYG_scaleDef_orientDef_000.png","angry",1,15,15,"PiYG","orientDef","scaleDef","000",NA,NA
"","","","","","html-slider-response",125,241426,"0.0-115.0","825xa3kzyp",2,NA,"<div style=""width:500px;"">
                            <p style=""font-size:50px; font-weight:bold;""
                            >angry</p>
                            <div style=""width:240px; margin: auto;"">
                                <img src=""images/map27_berlin_scaleDef_orientDef_000.png"" style= ""width:200px""alt=""img"">
                            </div>
                        </div>",0.8625,"",0,"",NA,"","images/map27_berlin_scaleDef_orientDef_000.png","angry",1,27,27,"berlin","orientDef","scaleDef","000",NA,NA
"","","","","","html-slider-response",126,242858,"0.0-116.0","825xa3kzyp",2,NA,"<div style=""width:500px;"">
                            <p style=""font-size:50px; font-weight:bold;""
                            >angry</p>
                            <div style=""width:240px; margin: auto;"">
                                <img src=""images/map26_Spectral_scaleRev_orientDef_090.png"" style= ""width:200px""alt=""img"">
                            </div>
                        </div>",0.145,"",0,"",NA,"","images/map26_Spectral_scaleRev_orientDef_090.png","angry",1,26,26,"Spectral","orientDef","scaleRev","090",NA,NA
"","","","","","html-slider-response",127,244091,"0.0-117.0","825xa3kzyp",2,NA,"<div style=""width:500px;"">
                            <p style=""font-size:50px; font-weight:bold;""
                            >angry</p>
                            <div style=""width:240px; margin: auto;"">
                                <img src=""images/map12_PuBu_scaleRev_orientMir_270.png"" style= ""width:200px""alt=""img"">
                            </div>
                        </div>",0.1675,"",0,"",NA,"","images/map12_PuBu_scaleRev_orientMir_270.png","angry",1,12,12,"PuBu","orientMir","scaleRev","270",NA,NA
"","","","","","html-slider-response",128,245076,"0.0-118.0","825xa3kzyp",2,NA,"<div style=""width:500px;"">
                            <p style=""font-size:50px; font-weight:bold;""
                            >angry</p>
                            <div style=""width:240px; margin: auto;"">
                                <img src=""images/map12_PuBu_scaleDef_orientMir_180.png"" style= ""width:200px""alt=""img"">
                            </div>
                        </div>",0.2525,"",0,"",NA,"","images/map12_PuBu_scaleDef_orientMir_180.png","angry",1,12,12,"PuBu","orientMir","scaleDef","180",NA,NA
"","","","","","html-slider-response",129,246093,"0.0-119.0","825xa3kzyp",2,NA,"<div style=""width:500px;"">
                            <p style=""font-size:50px; font-weight:bold;""
                            >angry</p>
                            <div style=""width:240px; margin: auto;"">
                                <img src=""images/map26_seismic_scaleRev_orientMir_270.png"" style= ""width:200px""alt=""img"">
                            </div>
                        </div>",0.31,"",0,"",NA,"","images/map26_seismic_scaleRev_orientMir_270.png","angry",1,26,26,"seismic","orientMir","scaleRev","270",NA,NA
"","","","","","html-slider-response",130,247093,"0.0-120.0","825xa3kzyp",2,NA,"<div style=""width:500px;"">
                            <p style=""font-size:50px; font-weight:bold;""
                            >angry</p>
                            <div style=""width:240px; margin: auto;"">
                                <img src=""images/map23_RdGy_scaleDef_orientDef_000.png"" style= ""width:200px""alt=""img"">
                            </div>
                        </div>",0.225,"",0,"",NA,"","images/map23_RdGy_scaleDef_orientDef_000.png","angry",1,23,23,"RdGy","orientDef","scaleDef","000",NA,NA
"","","","","","html-slider-response",131,248357,"0.0-121.0","825xa3kzyp",2,NA,"<div style=""width:500px;"">
                            <p style=""font-size:50px; font-weight:bold;""
                            >angry</p>
                            <div style=""width:240px; margin: auto;"">
                                <img src=""images/map12_BuPu_scaleDef_orientDef_180.png"" style= ""width:200px""alt=""img"">
                            </div>
                        </div>",0.2475,"",0,"",NA,"","images/map12_BuPu_scaleDef_orientDef_180.png","angry",1,12,12,"BuPu","orientDef","scaleDef","180",NA,NA
"","","","","","html-slider-response",132,249809,"0.0-122.0","825xa3kzyp",2,NA,"<div style=""width:500px;"">
                            <p style=""font-size:50px; font-weight:bold;""
                            >angry</p>
                            <div style=""width:240px; margin: auto;"">
                                <img src=""images/map10_OrRd_scaleRev_orientMir_090.png"" style= ""width:200px""alt=""img"">
                            </div>
                        </div>",0.735,"",0,"",NA,"","images/map10_OrRd_scaleRev_orientMir_090.png","angry",1,10,10,"OrRd","orientMir","scaleRev","090",NA,NA
"","","","","","html-slider-response",133,251645,"0.0-123.0","825xa3kzyp",2,NA,"<div style=""width:500px;"">
                            <p style=""font-size:50px; font-weight:bold;""
                            >angry</p>
                            <div style=""width:240px; margin: auto;"">
                                <img src=""images/map05_Greys_scaleDef_orientMir_000.png"" style= ""width:200px""alt=""img"">
                            </div>
                        </div>",0.3275,"",0,"",NA,"","images/map05_Greys_scaleDef_orientMir_000.png","angry",1,5,5,"Greys","orientMir","scaleDef","000",NA,NA
"","","","","","html-slider-response",134,252842,"0.0-124.0","825xa3kzyp",2,NA,"<div style=""width:500px;"">
                            <p style=""font-size:50px; font-weight:bold;""
                            >angry</p>
                            <div style=""width:240px; margin: auto;"">
                                <img src=""images/map13_YlGnBu_scaleDef_orientDef_000.png"" style= ""width:200px""alt=""img"">
                            </div>
                        </div>",0.305,"",0,"",NA,"","images/map13_YlGnBu_scaleDef_orientDef_000.png","angry",1,13,13,"YlGnBu","orientDef","scaleDef","000",NA,NA
"","","","","","html-slider-response",135,254042,"0.0-125.0","825xa3kzyp",2,NA,"<div style=""width:500px;"">
                            <p style=""font-size:50px; font-weight:bold;""
                            >angry</p>
                            <div style=""width:240px; margin: auto;"">
                                <img src=""images/map13_YlGnBu_scaleRev_orientDef_090.png"" style= ""width:200px""alt=""img"">
                            </div>
                        </div>",0.255,"",0,"",NA,"","images/map13_YlGnBu_scaleRev_orientDef_090.png","angry",1,13,13,"YlGnBu","orientDef","scaleRev","090",NA,NA
"","","","","","html-slider-response",136,255242,"0.0-126.0","825xa3kzyp",2,NA,"<div style=""width:500px;"">
                            <p style=""font-size:50px; font-weight:bold;""
                            >angry</p>
                            <div style=""width:240px; margin: auto;"">
                                <img src=""images/map26_seismic_scaleDef_orientMir_180.png"" style= ""width:200px""alt=""img"">
                            </div>
                        </div>",0.215,"",0,"",NA,"","images/map26_seismic_scaleDef_orientMir_180.png","angry",1,26,26,"seismic","orientMir","scaleDef","180",NA,NA
"","","","","","html-slider-response",137,256459,"0.0-127.0","825xa3kzyp",2,NA,"<div style=""width:500px;"">
                            <p style=""font-size:50px; font-weight:bold;""
                            >angry</p>
                            <div style=""width:240px; margin: auto;"">
                                <img src=""images/map23_RdYlGn_scaleRev_orientMir_270.png"" style= ""width:200px""alt=""img"">
                            </div>
                        </div>",0.2325,"",0,"",NA,"","images/map23_RdYlGn_scaleRev_orientMir_270.png","angry",1,23,23,"RdYlGn","orientMir","scaleRev","270",NA,NA
"","","","","","html-slider-response",138,257692,"0.0-128.0","825xa3kzyp",2,NA,"<div style=""width:500px;"">
                            <p style=""font-size:50px; font-weight:bold;""
                            >angry</p>
                            <div style=""width:240px; margin: auto;"">
                                <img src=""images/map05_cividis_scaleDef_orientDef_180.png"" style= ""width:200px""alt=""img"">
                            </div>
                        </div>",0.28,"",0,"",NA,"","images/map05_cividis_scaleDef_orientDef_180.png","angry",1,5,5,"cividis","orientDef","scaleDef","180",NA,NA
"","","","","","html-slider-response",139,259359,"0.0-129.0","825xa3kzyp",2,NA,"<div style=""width:500px;"">
                            <p style=""font-size:50px; font-weight:bold;""
                            >angry</p>
                            <div style=""width:240px; margin: auto;"">
                                <img src=""images/map05_Greys_scaleRev_orientMir_090.png"" style= ""width:200px""alt=""img"">
                            </div>
                        </div>",0.2,"",0,"",NA,"","images/map05_Greys_scaleRev_orientMir_090.png","angry",1,5,5,"Greys","orientMir","scaleRev","090",NA,NA
"","","","","","html-slider-response",140,260575,"0.0-130.0","825xa3kzyp",2,NA,"<div style=""width:500px;"">
                            <p style=""font-size:50px; font-weight:bold;""
                            >angry</p>
                            <div style=""width:240px; margin: auto;"">
                                <img src=""images/map13_YlGn_scaleDef_orientMir_180.png"" style= ""width:200px""alt=""img"">
                            </div>
                        </div>",0.215,"",0,"",NA,"","images/map13_YlGn_scaleDef_orientMir_180.png","angry",1,13,13,"YlGn","orientMir","scaleDef","180",NA,NA
"","","","","","html-slider-response",141,261842,"0.0-131.0","825xa3kzyp",2,NA,"<div style=""width:500px;"">
                            <p style=""font-size:50px; font-weight:bold;""
                            >angry</p>
                            <div style=""width:240px; margin: auto;"">
                                <img src=""images/map13_YlGn_scaleRev_orientMir_270.png"" style= ""width:200px""alt=""img"">
                            </div>
                        </div>",0.2175,"",0,"",NA,"","images/map13_YlGn_scaleRev_orientMir_270.png","angry",1,13,13,"YlGn","orientMir","scaleRev","270",NA,NA
"","","","","","html-slider-response",142,263125,"0.0-132.0","825xa3kzyp",2,NA,"<div style=""width:500px;"">
                            <p style=""font-size:50px; font-weight:bold;""
                            >angry</p>
                            <div style=""width:240px; margin: auto;"">
                                <img src=""images/map15_PRGn_scaleRev_orientDef_270.png"" style= ""width:200px""alt=""img"">
                            </div>
                        </div>",0.245,"",0,"",NA,"","images/map15_PRGn_scaleRev_orientDef_270.png","angry",1,15,15,"PRGn","orientDef","scaleRev","270",NA,NA
"","","","","","html-slider-response",143,265275,"0.0-133.0","825xa3kzyp",2,NA,"<div style=""width:500px;"">
                            <p style=""font-size:50px; font-weight:bold;""
                            >angry</p>
                            <div style=""width:240px; margin: auto;"">
                                <img src=""images/map10_YlOrBr_scaleRev_orientDef_090.png"" style= ""width:200px""alt=""img"">
                            </div>
                        </div>",0.27,"",0,"",NA,"","images/map10_YlOrBr_scaleRev_orientDef_090.png","angry",1,10,10,"YlOrBr","orientDef","scaleRev","090",NA,NA
"","","","","","html-slider-response",144,266542,"0.0-134.0","825xa3kzyp",2,NA,"<div style=""width:500px;"">
                            <p style=""font-size:50px; font-weight:bold;""
                            >angry</p>
                            <div style=""width:240px; margin: auto;"">
                                <img src=""images/map02_plasma_scaleDef_orientMir_000.png"" style= ""width:200px""alt=""img"">
                            </div>
                        </div>",0.255,"",0,"",NA,"","images/map02_plasma_scaleDef_orientMir_000.png","angry",1,2,2,"plasma","orientMir","scaleDef","000",NA,NA
"","","","","","html-slider-response",145,267793,"0.0-135.0","825xa3kzyp",2,NA,"<div style=""width:500px;"">
                            <p style=""font-size:50px; font-weight:bold;""
                            >angry</p>
                            <div style=""width:240px; margin: auto;"">
                                <img src=""images/map23_RdYlBu_scaleDef_orientMir_000.png"" style= ""width:200px""alt=""img"">
                            </div>
                        </div>",0.215,"",0,"",NA,"","images/map23_RdYlBu_scaleDef_orientMir_000.png","angry",1,23,23,"RdYlBu","orientMir","scaleDef","000",NA,NA
"","","","","","html-slider-response",146,269076,"0.0-136.0","825xa3kzyp",2,NA,"<div style=""width:500px;"">
                            <p style=""font-size:50px; font-weight:bold;""
                            >angry</p>
                            <div style=""width:240px; margin: auto;"">
                                <img src=""images/map05_Purples_scaleRev_orientMir_270.png"" style= ""width:200px""alt=""img"">
                            </div>
                        </div>",0.225,"",0,"",NA,"","images/map05_Purples_scaleRev_orientMir_270.png","angry",1,5,5,"Purples","orientMir","scaleRev","270",NA,NA
"","","","","","html-button-response",147,270397,"0.0-137.0","825xa3kzyp",2,819,"<p>You are doing great!<br></br> You are halway done with the current block. When you are ready to continue, click the 'Continue' button.</p>",0.5,"",NA,"",NA,"","","",NA,NA,NA,"","","","",NA,NA
"","","","","","html-slider-response",148,271393,"0.0-138.0","825xa3kzyp",2,NA,"<div style=""width:500px;"">
                            <p style=""font-size:50px; font-weight:bold;""
                            >angry</p>
                            <div style=""width:240px; margin: auto;"">
                                <img src=""images/map05_magma_scaleDef_orientDef_000.png"" style= ""width:200px""alt=""img"">
                            </div>
                        </div>",0.215,"",0,"",NA,"","images/map05_magma_scaleDef_orientDef_000.png","angry",1,5,5,"magma","orientDef","scaleDef","000",NA,NA
"","","","","","html-slider-response",149,272692,"0.0-139.0","825xa3kzyp",2,NA,"<div style=""width:500px;"">
                            <p style=""font-size:50px; font-weight:bold;""
                            >angry</p>
                            <div style=""width:240px; margin: auto;"">
                                <img src=""images/map10_YlOrBr_scaleDef_orientDef_000.png"" style= ""width:200px""alt=""img"">
                            </div>
                        </div>",0.8725,"",0,"",NA,"","images/map10_YlOrBr_scaleDef_orientDef_000.png","angry",1,10,10,"YlOrBr","orientDef","scaleDef","000",NA,NA
"","","","","","html-slider-response",150,274227,"0.0-140.0","825xa3kzyp",2,NA,"<div style=""width:500px;"">
                            <p style=""font-size:50px; font-weight:bold;""
                            >angry</p>
                            <div style=""width:240px; margin: auto;"">
                                <img src=""images/map07_Greens_scaleDef_orientDef_180.png"" style= ""width:200px""alt=""img"">
                            </div>
                        </div>",0.2975,"",0,"",NA,"","images/map07_Greens_scaleDef_orientDef_180.png","angry",1,7,7,"Greens","orientDef","scaleDef","180",NA,NA
"","","","","","html-slider-response",151,275343,"0.0-141.0","825xa3kzyp",2,NA,"<div style=""width:500px;"">
                            <p style=""font-size:50px; font-weight:bold;""
                            >angry</p>
                            <div style=""width:240px; margin: auto;"">
                                <img src=""images/map13_BuGn_scaleDef_orientMir_000.png"" style= ""width:200px""alt=""img"">
                            </div>
                        </div>",0.3275,"",0,"",NA,"","images/map13_BuGn_scaleDef_orientMir_000.png","angry",1,13,13,"BuGn","orientMir","scaleDef","000",NA,NA
"","","","","","html-slider-response",152,276758,"0.0-142.0","825xa3kzyp",2,NA,"<div style=""width:500px;"">
                            <p style=""font-size:50px; font-weight:bold;""
                            >angry</p>
                            <div style=""width:240px; margin: auto;"">
                                <img src=""images/map23_RdGy_scaleRev_orientDef_090.png"" style= ""width:200px""alt=""img"">
                            </div>
                        </div>",0.65,"",0,"",NA,"","images/map23_RdGy_scaleRev_orientDef_090.png","angry",1,23,23,"RdGy","orientDef","scaleRev","090",NA,NA
"","","","","","html-slider-response",153,277892,"0.0-143.0","825xa3kzyp",2,NA,"<div style=""width:500px;"">
                            <p style=""font-size:50px; font-weight:bold;""
                            >angry</p>
                            <div style=""width:240px; margin: auto;"">
                                <img src=""images/map02_plasma_scaleRev_orientMir_090.png"" style= ""width:200px""alt=""img"">
                            </div>
                        </div>",0.3975,"",0,"",NA,"","images/map02_plasma_scaleRev_orientMir_090.png","angry",1,2,2,"plasma","orientMir","scaleRev","090",NA,NA
"","","","","","html-slider-response",154,279243,"0.0-144.0","825xa3kzyp",2,NA,"<div style=""width:500px;"">
                            <p style=""font-size:50px; font-weight:bold;""
                            >angry</p>
                            <div style=""width:240px; margin: auto;"">
                                <img src=""images/map15_PRGn_scaleDef_orientDef_180.png"" style= ""width:200px""alt=""img"">
                            </div>
                        </div>",0.315,"",0,"",NA,"","images/map15_PRGn_scaleDef_orientDef_180.png","angry",1,15,15,"PRGn","orientDef","scaleDef","180",NA,NA
"","","","","","html-slider-response",155,280592,"0.0-145.0","825xa3kzyp",2,NA,"<div style=""width:500px;"">
                            <p style=""font-size:50px; font-weight:bold;""
                            >angry</p>
                            <div style=""width:240px; margin: auto;"">
                                <img src=""images/map26_bwr_scaleRev_orientMir_090.png"" style= ""width:200px""alt=""img"">
                            </div>
                        </div>",0.7925,"",0,"",NA,"","images/map26_bwr_scaleRev_orientMir_090.png","angry",1,26,26,"bwr","orientMir","scaleRev","090",NA,NA
"","","","","","html-slider-response",156,281958,"0.0-146.0","825xa3kzyp",2,NA,"<div style=""width:500px;"">
                            <p style=""font-size:50px; font-weight:bold;""
                            >angry</p>
                            <div style=""width:240px; margin: auto;"">
                                <img src=""images/map26_Spectral_scaleDef_orientDef_000.png"" style= ""width:200px""alt=""img"">
                            </div>
                        </div>",0.8525,"",0,"",NA,"","images/map26_Spectral_scaleDef_orientDef_000.png","angry",1,26,26,"Spectral","orientDef","scaleDef","000",NA,NA
"","","","","","html-slider-response",157,283158,"0.0-147.0","825xa3kzyp",2,NA,"<div style=""width:500px;"">
                            <p style=""font-size:50px; font-weight:bold;""
                            >angry</p>
                            <div style=""width:240px; margin: auto;"">
                                <img src=""images/map26_coolwarm_scaleDef_orientDef_180.png"" style= ""width:200px""alt=""img"">
                            </div>
                        </div>",0.7475,"",0,"",NA,"","images/map26_coolwarm_scaleDef_orientDef_180.png","angry",1,26,26,"coolwarm","orientDef","scaleDef","180",NA,NA
"","","","","","html-slider-response",158,284178,"0.0-148.0","825xa3kzyp",2,NA,"<div style=""width:500px;"">
                            <p style=""font-size:50px; font-weight:bold;""
                            >angry</p>
                            <div style=""width:240px; margin: auto;"">
                                <img src=""images/map15_PuOr_scaleDef_orientMir_180.png"" style= ""width:200px""alt=""img"">
                            </div>
                        </div>",0.39,"",0,"",NA,"","images/map15_PuOr_scaleDef_orientMir_180.png","angry",1,15,15,"PuOr","orientMir","scaleDef","180",NA,NA
"","","","","","html-slider-response",159,285309,"0.0-149.0","825xa3kzyp",2,NA,"<div style=""width:500px;"">
                            <p style=""font-size:50px; font-weight:bold;""
                            >angry</p>
                            <div style=""width:240px; margin: auto;"">
                                <img src=""images/map05_Purples_scaleDef_orientMir_180.png"" style= ""width:200px""alt=""img"">
                            </div>
                        </div>",0.375,"",0,"",NA,"","images/map05_Purples_scaleDef_orientMir_180.png","angry",1,5,5,"Purples","orientMir","scaleDef","180",NA,NA
"","","","","","html-slider-response",160,286708,"0.0-150.0","825xa3kzyp",2,NA,"<div style=""width:500px;"">
                            <p style=""font-size:50px; font-weight:bold;""
                            >angry</p>
                            <div style=""width:240px; margin: auto;"">
                                <img src=""images/map07_Oranges_scaleRev_orientMir_090.png"" style= ""width:200px""alt=""img"">
                            </div>
                        </div>",0.66,"",0,"",NA,"","images/map07_Oranges_scaleRev_orientMir_090.png","angry",1,7,7,"Oranges","orientMir","scaleRev","090",NA,NA
"","","","","","html-slider-response",161,288159,"0.0-151.0","825xa3kzyp",2,NA,"<div style=""width:500px;"">
                            <p style=""font-size:50px; font-weight:bold;""
                            >angry</p>
                            <div style=""width:240px; margin: auto;"">
                                <img src=""images/map23_RdBu_scaleRev_orientDef_270.png"" style= ""width:200px""alt=""img"">
                            </div>
                        </div>",0.665,"",0,"",NA,"","images/map23_RdBu_scaleRev_orientDef_270.png","angry",1,23,23,"RdBu","orientDef","scaleRev","270",NA,NA
"","","","","","html-slider-response",162,289391,"0.0-152.0","825xa3kzyp",2,NA,"<div style=""width:500px;"">
                            <p style=""font-size:50px; font-weight:bold;""
                            >angry</p>
                            <div style=""width:240px; margin: auto;"">
                                <img src=""images/map10_PuRd_scaleDef_orientMir_180.png"" style= ""width:200px""alt=""img"">
                            </div>
                        </div>",0.28,"",0,"",NA,"","images/map10_PuRd_scaleDef_orientMir_180.png","angry",1,10,10,"PuRd","orientMir","scaleDef","180",NA,NA
"","","","","","html-slider-response",163,290575,"0.0-153.0","825xa3kzyp",2,NA,"<div style=""width:500px;"">
                            <p style=""font-size:50px; font-weight:bold;""
                            >angry</p>
                            <div style=""width:240px; margin: auto;"">
                                <img src=""images/map07_Blues_scaleRev_orientDef_090.png"" style= ""width:200px""alt=""img"">
                            </div>
                        </div>",0.135,"",0,"",NA,"","images/map07_Blues_scaleRev_orientDef_090.png","angry",1,7,7,"Blues","orientDef","scaleRev","090",NA,NA
"","","","","","html-slider-response",164,291610,"0.0-154.0","825xa3kzyp",2,NA,"<div style=""width:500px;"">
                            <p style=""font-size:50px; font-weight:bold;""
                            >angry</p>
                            <div style=""width:240px; margin: auto;"">
                                <img src=""images/map12_GnBu_scaleRev_orientMir_090.png"" style= ""width:200px""alt=""img"">
                            </div>
                        </div>",0.1025,"",0,"",NA,"","images/map12_GnBu_scaleRev_orientMir_090.png","angry",1,12,12,"GnBu","orientMir","scaleRev","090",NA,NA
"","","","","","html-slider-response",165,293592,"0.0-155.0","825xa3kzyp",2,NA,"<div style=""width:500px;"">
                            <p style=""font-size:50px; font-weight:bold;""
                            >angry</p>
                            <div style=""width:240px; margin: auto;"">
                                <img src=""images/map27_berlin_scaleRev_orientDef_090.png"" style= ""width:200px""alt=""img"">
                            </div>
                        </div>",0.9825,"",0,"",NA,"","images/map27_berlin_scaleRev_orientDef_090.png","angry",1,27,27,"berlin","orientDef","scaleRev","090",NA,NA
"","","","","","html-slider-response",166,294708,"0.0-156.0","825xa3kzyp",2,NA,"<div style=""width:500px;"">
                            <p style=""font-size:50px; font-weight:bold;""
                            >angry</p>
