"success","timeout","failed_images","failed_audio","failed_video","trial_type","trial_index","time_elapsed","internal_node_id","subject_id","condition_num","rt","stimulus","response","question_order","slider_start","practiceTrial","practiceTrialNum","correct","image_path","concept","repetition","map_id","map_num","scale_name","orientation_code","mapping_code","rotation_code","ishihara_plate","correct_response"
"true","false","[]","[]","[]","preload",0,289,"0.0-0.0","98e74q83ac",15,NA,"",NA,"",NA,"",NA,"","","",NA,NA,NA,"","","","",NA,NA
"","","","","","html-button-response",1,1790,"0.0-1.0","98e74q83ac",15,1500,"Welcome to our experiment!<p>At the bottom of this screen, you will see a button that says ""Begin Experiment"".<br>Please only click that button when you are ready to complete the 30 minute experiment in one sitting.</p><p> Once you click that button, it will not be possible to restart the experiment.",0.5,"",NA,"",NA,"","","",NA,NA,NA,"","","","",NA,NA
"true","","","","","fullscreen",2,4350,"0.0-2.0","98e74q83ac",15,1542,"",NA,"",NA,"",NA,"","","",NA,NA,NA,"","","","",NA,NA
"","","","","","survey-multi-select",3,30532,"0.0-3.0","98e74q83ac",15,26176,"",NA,"[0]",NA,"",NA,"","","",NA,NA,NA,"","","","",NA,NA
"","","","","","html-button-response",4,31892,"0.0-4.0","98e74q83ac",15,1358,"Welcome! <p> This experiment involves two parts: demographic information, followed by the experimental task.<p> It will take about 30 minutes to complete both parts.",0.5,"",NA,"",NA,"","","",NA,NA,NA,"","","","",NA,NA
"","","","","","survey-text",5,43245,"0.0-5.0","98e74q83ac",15,11326,"",NA,"",NA,"",NA,"","","",NA,NA,NA,"","","","",NA,NA
"","","","","","html-slider-response",6,89105,"0.0-6.0","98e74q83ac",15,45853,"<div style='text-align:left; font-size:20px; line-height:25px; width: 1000px;'>
                                During this experiment you will be asked to rate how much you associate maps with                    different concepts.<br> Below, you can see some examples of the maps you will be asked to rate. Above the maps
                    is the list of concepts.<br>You will be asked                    to rate how much you associate each map with each concept on a scale from 'not at all' to 'very much' like the
                    one below. <br><br>
                    Now, please look at the list of concepts and maps. For each concept, think about the map you associate 'very
                    much' with the concept.<br>                     When you see that map during the experiment, please rate it near the 'very much' endpoint of the
                    scale.<br>Now, please think about which map you associate 'not at all'                     with each concept. When you see that map during the experiment, please rate it near the 'not at all' endpoint
                    of the scale.<br>
                    Please use the full range of the scale. That is, if a map is somewhat associated with the concept, you would
                    click partway between the middle point and right side of the scale.                    You will be asked to rate each map for a given concept before moving on to the next concept.<br>Press the
                    'Continue' button for instructions on how to use the slider.                    <br>
                </div>

                <div style=""width: 500px; margin: 0 auto;"">
                    <!-- Centered text paragraphs -->
                    <div style=""text-align: center; width: 500px;"">
                        <p style=""font-size:25px; line-height:15px;"">
                            fearful&nbsp;&nbsp;&nbsp;&nbsp;
                            sad&nbsp;&nbsp;&nbsp;&nbsp;
                            disgust&nbsp;&nbsp;&nbsp;&nbsp;
                            angry&nbsp;&nbsp;&nbsp;&nbsp;
                            happy
                        </p>
                        <!-- <p style=""font-size:20px; line-height:15px;"">sad</p>
                        <p style=""font-size:20px;line-height:15px;"">disgust</p>
                        <p style=""font-size:20px;line-height:15px;"">angry</p>
                        <p style=""font-size:20px;line-height:15px;"">happy</p> -->
                    </div>
            

                    <!-- Grid section -->
                   <div style=""display: flex; justify-content: center; padding-top: 15px;"">
                    <div style=""display: grid; grid-template-columns: repeat(10, 55px); grid-gap: 5px; width: auto;"">
                        <img src=""images/map05_viridis_scaleDef_orientMir_270.png"" alt=""map"" style=""width: 100%;""><img src=""images/map13_RdPu_scaleDef_orientMir_090.png"" alt=""map"" style=""width: 100%;""><img src=""images/map13_BuPu_scaleDef_orientMir_270.png"" alt=""map"" style=""width: 100%;""><img src=""images/map15_YlGnBu_scaleRev_orientMir_180.png"" alt=""map"" style=""width: 100%;""><img src=""images/map07_magma_scaleDef_orientMir_090.png"" alt=""map"" style=""width: 100%;""><img src=""images/map26_RdGy_scaleRev_orientMir_180.png"" alt=""map"" style=""width: 100%;""><img src=""images/map02_seismic_scaleRev_orientMir_000.png"" alt=""map"" style=""width: 100%;""><img src=""images/map10_Greys_scaleRev_orientDef_180.png"" alt=""map"" style=""width: 100%;""><img src=""images/map15_PuBu_scaleRev_orientMir_000.png"" alt=""map"" style=""width: 100%;""><img src=""images/map07_inferno_scaleDef_orientDef_270.png"" alt=""map"" style=""width: 100%;""><img src=""images/map12_YlOrRd_scaleDef_orientMir_270.png"" alt=""map"" style=""width: 100%;""><img src=""images/map26_PuOr_scaleDef_orientDef_270.png"" alt=""map"" style=""width: 100%;""><img src=""images/map23_BuGn_scaleDef_orientDef_090.png"" alt=""map"" style=""width: 100%;""><img src=""images/map23_PiYG_scaleDef_orientMir_090.png"" alt=""map"" style=""width: 100%;""><img src=""images/map07_plasma_scaleDef_orientDef_090.png"" alt=""map"" style=""width: 100%;""><img src=""images/map10_Greens_scaleDef_orientMir_270.png"" alt=""map"" style=""width: 100%;""><img src=""images/map10_Blues_scaleRev_orientMir_180.png"" alt=""map"" style=""width: 100%;""><img src=""images/map05_vanimo_scaleRev_orientDef_180.png"" alt=""map"" style=""width: 100%;""><img src=""images/map05_turbo_scaleDef_orientMir_090.png"" alt=""map"" style=""width: 100%;""><img src=""images/map12_Oranges_scaleDef_orientDef_090.png"" alt=""map"" style=""width: 100%;""><img src=""images/map12_YlOrBr_scaleRev_orientMir_180.png"" alt=""map"" style=""width: 100%;""><img src=""images/map27_RdYlBu_scaleRev_orientDef_180.png"" alt=""map"" style=""width: 100%;""><img src=""images/map02_managua_scaleDef_orientMir_270.png"" alt=""map"" style=""width: 100%;""><img src=""images/map13_OrRd_scaleRev_orientDef_180.png"" alt=""map"" style=""width: 100%;""><img src=""images/map07_cividis_scaleDef_orientMir_270.png"" alt=""map"" style=""width: 100%;""><img src=""images/map13_PuRd_scaleRev_orientMir_000.png"" alt=""map"" style=""width: 100%;""><img src=""images/map15_GnBu_scaleDef_orientDef_090.png"" alt=""map"" style=""width: 100%;""><img src=""images/map05_gist_earth_scaleRev_orientMir_000.png"" alt=""map"" style=""width: 100%;""><img src=""images/map26_BrBG_scaleDef_orientDef_090.png"" alt=""map"" style=""width: 100%;""><img src=""images/map27_Spectral_scaleDef_orientMir_090.png"" alt=""map"" style=""width: 100%;""><img src=""images/map02_berlin_scaleRev_orientMir_180.png"" alt=""map"" style=""width: 100%;""><img src=""images/map10_Purples_scaleDef_orientDef_270.png"" alt=""map"" style=""width: 100%;""><img src=""images/map23_PuBuGn_scaleRev_orientDef_000.png"" alt=""map"" style=""width: 100%;""><img src=""images/map12_Reds_scaleRev_orientMir_000.png"" alt=""map"" style=""width: 100%;""><img src=""images/map27_RdBu_scaleRev_orientDef_000.png"" alt=""map"" style=""width: 100%;""><img src=""images/map27_RdYlGn_scaleRev_orientMir_000.png"" alt=""map"" style=""width: 100%;""><img src=""images/map23_YlGn_scaleDef_orientDef_270.png"" alt=""map"" style=""width: 100%;""><img src=""images/map02_bwr_scaleRev_orientDef_180.png"" alt=""map"" style=""width: 100%;""><img src=""images/map26_PRGn_scaleRev_orientDef_000.png"" alt=""map"" style=""width: 100%;""><img src=""images/map02_coolwarm_scaleRev_orientDef_000.png"" alt=""map"" style=""width: 100%;"">
                    </div>
                </div>

                    <!-- Clear floats -->
                    <div style=""clear: both;""></div>
                </div>
                            ",NA,"",0,"true",NA,"","","",NA,NA,NA,"","","","",NA,NA
"","","","","","html-button-response",7,90809,"0.0-7.0","98e74q83ac",15,1701,"<div style=""width:800px;""><p style=""text-align:left"">To move the slider, click and drag your cursor to the location of the scale where you would like to make your rating and then let go. When you let go of the slider, your response will be recorded and the next trial will begin. <br>
                    We are interested in your initial impressions of each map for the given concept, so please go with your first intuition. <br>
                    Before you begin the experiment, there will be four training trials for you to practice using the scale. <br>
                     When you are ready to start the training trials, please click ""Continue"".</p><br></div>",0.5,"",NA,"",NA,"","","",NA,NA,NA,"","","","",NA,NA
"","","","","","html-slider-response",8,93337,"0.0-8.0-0.0","98e74q83ac",15,NA,"<div style=""width:500px;"">
                                    <p style=""font-size:25px;"">Please move the slider all the way to the <br> right endpoint of the scale</p>

                                    </div>
                                </div>",1,"",0,"true",0,"true","","",NA,NA,NA,"","","","",NA,NA
"","","","","","html-button-response",9,94681,"0.0-8.0-1.0","98e74q83ac",15,840,"<p align='center'><b>Good job!</b> Click on 'Continue' to proceed.</p>",0.5,"",NA,"",NA,"","","",NA,NA,NA,"","","","",NA,NA
"","","","","","html-slider-response",10,95718,"0.0-9.0-0.0","98e74q83ac",15,NA,"<div style=""width:500px;"">
                                    <p style=""font-size:25px;"">Please move the slider all the way to the <br> left endpoint of the scale</p>

                                    </div>
                                </div>",0,"",0,"true",1,"true","","",NA,NA,NA,"","","","",NA,NA
"","","","","","html-button-response",11,97114,"0.0-9.0-1.0","98e74q83ac",15,890,"<p align='center'><b>Good job!</b> Click on 'Continue' to proceed.</p>",0.5,"",NA,"",NA,"","","",NA,NA,NA,"","","","",NA,NA
"","","","","","html-slider-response",12,103740,"0.0-10.0-0.0","98e74q83ac",15,NA,"<div style=""width:500px;"">
                                    <p style=""font-size:25px;"">Please move the slider halfway between the center and right endpoint of the scale</p>

                                    </div>
                                </div>",0.7625,"",0,"true",2,"true","","",NA,NA,NA,"","","","",NA,NA
"","","","","","html-button-response",13,104874,"0.0-10.0-1.0","98e74q83ac",15,620,"<p align='center'><b>Good job!</b> Click on 'Continue' to proceed.</p>",0.5,"",NA,"",NA,"","","",NA,NA,NA,"","","","",NA,NA
"","","","","","html-slider-response",14,106490,"0.0-11.0-0.0","98e74q83ac",15,NA,"<div style=""width:500px;"">
                                    <p style=""font-size:25px;"">Please move the slider halfway between the center and left endpoint of the scale</p>

                                    </div>
                                </div>",0.25,"",0,"true",3,"true","","",NA,NA,NA,"","","","",NA,NA
"","","","","","html-button-response",15,107424,"0.0-11.0-1.0","98e74q83ac",15,429,"<p align='center'><b>Good job!</b> Click on 'Continue' to proceed.</p>",0.5,"",NA,"",NA,"","","",NA,NA,NA,"","","","",NA,NA
"","","","","","html-button-response",16,108348,"0.0-12.0","98e74q83ac",15,921,"<p>Great job! You've completed the practice trials. Now you will begin the main task.</p>",0.5,"",NA,"",NA,"","","",NA,NA,NA,"","","","",NA,NA
"","","","","","html-button-response",17,115534,"0.0-13.0","98e74q83ac",15,7184,"<p>In this block of trials, you will be asked to rate how much you associate each map with:</p > <p style = 'font-size:150%; font-weight: bold'>fearful</p><br></br>",0.5,"",NA,"",NA,"","","",NA,NA,NA,"","","","",NA,NA
"","","","","","html-slider-response",18,118620,"0.0-14.0","98e74q83ac",15,NA,"<div style=""width:500px;"">
                            <p style=""font-size:50px; font-weight:bold;""
                            >fearful</p>
                            <div style=""width:240px; margin: auto;"">
                                <img src=""images/map23_PuBuGn_scaleRev_orientDef_000.png"" style= ""width:200px""alt=""img"">
                            </div>
                        </div>",0,"",0,"",NA,"","images/map23_PuBuGn_scaleRev_orientDef_000.png","fearful",1,23,23,"PuBuGn","orientDef","scaleRev","000",NA,NA
"","","","","","html-slider-response",19,120591,"0.0-15.0","98e74q83ac",15,NA,"<div style=""width:500px;"">
                            <p style=""font-size:50px; font-weight:bold;""
                            >fearful</p>
                            <div style=""width:240px; margin: auto;"">
                                <img src=""images/map05_turbo_scaleDef_orientMir_090.png"" style= ""width:200px""alt=""img"">
                            </div>
                        </div>",0.7825,"",0,"",NA,"","images/map05_turbo_scaleDef_orientMir_090.png","fearful",1,5,5,"turbo","orientMir","scaleDef","090",NA,NA
"","","","","","html-slider-response",20,123248,"0.0-16.0","98e74q83ac",15,NA,"<div style=""width:500px;"">
                            <p style=""font-size:50px; font-weight:bold;""
                            >fearful</p>
                            <div style=""width:240px; margin: auto;"">
                                <img src=""images/map12_YlOrBr_scaleRev_orientMir_180.png"" style= ""width:200px""alt=""img"">
                            </div>
                        </div>",0.635,"",0,"",NA,"","images/map12_YlOrBr_scaleRev_orientMir_180.png","fearful",1,12,12,"YlOrBr","orientMir","scaleRev","180",NA,NA
"","","","","","html-slider-response",21,125618,"0.0-17.0","98e74q83ac",15,NA,"<div style=""width:500px;"">
                            <p style=""font-size:50px; font-weight:bold;""
                            >fearful</p>
                            <div style=""width:240px; margin: auto;"">
                                <img src=""images/map12_Greens_scaleRev_orientDef_000.png"" style= ""width:200px""alt=""img"">
                            </div>
                        </div>",0.745,"",0,"",NA,"","images/map12_Greens_scaleRev_orientDef_000.png","fearful",1,12,12,"Greens","orientDef","scaleRev","000",NA,NA
"","","","","","html-slider-response",22,127775,"0.0-18.0","98e74q83ac",15,NA,"<div style=""width:500px;"">
                            <p style=""font-size:50px; font-weight:bold;""
                            >fearful</p>
                            <div style=""width:240px; margin: auto;"">
                                <img src=""images/map10_Purples_scaleRev_orientMir_000.png"" style= ""width:200px""alt=""img"">
                            </div>
                        </div>",0.165,"",0,"",NA,"","images/map10_Purples_scaleRev_orientMir_000.png","fearful",1,10,10,"Purples","orientMir","scaleRev","000",NA,NA
"","","","","","html-slider-response",23,129768,"0.0-19.0","98e74q83ac",15,NA,"<div style=""width:500px;"">
                            <p style=""font-size:50px; font-weight:bold;""
                            >fearful</p>
                            <div style=""width:240px; margin: auto;"">
                                <img src=""images/map07_cividis_scaleDef_orientMir_270.png"" style= ""width:200px""alt=""img"">
                            </div>
                        </div>",0.7775,"",0,"",NA,"","images/map07_cividis_scaleDef_orientMir_270.png","fearful",1,7,7,"cividis","orientMir","scaleDef","270",NA,NA
"","","","","","html-slider-response",24,131540,"0.0-20.0","98e74q83ac",15,NA,"<div style=""width:500px;"">
                            <p style=""font-size:50px; font-weight:bold;""
                            >fearful</p>
                            <div style=""width:240px; margin: auto;"">
                                <img src=""images/map23_PiYG_scaleDef_orientMir_090.png"" style= ""width:200px""alt=""img"">
                            </div>
                        </div>",0.885,"",0,"",NA,"","images/map23_PiYG_scaleDef_orientMir_090.png","fearful",1,23,23,"PiYG","orientMir","scaleDef","090",NA,NA
"","","","","","html-slider-response",25,135285,"0.0-21.0","98e74q83ac",15,NA,"<div style=""width:500px;"">
                            <p style=""font-size:50px; font-weight:bold;""
                            >fearful</p>
                            <div style=""width:240px; margin: auto;"">
                                <img src=""images/map05_gist_earth_scaleRev_orientMir_000.png"" style= ""width:200px""alt=""img"">
                            </div>
                        </div>",0.5825,"",0,"",NA,"","images/map05_gist_earth_scaleRev_orientMir_000.png","fearful",1,5,5,"gist","scaleRev","earth","orientMir",NA,NA
"","","","","","html-slider-response",26,137374,"0.0-22.0","98e74q83ac",15,NA,"<div style=""width:500px;"">
                            <p style=""font-size:50px; font-weight:bold;""
                            >fearful</p>
                            <div style=""width:240px; margin: auto;"">
                                <img src=""images/map27_Spectral_scaleDef_orientMir_090.png"" style= ""width:200px""alt=""img"">
                            </div>
                        </div>",0.885,"",0,"",NA,"","images/map27_Spectral_scaleDef_orientMir_090.png","fearful",1,27,27,"Spectral","orientMir","scaleDef","090",NA,NA
"","","","","","html-slider-response",27,140186,"0.0-23.0","98e74q83ac",15,NA,"<div style=""width:500px;"">
                            <p style=""font-size:50px; font-weight:bold;""
                            >fearful</p>
                            <div style=""width:240px; margin: auto;"">
                                <img src=""images/map07_inferno_scaleDef_orientDef_270.png"" style= ""width:200px""alt=""img"">
                            </div>
                        </div>",0.825,"",0,"",NA,"","images/map07_inferno_scaleDef_orientDef_270.png","fearful",1,7,7,"inferno","orientDef","scaleDef","270",NA,NA
"","","","","","html-slider-response",28,143297,"0.0-24.0","98e74q83ac",15,NA,"<div style=""width:500px;"">
                            <p style=""font-size:50px; font-weight:bold;""
                            >fearful</p>
                            <div style=""width:240px; margin: auto;"">
                                <img src=""images/map26_PuOr_scaleRev_orientMir_000.png"" style= ""width:200px""alt=""img"">
                            </div>
                        </div>",0.625,"",0,"",NA,"","images/map26_PuOr_scaleRev_orientMir_000.png","fearful",1,26,26,"PuOr","orientMir","scaleRev","000",NA,NA
"","","","","","html-slider-response",29,145540,"0.0-25.0","98e74q83ac",15,NA,"<div style=""width:500px;"">
                            <p style=""font-size:50px; font-weight:bold;""
                            >fearful</p>
                            <div style=""width:240px; margin: auto;"">
                                <img src=""images/map10_Greens_scaleDef_orientMir_270.png"" style= ""width:200px""alt=""img"">
                            </div>
                        </div>",0.16,"",0,"",NA,"","images/map10_Greens_scaleDef_orientMir_270.png","fearful",1,10,10,"Greens","orientMir","scaleDef","270",NA,NA
"","","","","","html-slider-response",30,148539,"0.0-26.0","98e74q83ac",15,NA,"<div style=""width:500px;"">
                            <p style=""font-size:50px; font-weight:bold;""
                            >fearful</p>
                            <div style=""width:240px; margin: auto;"">
                                <img src=""images/map13_RdPu_scaleDef_orientMir_090.png"" style= ""width:200px""alt=""img"">
                            </div>
                        </div>",0.325,"",0,"",NA,"","images/map13_RdPu_scaleDef_orientMir_090.png","fearful",1,13,13,"RdPu","orientMir","scaleDef","090",NA,NA
"","","","","","html-slider-response",31,150394,"0.0-27.0","98e74q83ac",15,NA,"<div style=""width:500px;"">
                            <p style=""font-size:50px; font-weight:bold;""
                            >fearful</p>
                            <div style=""width:240px; margin: auto;"">
                                <img src=""images/map15_PuBuGn_scaleDef_orientMir_270.png"" style= ""width:200px""alt=""img"">
                            </div>
                        </div>",0,"",0,"",NA,"","images/map15_PuBuGn_scaleDef_orientMir_270.png","fearful",1,15,15,"PuBuGn","orientMir","scaleDef","270",NA,NA
"","","","","","html-slider-response",32,154386,"0.0-28.0","98e74q83ac",15,NA,"<div style=""width:500px;"">
                            <p style=""font-size:50px; font-weight:bold;""
                            >fearful</p>
                            <div style=""width:240px; margin: auto;"">
                                <img src=""images/map13_PuRd_scaleRev_orientMir_000.png"" style= ""width:200px""alt=""img"">
                            </div>
                        </div>",0.345,"",0,"",NA,"","images/map13_PuRd_scaleRev_orientMir_000.png","fearful",1,13,13,"PuRd","orientMir","scaleRev","000",NA,NA
"","","","","","html-slider-response",33,156351,"0.0-29.0","98e74q83ac",15,NA,"<div style=""width:500px;"">
                            <p style=""font-size:50px; font-weight:bold;""
                            >fearful</p>
                            <div style=""width:240px; margin: auto;"">
                                <img src=""images/map05_vanimo_scaleDef_orientDef_090.png"" style= ""width:200px""alt=""img"">
                            </div>
                        </div>",0.8725,"",0,"",NA,"","images/map05_vanimo_scaleDef_orientDef_090.png","fearful",1,5,5,"vanimo","orientDef","scaleDef","090",NA,NA
"","","","","","html-slider-response",34,158797,"0.0-30.0","98e74q83ac",15,NA,"<div style=""width:500px;"">
                            <p style=""font-size:50px; font-weight:bold;""
                            >fearful</p>
                            <div style=""width:240px; margin: auto;"">
                                <img src=""images/map12_Reds_scaleDef_orientDef_270.png"" style= ""width:200px""alt=""img"">
                            </div>
                        </div>",0.695,"",0,"",NA,"","images/map12_Reds_scaleDef_orientDef_270.png","fearful",1,12,12,"Reds","orientDef","scaleDef","270",NA,NA
"","","","","","html-slider-response",35,160625,"0.0-31.0","98e74q83ac",15,NA,"<div style=""width:500px;"">
                            <p style=""font-size:50px; font-weight:bold;""
                            >fearful</p>
                            <div style=""width:240px; margin: auto;"">
                                <img src=""images/map15_PuBu_scaleRev_orientMir_000.png"" style= ""width:200px""alt=""img"">
                            </div>
                        </div>",0,"",0,"",NA,"","images/map15_PuBu_scaleRev_orientMir_000.png","fearful",1,15,15,"PuBu","orientMir","scaleRev","000",NA,NA
"","","","","","html-slider-response",36,162342,"0.0-32.0","98e74q83ac",15,NA,"<div style=""width:500px;"">
                            <p style=""font-size:50px; font-weight:bold;""
                            >fearful</p>
                            <div style=""width:240px; margin: auto;"">
                                <img src=""images/map10_Blues_scaleRev_orientMir_180.png"" style= ""width:200px""alt=""img"">
                            </div>
                        </div>",0,"",0,"",NA,"","images/map10_Blues_scaleRev_orientMir_180.png","fearful",1,10,10,"Blues","orientMir","scaleRev","180",NA,NA
"","","","","","html-slider-response",37,165073,"0.0-33.0","98e74q83ac",15,NA,"<div style=""width:500px;"">
                            <p style=""font-size:50px; font-weight:bold;""
                            >fearful</p>
                            <div style=""width:240px; margin: auto;"">
                                <img src=""images/map02_berlin_scaleRev_orientMir_180.png"" style= ""width:200px""alt=""img"">
                            </div>
                        </div>",0.675,"",0,"",NA,"","images/map02_berlin_scaleRev_orientMir_180.png","fearful",1,2,2,"berlin","orientMir","scaleRev","180",NA,NA
"","","","","","html-slider-response",38,167681,"0.0-34.0","98e74q83ac",15,NA,"<div style=""width:500px;"">
                            <p style=""font-size:50px; font-weight:bold;""
                            >fearful</p>
                            <div style=""width:240px; margin: auto;"">
                                <img src=""images/map15_BuPu_scaleRev_orientDef_000.png"" style= ""width:200px""alt=""img"">
                            </div>
                        </div>",0.845,"",0,"",NA,"","images/map15_BuPu_scaleRev_orientDef_000.png","fearful",1,15,15,"BuPu","orientDef","scaleRev","000",NA,NA
"","","","","","html-slider-response",39,169460,"0.0-35.0","98e74q83ac",15,NA,"<div style=""width:500px;"">
                            <p style=""font-size:50px; font-weight:bold;""
                            >fearful</p>
                            <div style=""width:240px; margin: auto;"">
                                <img src=""images/map05_managua_scaleRev_orientDef_000.png"" style= ""width:200px""alt=""img"">
                            </div>
                        </div>",0.68,"",0,"",NA,"","images/map05_managua_scaleRev_orientDef_000.png","fearful",1,5,5,"managua","orientDef","scaleRev","000",NA,NA
"","","","","","html-slider-response",40,171161,"0.0-36.0","98e74q83ac",15,NA,"<div style=""width:500px;"">
                            <p style=""font-size:50px; font-weight:bold;""
                            >fearful</p>
                            <div style=""width:240px; margin: auto;"">
                                <img src=""images/map26_BrBG_scaleDef_orientDef_090.png"" style= ""width:200px""alt=""img"">
                            </div>
                        </div>",0.7575,"",0,"",NA,"","images/map26_BrBG_scaleDef_orientDef_090.png","fearful",1,26,26,"BrBG","orientDef","scaleDef","090",NA,NA
"","","","","","html-slider-response",41,173528,"0.0-37.0","98e74q83ac",15,NA,"<div style=""width:500px;"">
                            <p style=""font-size:50px; font-weight:bold;""
                            >fearful</p>
                            <div style=""width:240px; margin: auto;"">
                                <img src=""images/map02_seismic_scaleRev_orientMir_000.png"" style= ""width:200px""alt=""img"">
                            </div>
                        </div>",0.975,"",0,"",NA,"","images/map02_seismic_scaleRev_orientMir_000.png","fearful",1,2,2,"seismic","orientMir","scaleRev","000",NA,NA
"","","","","","html-slider-response",42,175587,"0.0-38.0","98e74q83ac",15,NA,"<div style=""width:500px;"">
                            <p style=""font-size:50px; font-weight:bold;""
                            >fearful</p>
                            <div style=""width:240px; margin: auto;"">
                                <img src=""images/map13_YlOrRd_scaleRev_orientDef_000.png"" style= ""width:200px""alt=""img"">
                            </div>
                        </div>",0.57,"",0,"",NA,"","images/map13_YlOrRd_scaleRev_orientDef_000.png","fearful",1,13,13,"YlOrRd","orientDef","scaleRev","000",NA,NA
"","","","","","html-slider-response",43,178750,"0.0-39.0","98e74q83ac",15,NA,"<div style=""width:500px;"">
                            <p style=""font-size:50px; font-weight:bold;""
                            >fearful</p>
                            <div style=""width:240px; margin: auto;"">
                                <img src=""images/map02_coolwarm_scaleRev_orientDef_000.png"" style= ""width:200px""alt=""img"">
                            </div>
                        </div>",0.35,"",0,"",NA,"","images/map02_coolwarm_scaleRev_orientDef_000.png","fearful",1,2,2,"coolwarm","orientDef","scaleRev","000",NA,NA
"","","","","","html-slider-response",44,180555,"0.0-40.0","98e74q83ac",15,NA,"<div style=""width:500px;"">
                            <p style=""font-size:50px; font-weight:bold;""
                            >fearful</p>
                            <div style=""width:240px; margin: auto;"">
                                <img src=""images/map27_Spectral_scaleRev_orientMir_180.png"" style= ""width:200px""alt=""img"">
                            </div>
                        </div>",0.675,"",0,"",NA,"","images/map27_Spectral_scaleRev_orientMir_180.png","fearful",1,27,27,"Spectral","orientMir","scaleRev","180",NA,NA
"","","","","","html-slider-response",45,182305,"0.0-41.0","98e74q83ac",15,NA,"<div style=""width:500px;"">
                            <p style=""font-size:50px; font-weight:bold;""
                            >fearful</p>
                            <div style=""width:240px; margin: auto;"">
                                <img src=""images/map26_PRGn_scaleRev_orientDef_000.png"" style= ""width:200px""alt=""img"">
                            </div>
                        </div>",0.82,"",0,"",NA,"","images/map26_PRGn_scaleRev_orientDef_000.png","fearful",1,26,26,"PRGn","orientDef","scaleRev","000",NA,NA
"","","","","","html-slider-response",46,183997,"0.0-42.0","98e74q83ac",15,NA,"<div style=""width:500px;"">
                            <p style=""font-size:50px; font-weight:bold;""
                            >fearful</p>
                            <div style=""width:240px; margin: auto;"">
                                <img src=""images/map23_PiYG_scaleRev_orientMir_180.png"" style= ""width:200px""alt=""img"">
                            </div>
                        </div>",0.9,"",0,"",NA,"","images/map23_PiYG_scaleRev_orientMir_180.png","fearful",1,23,23,"PiYG","orientMir","scaleRev","180",NA,NA
"","","","","","html-slider-response",47,185684,"0.0-43.0","98e74q83ac",15,NA,"<div style=""width:500px;"">
                            <p style=""font-size:50px; font-weight:bold;""
                            >fearful</p>
                            <div style=""width:240px; margin: auto;"">
                                <img src=""images/map23_YlGn_scaleDef_orientDef_270.png"" style= ""width:200px""alt=""img"">
                            </div>
                        </div>",0.185,"",0,"",NA,"","images/map23_YlGn_scaleDef_orientDef_270.png","fearful",1,23,23,"YlGn","orientDef","scaleDef","270",NA,NA
"","","","","","html-slider-response",48,187410,"0.0-44.0","98e74q83ac",15,NA,"<div style=""width:500px;"">
                            <p style=""font-size:50px; font-weight:bold;""
                            >fearful</p>
                            <div style=""width:240px; margin: auto;"">
                                <img src=""images/map15_GnBu_scaleDef_orientDef_090.png"" style= ""width:200px""alt=""img"">
                            </div>
                        </div>",0,"",0,"",NA,"","images/map15_GnBu_scaleDef_orientDef_090.png","fearful",1,15,15,"GnBu","orientDef","scaleDef","090",NA,NA
"","","","","","html-slider-response",49,189349,"0.0-45.0","98e74q83ac",15,NA,"<div style=""width:500px;"">
                            <p style=""font-size:50px; font-weight:bold;""
                            >fearful</p>
                            <div style=""width:240px; margin: auto;"">
                                <img src=""images/map13_PuRd_scaleDef_orientDef_270.png"" style= ""width:200px""alt=""img"">
                            </div>
                        </div>",0.33,"",0,"",NA,"","images/map13_PuRd_scaleDef_orientDef_270.png","fearful",1,13,13,"PuRd","orientDef","scaleDef","270",NA,NA
"","","","","","html-slider-response",50,191016,"0.0-46.0","98e74q83ac",15,NA,"<div style=""width:500px;"">
                            <p style=""font-size:50px; font-weight:bold;""
                            >fearful</p>
                            <div style=""width:240px; margin: auto;"">
                                <img src=""images/map27_RdYlGn_scaleRev_orientMir_000.png"" style= ""width:200px""alt=""img"">
                            </div>
                        </div>",0.8,"",0,"",NA,"","images/map27_RdYlGn_scaleRev_orientMir_000.png","fearful",1,27,27,"RdYlGn","orientMir","scaleRev","000",NA,NA
"","","","","","html-slider-response",51,192938,"0.0-47.0","98e74q83ac",15,NA,"<div style=""width:500px;"">
                            <p style=""font-size:50px; font-weight:bold;""
                            >fearful</p>
                            <div style=""width:240px; margin: auto;"">
                                <img src=""images/map10_Greys_scaleRev_orientDef_180.png"" style= ""width:200px""alt=""img"">
                            </div>
                        </div>",1,"",0,"",NA,"","images/map10_Greys_scaleRev_orientDef_180.png","fearful",1,10,10,"Greys","orientDef","scaleRev","180",NA,NA
"","","","","","html-slider-response",52,194836,"0.0-48.0","98e74q83ac",15,NA,"<div style=""width:500px;"">
                            <p style=""font-size:50px; font-weight:bold;""
                            >fearful</p>
                            <div style=""width:240px; margin: auto;"">
                                <img src=""images/map02_bwr_scaleRev_orientDef_180.png"" style= ""width:200px""alt=""img"">
                            </div>
                        </div>",0.735,"",0,"",NA,"","images/map02_bwr_scaleRev_orientDef_180.png","fearful",1,2,2,"bwr","orientDef","scaleRev","180",NA,NA
"","","","","","html-slider-response",53,196808,"0.0-49.0","98e74q83ac",15,NA,"<div style=""width:500px;"">
                            <p style=""font-size:50px; font-weight:bold;""
                            >fearful</p>
                            <div style=""width:240px; margin: auto;"">
                                <img src=""images/map12_YlOrBr_scaleDef_orientMir_090.png"" style= ""width:200px""alt=""img"">
                            </div>
                        </div>",0.545,"",0,"",NA,"","images/map12_YlOrBr_scaleDef_orientMir_090.png","fearful",1,12,12,"YlOrBr","orientMir","scaleDef","090",NA,NA
"","","","","","html-slider-response",54,198772,"0.0-50.0","98e74q83ac",15,NA,"<div style=""width:500px;"">
                            <p style=""font-size:50px; font-weight:bold;""
                            >fearful</p>
                            <div style=""width:240px; margin: auto;"">
                                <img src=""images/map15_PuBu_scaleDef_orientDef_270.png"" style= ""width:200px""alt=""img"">
                            </div>
                        </div>",0,"",0,"",NA,"","images/map15_PuBu_scaleDef_orientDef_270.png","fearful",1,15,15,"PuBu","orientDef","scaleDef","270",NA,NA
"","","","","","html-slider-response",55,200951,"0.0-51.0","98e74q83ac",15,NA,"<div style=""width:500px;"">
                            <p style=""font-size:50px; font-weight:bold;""
                            >fearful</p>
                            <div style=""width:240px; margin: auto;"">
                                <img src=""images/map07_plasma_scaleRev_orientDef_180.png"" style= ""width:200px""alt=""img"">
                            </div>
                        </div>",0.67,"",0,"",NA,"","images/map07_plasma_scaleRev_orientDef_180.png","fearful",1,7,7,"plasma","orientDef","scaleRev","180",NA,NA
"","","","","","html-slider-response",56,202956,"0.0-52.0","98e74q83ac",15,NA,"<div style=""width:500px;"">
                            <p style=""font-size:50px; font-weight:bold;""
                            >fearful</p>
                            <div style=""width:240px; margin: auto;"">
                                <img src=""images/map13_OrRd_scaleDef_orientDef_090.png"" style= ""width:200px""alt=""img"">
                            </div>
                        </div>",0.555,"",0,"",NA,"","images/map13_OrRd_scaleDef_orientDef_090.png","fearful",1,13,13,"OrRd","orientDef","scaleDef","090",NA,NA
"","","","","","html-slider-response",57,206739,"0.0-53.0","98e74q83ac",15,NA,"<div style=""width:500px;"">
                            <p style=""font-size:50px; font-weight:bold;""
                            >fearful</p>
                            <div style=""width:240px; margin: auto;"">
                                <img src=""images/map26_BrBG_scaleRev_orientDef_180.png"" style= ""width:200px""alt=""img"">
                            </div>
                        </div>",0.2625,"",0,"",NA,"","images/map26_BrBG_scaleRev_orientDef_180.png","fearful",1,26,26,"BrBG","orientDef","scaleRev","180",NA,NA
"","","","","","html-button-response",58,208078,"0.0-54.0","98e74q83ac",15,823,"<p>You are doing great!<br></br> You are halway done with the current block. When you are ready to continue, click the 'Continue' button.</p>",0.5,"",NA,"",NA,"","","",NA,NA,NA,"","","","",NA,NA
"","","","","","html-slider-response",59,210770,"0.0-55.0","98e74q83ac",15,NA,"<div style=""width:500px;"">
                            <p style=""font-size:50px; font-weight:bold;""
                            >fearful</p>
                            <div style=""width:240px; margin: auto;"">
                                <img src=""images/map10_cividis_scaleRev_orientDef_000.png"" style= ""width:200px""alt=""img"">
                            </div>
                        </div>",0.7025,"",0,"",NA,"","images/map10_cividis_scaleRev_orientDef_000.png","fearful",1,10,10,"cividis","orientDef","scaleRev","000",NA,NA
"","","","","","html-slider-response",60,212371,"0.0-56.0","98e74q83ac",15,NA,"<div style=""width:500px;"">
                            <p style=""font-size:50px; font-weight:bold;""
                            >fearful</p>
                            <div style=""width:240px; margin: auto;"">
                                <img src=""images/map23_PRGn_scaleDef_orientMir_270.png"" style= ""width:200px""alt=""img"">
                            </div>
                        </div>",0.6,"",0,"",NA,"","images/map23_PRGn_scaleDef_orientMir_270.png","fearful",1,23,23,"PRGn","orientMir","scaleDef","270",NA,NA
"","","","","","html-slider-response",61,214051,"0.0-57.0","98e74q83ac",15,NA,"<div style=""width:500px;"">
                            <p style=""font-size:50px; font-weight:bold;""
                            >fearful</p>
                            <div style=""width:240px; margin: auto;"">
                                <img src=""images/map23_YlGn_scaleRev_orientMir_000.png"" style= ""width:200px""alt=""img"">
                            </div>
                        </div>",0.205,"",0,"",NA,"","images/map23_YlGn_scaleRev_orientMir_000.png","fearful",1,23,23,"YlGn","orientMir","scaleRev","000",NA,NA
"","","","","","html-slider-response",62,215784,"0.0-58.0","98e74q83ac",15,NA,"<div style=""width:500px;"">
                            <p style=""font-size:50px; font-weight:bold;""
                            >fearful</p>
                            <div style=""width:240px; margin: auto;"">
                                <img src=""images/map23_BuGn_scaleRev_orientDef_180.png"" style= ""width:200px""alt=""img"">
                            </div>
                        </div>",0.09,"",0,"",NA,"","images/map23_BuGn_scaleRev_orientDef_180.png","fearful",1,23,23,"BuGn","orientDef","scaleRev","180",NA,NA
"","","","","","html-slider-response",63,217488,"0.0-59.0","98e74q83ac",15,NA,"<div style=""width:500px;"">
                            <p style=""font-size:50px; font-weight:bold;""
                            >fearful</p>
                            <div style=""width:240px; margin: auto;"">
                                <img src=""images/map12_YlOrRd_scaleDef_orientMir_270.png"" style= ""width:200px""alt=""img"">
                            </div>
                        </div>",0.6875,"",0,"",NA,"","images/map12_YlOrRd_scaleDef_orientMir_270.png","fearful",1,12,12,"YlOrRd","orientMir","scaleDef","270",NA,NA
"","","","","","html-slider-response",64,219139,"0.0-60.0","98e74q83ac",15,NA,"<div style=""width:500px;"">
                            <p style=""font-size:50px; font-weight:bold;""
                            >fearful</p>
                            <div style=""width:240px; margin: auto;"">
                                <img src=""images/map05_turbo_scaleRev_orientMir_180.png"" style= ""width:200px""alt=""img"">
                            </div>
                        </div>",0.845,"",0,"",NA,"","images/map05_turbo_scaleRev_orientMir_180.png","fearful",1,5,5,"turbo","orientMir","scaleRev","180",NA,NA
"","","","","","html-slider-response",65,221239,"0.0-61.0","98e74q83ac",15,NA,"<div style=""width:500px;"">
                            <p style=""font-size:50px; font-weight:bold;""
                            >fearful</p>
                            <div style=""width:240px; margin: auto;"">
                                <img src=""images/map05_vanimo_scaleRev_orientDef_180.png"" style= ""width:200px""alt=""img"">
                            </div>
                        </div>",0.97,"",0,"",NA,"","images/map05_vanimo_scaleRev_orientDef_180.png","fearful",1,5,5,"vanimo","orientDef","scaleRev","180",NA,NA
"","","","","","html-slider-response",66,223273,"0.0-62.0","98e74q83ac",15,NA,"<div style=""width:500px;"">
                            <p style=""font-size:50px; font-weight:bold;""
                            >fearful</p>
                            <div style=""width:240px; margin: auto;"">
                                <img src=""images/map07_plasma_scaleDef_orientDef_090.png"" style= ""width:200px""alt=""img"">
                            </div>
                        </div>",0.2675,"",0,"",NA,"","images/map07_plasma_scaleDef_orientDef_090.png","fearful",1,7,7,"plasma","orientDef","scaleDef","090",NA,NA
"","","","","","html-slider-response",67,225003,"0.0-63.0","98e74q83ac",15,NA,"<div style=""width:500px;"">
                            <p style=""font-size:50px; font-weight:bold;""
                            >fearful</p>
                            <div style=""width:240px; margin: auto;"">
                                <img src=""images/map07_viridis_scaleRev_orientDef_000.png"" style= ""width:200px""alt=""img"">
                            </div>
                        </div>",0.1425,"",0,"",NA,"","images/map07_viridis_scaleRev_orientDef_000.png","fearful",1,7,7,"viridis","orientDef","scaleRev","000",NA,NA
"","","","","","html-slider-response",68,226568,"0.0-64.0","98e74q83ac",15,NA,"<div style=""width:500px;"">
                            <p style=""font-size:50px; font-weight:bold;""
                            >fearful</p>
                            <div style=""width:240px; margin: auto;"">
                                <img src=""images/map10_Purples_scaleDef_orientDef_270.png"" style= ""width:200px""alt=""img"">
                            </div>
                        </div>",0,"",0,"",NA,"","images/map10_Purples_scaleDef_orientDef_270.png","fearful",1,10,10,"Purples","orientDef","scaleDef","270",NA,NA
"","","","","","html-slider-response",69,228473,"0.0-65.0","98e74q83ac",15,NA,"<div style=""width:500px;"">
                            <p style=""font-size:50px; font-weight:bold;""
                            >fearful</p>
                            <div style=""width:240px; margin: auto;"">
                                <img src=""images/map07_magma_scaleRev_orientMir_180.png"" style= ""width:200px""alt=""img"">
                            </div>
                        </div>",0.68,"",0,"",NA,"","images/map07_magma_scaleRev_orientMir_180.png","fearful",1,7,7,"magma","orientMir","scaleRev","180",NA,NA
"","","","","","html-slider-response",70,230287,"0.0-66.0","98e74q83ac",15,NA,"<div style=""width:500px;"">
                            <p style=""font-size:50px; font-weight:bold;""
                            >fearful</p>
                            <div style=""width:240px; margin: auto;"">
                                <img src=""images/map05_viridis_scaleDef_orientMir_270.png"" style= ""width:200px""alt=""img"">
                            </div>
                        </div>",0.125,"",0,"",NA,"","images/map05_viridis_scaleDef_orientMir_270.png","fearful",1,5,5,"viridis","orientMir","scaleDef","270",NA,NA
"","","","","","html-slider-response",71,233055,"0.0-67.0","98e74q83ac",15,NA,"<div style=""width:500px;"">
                            <p style=""font-size:50px; font-weight:bold;""
                            >fearful</p>
                            <div style=""width:240px; margin: auto;"">
                                <img src=""images/map12_Reds_scaleRev_orientMir_000.png"" style= ""width:200px""alt=""img"">
                            </div>
                        </div>",0.5425,"",0,"",NA,"","images/map12_Reds_scaleRev_orientMir_000.png","fearful",1,12,12,"Reds","orientMir","scaleRev","000",NA,NA
"","","","","","html-slider-response",72,234664,"0.0-68.0","98e74q83ac",15,NA,"<div style=""width:500px;"">
                            <p style=""font-size:50px; font-weight:bold;""
                            >fearful</p>
                            <div style=""width:240px; margin: auto;"">
                                <img src=""images/map10_Blues_scaleDef_orientMir_090.png"" style= ""width:200px""alt=""img"">
                            </div>
                        </div>",0,"",0,"",NA,"","images/map10_Blues_scaleDef_orientMir_090.png","fearful",1,10,10,"Blues","orientMir","scaleDef","090",NA,NA
"","","","","","html-slider-response",73,236440,"0.0-69.0","98e74q83ac",15,NA,"<div style=""width:500px;"">
                            <p style=""font-size:50px; font-weight:bold;""
                            >fearful</p>
                            <div style=""width:240px; margin: auto;"">
                                <img src=""images/map27_RdYlGn_scaleDef_orientDef_270.png"" style= ""width:200px""alt=""img"">
                            </div>
                        </div>",0.675,"",0,"",NA,"","images/map27_RdYlGn_scaleDef_orientDef_270.png","fearful",1,27,27,"RdYlGn","orientDef","scaleDef","270",NA,NA
"","","","","","html-slider-response",74,238411,"0.0-70.0","98e74q83ac",15,NA,"<div style=""width:500px;"">
                            <p style=""font-size:50px; font-weight:bold;""
                            >fearful</p>
                            <div style=""width:240px; margin: auto;"">
                                <img src=""images/map07_inferno_scaleRev_orientMir_000.png"" style= ""width:200px""alt=""img"">
                            </div>
                        </div>",0.56,"",0,"",NA,"","images/map07_inferno_scaleRev_orientMir_000.png","fearful",1,7,7,"inferno","orientMir","scaleRev","000",NA,NA
"","","","","","html-slider-response",75,239905,"0.0-71.0","98e74q83ac",15,NA,"<div style=""width:500px;"">
                            <p style=""font-size:50px; font-weight:bold;""
                            >fearful</p>
                            <div style=""width:240px; margin: auto;"">
                                <img src=""images/map15_GnBu_scaleRev_orientDef_180.png"" style= ""width:200px""alt=""img"">
                            </div>
                        </div>",0,"",0,"",NA,"","images/map15_GnBu_scaleRev_orientDef_180.png","fearful",1,15,15,"GnBu","orientDef","scaleRev","180",NA,NA
"","","","","","html-slider-response",76,241564,"0.0-72.0","98e74q83ac",15,NA,"<div style=""width:500px;"">
                            <p style=""font-size:50px; font-weight:bold;""
                            >fearful</p>
                            <div style=""width:240px; margin: auto;"">
                                <img src=""images/map27_RdYlBu_scaleRev_orientDef_180.png"" style= ""width:200px""alt=""img"">
                            </div>
                        </div>",0.73,"",0,"",NA,"","images/map27_RdYlBu_scaleRev_orientDef_180.png","fearful",1,27,27,"RdYlBu","orientDef","scaleRev","180",NA,NA
"","","","","","html-slider-response",77,242976,"0.0-73.0","98e74q83ac",15,NA,"<div style=""width:500px;"">
                            <p style=""font-size:50px; font-weight:bold;""
                            >fearful</p>
                            <div style=""width:240px; margin: auto;"">
                                <img src=""images/map26_PuOr_scaleDef_orientDef_270.png"" style= ""width:200px""alt=""img"">
                            </div>
                        </div>",0.4975,"",0,"",NA,"","images/map26_PuOr_scaleDef_orientDef_270.png","fearful",1,26,26,"PuOr","orientDef","scaleDef","270",NA,NA
"","","","","","html-slider-response",78,244739,"0.0-74.0","98e74q83ac",15,NA,"<div style=""width:500px;"">
                            <p style=""font-size:50px; font-weight:bold;""
                            >fearful</p>
                            <div style=""width:240px; margin: auto;"">
                                <img src=""images/map02_managua_scaleDef_orientMir_270.png"" style= ""width:200px""alt=""img"">
                            </div>
                        </div>",0.615,"",0,"",NA,"","images/map02_managua_scaleDef_orientMir_270.png","fearful",1,2,2,"managua","orientMir","scaleDef","270",NA,NA
"","","","","","html-slider-response",79,246753,"0.0-75.0","98e74q83ac",15,NA,"<div style=""width:500px;"">
                            <p style=""font-size:50px; font-weight:bold;""
                            >fearful</p>
                            <div style=""width:240px; margin: auto;"">
                                <img src=""images/map13_RdPu_scaleRev_orientMir_180.png"" style= ""width:200px""alt=""img"">
                            </div>
                        </div>",0.355,"",0,"",NA,"","images/map13_RdPu_scaleRev_orientMir_180.png","fearful",1,13,13,"RdPu","orientMir","scaleRev","180",NA,NA
"","","","","","html-slider-response",80,248495,"0.0-76.0","98e74q83ac",15,NA,"<div style=""width:500px;"">
                            <p style=""font-size:50px; font-weight:bold;""
                            >fearful</p>
                            <div style=""width:240px; margin: auto;"">
                                <img src=""images/map26_RdGy_scaleDef_orientMir_090.png"" style= ""width:200px""alt=""img"">
                            </div>
                        </div>",1,"",0,"",NA,"","images/map26_RdGy_scaleDef_orientMir_090.png","fearful",1,26,26,"RdGy","orientMir","scaleDef","090",NA,NA
"","","","","","html-slider-response",81,251795,"0.0-77.0","98e74q83ac",15,NA,"<div style=""width:500px;"">
                            <p style=""font-size:50px; font-weight:bold;""
                            >fearful</p>
                            <div style=""width:240px; margin: auto;"">
                                <img src=""images/map07_magma_scaleDef_orientMir_090.png"" style= ""width:200px""alt=""img"">
                            </div>
                        </div>",0.315,"",0,"",NA,"","images/map07_magma_scaleDef_orientMir_090.png","fearful",1,7,7,"magma","orientMir","scaleDef","090",NA,NA
"","","","","","html-slider-response",82,254104,"0.0-78.0","98e74q83ac",15,NA,"<div style=""width:500px;"">
                            <p style=""font-size:50px; font-weight:bold;""
                            >fearful</p>
                            <div style=""width:240px; margin: auto;"">
                                <img src=""images/map12_Oranges_scaleRev_orientDef_180.png"" style= ""width:200px""alt=""img"">
                            </div>
                        </div>",0.585,"",0,"",NA,"","images/map12_Oranges_scaleRev_orientDef_180.png","fearful",1,12,12,"Oranges","orientDef","scaleRev","180",NA,NA
"","","","","","html-slider-response",83,255575,"0.0-79.0","98e74q83ac",15,NA,"<div style=""width:500px;"">
                            <p style=""font-size:50px; font-weight:bold;""
                            >fearful</p>
                            <div style=""width:240px; margin: auto;"">
                                <img src=""images/map15_YlGnBu_scaleDef_orientMir_090.png"" style= ""width:200px""alt=""img"">
                            </div>
                        </div>",0,"",0,"",NA,"","images/map15_YlGnBu_scaleDef_orientMir_090.png","fearful",1,15,15,"YlGnBu","orientMir","scaleDef","090",NA,NA
"","","","","","html-slider-response",84,257246,"0.0-80.0","98e74q83ac",15,NA,"<div style=""width:500px;"">
                            <p style=""font-size:50px; font-weight:bold;""
                            >fearful</p>
                            <div style=""width:240px; margin: auto;"">
                                <img src=""images/map27_RdBu_scaleRev_orientDef_000.png"" style= ""width:200px""alt=""img"">
                            </div>
                        </div>",0.625,"",0,"",NA,"","images/map27_RdBu_scaleRev_orientDef_000.png","fearful",1,27,27,"RdBu","orientDef","scaleRev","000",NA,NA
"","","","","","html-slider-response",85,259618,"0.0-81.0","98e74q83ac",15,NA,"<div style=""width:500px;"">
                            <p style=""font-size:50px; font-weight:bold;""
                            >fearful</p>
                            <div style=""width:240px; margin: auto;"">
                                <img src=""images/map26_RdBu_scaleDef_orientMir_270.png"" style= ""width:200px""alt=""img"">
                            </div>
                        </div>",0.645,"",0,"",NA,"","images/map26_RdBu_scaleDef_orientMir_270.png","fearful",1,26,26,"RdBu","orientMir","scaleDef","270",NA,NA
"","","","","","html-slider-response",86,261600,"0.0-82.0","98e74q83ac",15,NA,"<div style=""width:500px;"">
                            <p style=""font-size:50px; font-weight:bold;""
                            >fearful</p>
                            <div style=""width:240px; margin: auto;"">
                                <img src=""images/map27_RdYlBu_scaleDef_orientDef_090.png"" style= ""width:200px""alt=""img"">
                            </div>
                        </div>",0.815,"",0,"",NA,"","images/map27_RdYlBu_scaleDef_orientDef_090.png","fearful",1,27,27,"RdYlBu","orientDef","scaleDef","090",NA,NA
"","","","","","html-slider-response",87,264960,"0.0-83.0","98e74q83ac",15,NA,"<div style=""width:500px;"">
                            <p style=""font-size:50px; font-weight:bold;""
                            >fearful</p>
                            <div style=""width:240px; margin: auto;"">
                                <img src=""images/map13_BuPu_scaleDef_orientMir_270.png"" style= ""width:200px""alt=""img"">
                            </div>
                        </div>",0.1325,"",0,"",NA,"","images/map13_BuPu_scaleDef_orientMir_270.png","fearful",1,13,13,"BuPu","orientMir","scaleDef","270",NA,NA
"","","","","","html-slider-response",88,267435,"0.0-84.0","98e74q83ac",15,NA,"<div style=""width:500px;"">
                            <p style=""font-size:50px; font-weight:bold;""
                            >fearful</p>
                            <div style=""width:240px; margin: auto;"">
                                <img src=""images/map12_Oranges_scaleDef_orientDef_090.png"" style= ""width:200px""alt=""img"">
                            </div>
                        </div>",0.6025,"",0,"",NA,"","images/map12_Oranges_scaleDef_orientDef_090.png","fearful",1,12,12,"Oranges","orientDef","scaleDef","090",NA,NA
"","","","","","html-slider-response",89,269345,"0.0-85.0","98e74q83ac",15,NA,"<div style=""width:500px;"">
                            <p style=""font-size:50px; font-weight:bold;""
                            >fearful</p>
                            <div style=""width:240px; margin: auto;"">
                                <img src=""images/map27_coolwarm_scaleDef_orientMir_270.png"" style= ""width:200px""alt=""img"">
                            </div>
                        </div>",0.7025,"",0,"",NA,"","images/map27_coolwarm_scaleDef_orientMir_270.png","fearful",1,27,27,"coolwarm","orientMir","scaleDef","270",NA,NA
"","","","","","html-slider-response",90,271237,"0.0-86.0","98e74q83ac",15,NA,"<div style=""width:500px;"">
                            <p style=""font-size:50px; font-weight:bold;""
                            >fearful</p>
                            <div style=""width:240px; margin: auto;"">
                                <img src=""images/map15_YlGnBu_scaleRev_orientMir_180.png"" style= ""width:200px""alt=""img"">
                            </div>
                        </div>",0,"",0,"",NA,"","images/map15_YlGnBu_scaleRev_orientMir_180.png","fearful",1,15,15,"YlGnBu","orientMir","scaleRev","180",NA,NA
"","","","","","html-slider-response",91,273617,"0.0-87.0","98e74q83ac",15,NA,"<div style=""width:500px;"">
                            <p style=""font-size:50px; font-weight:bold;""
                            >fearful</p>
                            <div style=""width:240px; margin: auto;"">
                                <img src=""images/map05_gist_earth_scaleDef_orientDef_270.png"" style= ""width:200px""alt=""img"">
                            </div>
                        </div>",0.265,"",0,"",NA,"","images/map05_gist_earth_scaleDef_orientDef_270.png","fearful",1,5,5,"gist","scaleDef","earth","orientDef",NA,NA
"","","","","","html-slider-response",92,275204,"0.0-88.0","98e74q83ac",15,NA,"<div style=""width:500px;"">
                            <p style=""font-size:50px; font-weight:bold;""
                            >fearful</p>
                            <div style=""width:240px; margin: auto;"">
                                <img src=""images/map26_RdGy_scaleRev_orientMir_180.png"" style= ""width:200px""alt=""img"">
                            </div>
                        </div>",1,"",0,"",NA,"","images/map26_RdGy_scaleRev_orientMir_180.png","fearful",1,26,26,"RdGy","orientMir","scaleRev","180",NA,NA
"","","","","","html-slider-response",93,277751,"0.0-89.0","98e74q83ac",15,NA,"<div style=""width:500px;"">
                            <p style=""font-size:50px; font-weight:bold;""
                            >fearful</p>
                            <div style=""width:240px; margin: auto;"">
                                <img src=""images/map02_seismic_scaleDef_orientDef_270.png"" style= ""width:200px""alt=""img"">
                            </div>
                        </div>",0.835,"",0,"",NA,"","images/map02_seismic_scaleDef_orientDef_270.png","fearful",1,2,2,"seismic","orientDef","scaleDef","270",NA,NA
"","","","","","html-slider-response",94,279654,"0.0-90.0","98e74q83ac",15,NA,"<div style=""width:500px;"">
                            <p style=""font-size:50px; font-weight:bold;""
                            >fearful</p>
                            <div style=""width:240px; margin: auto;"">
                                <img src=""images/map10_Greys_scaleDef_orientDef_090.png"" style= ""width:200px""alt=""img"">
                            </div>
                        </div>",1,"",0,"",NA,"","images/map10_Greys_scaleDef_orientDef_090.png","fearful",1,10,10,"Greys","orientDef","scaleDef","090",NA,NA
"","","","","","html-slider-response",95,281868,"0.0-91.0","98e74q83ac",15,NA,"<div style=""width:500px;"">
                            <p style=""font-size:50px; font-weight:bold;""
                            >fearful</p>
                            <div style=""width:240px; margin: auto;"">
                                <img src=""images/map02_berlin_scaleDef_orientMir_090.png"" style= ""width:200px""alt=""img"">
                            </div>
                        </div>",0.73,"",0,"",NA,"","images/map02_berlin_scaleDef_orientMir_090.png","fearful",1,2,2,"berlin","orientMir","scaleDef","090",NA,NA
"","","","","","html-slider-response",96,283553,"0.0-92.0","98e74q83ac",15,NA,"<div style=""width:500px;"">
                            <p style=""font-size:50px; font-weight:bold;""
                            >fearful</p>
                            <div style=""width:240px; margin: auto;"">
                                <img src=""images/map23_BuGn_scaleDef_orientDef_090.png"" style= ""width:200px""alt=""img"">
                            </div>
                        </div>",0,"",0,"",NA,"","images/map23_BuGn_scaleDef_orientDef_090.png","fearful",1,23,23,"BuGn","orientDef","scaleDef","090",NA,NA
"","","","","","html-slider-response",97,285393,"0.0-93.0","98e74q83ac",15,NA,"<div style=""width:500px;"">
                            <p style=""font-size:50px; font-weight:bold;""
                            >fearful</p>
                            <div style=""width:240px; margin: auto;"">
                                <img src=""images/map13_OrRd_scaleRev_orientDef_180.png"" style= ""width:200px""alt=""img"">
                            </div>
                        </div>",0.605,"",0,"",NA,"","images/map13_OrRd_scaleRev_orientDef_180.png","fearful",1,13,13,"OrRd","orientDef","scaleRev","180",NA,NA
"","","","","","html-slider-response",98,287439,"0.0-94.0","98e74q83ac",15,NA,"<div style=""width:500px;"">
                            <p style=""font-size:50px; font-weight:bold;""
                            >fearful</p>
                            <div style=""width:240px; margin: auto;"">
                                <img src=""images/map02_bwr_scaleDef_orientDef_090.png"" style= ""width:200px""alt=""img"">
                            </div>
                        </div>",0.715,"",0,"",NA,"","images/map02_bwr_scaleDef_orientDef_090.png","fearful",1,2,2,"bwr","orientDef","scaleDef","090",NA,NA
"","","","","","html-button-response",99,309627,"0.0-95.0","98e74q83ac",15,21674,"<p>Great Job! You've finished block 1.<br></br> You have 4 block(s) left to go.<br></br></p>",0.5,"",NA,"",NA,"","","",NA,NA,NA,"","","","",NA,NA
"","","","","","html-button-response",100,310734,"0.0-96.0","98e74q83ac",15,1106,"<p>In this block of trials, you will be asked to rate how much you associate each map with:</p > <p style = 'font-size:150%; font-weight: bold'>sad</p><br></br>",0.5,"",NA,"",NA,"","","",NA,NA,NA,"","","","",NA,NA
"","","","","","html-slider-response",101,313040,"0.0-97.0","98e74q83ac",15,NA,"<div style=""width:500px;"">
                            <p style=""font-size:50px; font-weight:bold;""
                            >sad</p>
                            <div style=""width:240px; margin: auto;"">
                                <img src=""images/map07_plasma_scaleRev_orientDef_180.png"" style= ""width:200px""alt=""img"">
                            </div>
                        </div>",0.585,"",0,"",NA,"","images/map07_plasma_scaleRev_orientDef_180.png","sad",1,7,7,"plasma","orientDef","scaleRev","180",NA,NA
"","","","","","html-slider-response",102,315251,"0.0-98.0","98e74q83ac",15,NA,"<div style=""width:500px;"">
                            <p style=""font-size:50px; font-weight:bold;""
                            >sad</p>
                            <div style=""width:240px; margin: auto;"">
                                <img src=""images/map13_YlOrRd_scaleRev_orientDef_000.png"" style= ""width:200px""alt=""img"">
                            </div>
                        </div>",0.3525,"",0,"",NA,"","images/map13_YlOrRd_scaleRev_orientDef_000.png","sad",1,13,13,"YlOrRd","orientDef","scaleRev","000",NA,NA
"","","","","","html-slider-response",103,318668,"0.0-99.0","98e74q83ac",15,NA,"<div style=""width:500px;"">
                            <p style=""font-size:50px; font-weight:bold;""
                            >sad</p>
                            <div style=""width:240px; margin: auto;"">
                                <img src=""images/map07_magma_scaleRev_orientMir_180.png"" style= ""width:200px""alt=""img"">
                            </div>
                        </div>",0.595,"",0,"",NA,"","images/map07_magma_scaleRev_orientMir_180.png","sad",1,7,7,"magma","orientMir","scaleRev","180",NA,NA
"","","","","","html-slider-response",104,321409,"0.0-100.0","98e74q83ac",15,NA,"<div style=""width:500px;"">
                            <p style=""font-size:50px; font-weight:bold;""
                            >sad</p>
                            <div style=""width:240px; margin: auto;"">
                                <img src=""images/map23_PuBuGn_scaleRev_orientDef_000.png"" style= ""width:200px""alt=""img"">
                            </div>
                        </div>",0.84,"",0,"",NA,"","images/map23_PuBuGn_scaleRev_orientDef_000.png","sad",1,23,23,"PuBuGn","orientDef","scaleRev","000",NA,NA
"","","","","","html-slider-response",105,323455,"0.0-101.0","98e74q83ac",15,NA,"<div style=""width:500px;"">
                            <p style=""font-size:50px; font-weight:bold;""
                            >sad</p>
                            <div style=""width:240px; margin: auto;"">
                                <img src=""images/map23_PiYG_scaleDef_orientMir_090.png"" style= ""width:200px""alt=""img"">
                            </div>
                        </div>",0.26,"",0,"",NA,"","images/map23_PiYG_scaleDef_orientMir_090.png","sad",1,23,23,"PiYG","orientMir","scaleDef","090",NA,NA
"","","","","","html-slider-response",106,325503,"0.0-102.0","98e74q83ac",15,NA,"<div style=""width:500px;"">
                            <p style=""font-size:50px; font-weight:bold;""
                            >sad</p>
                            <div style=""width:240px; margin: auto;"">
                                <img src=""images/map10_Purples_scaleDef_orientDef_270.png"" style= ""width:200px""alt=""img"">
                            </div>
                        </div>",0.905,"",0,"",NA,"","images/map10_Purples_scaleDef_orientDef_270.png","sad",1,10,10,"Purples","orientDef","scaleDef","270",NA,NA
"","","","","","html-slider-response",107,327273,"0.0-103.0","98e74q83ac",15,NA,"<div style=""width:500px;"">
                            <p style=""font-size:50px; font-weight:bold;""
                            >sad</p>
                            <div style=""width:240px; margin: auto;"">
                                <img src=""images/map12_Reds_scaleRev_orientMir_000.png"" style= ""width:200px""alt=""img"">
                            </div>
                        </div>",0.165,"",0,"",NA,"","images/map12_Reds_scaleRev_orientMir_000.png","sad",1,12,12,"Reds","orientMir","scaleRev","000",NA,NA
"","","","","","html-slider-response",108,329338,"0.0-104.0","98e74q83ac",15,NA,"<div style=""width:500px;"">
                            <p style=""font-size:50px; font-weight:bold;""
                            >sad</p>
                            <div style=""width:240px; margin: auto;"">
                                <img src=""images/map23_BuGn_scaleDef_orientDef_090.png"" style= ""width:200px""alt=""img"">
                            </div>
                        </div>",0.6475,"",0,"",NA,"","images/map23_BuGn_scaleDef_orientDef_090.png","sad",1,23,23,"BuGn","orientDef","scaleDef","090",NA,NA
"","","","","","html-slider-response",109,331337,"0.0-105.0","98e74q83ac",15,NA,"<div style=""width:500px;"">
                            <p style=""font-size:50px; font-weight:bold;""
                            >sad</p>
                            <div style=""width:240px; margin: auto;"">
                                <img src=""images/map10_Blues_scaleDef_orientMir_090.png"" style= ""width:200px""alt=""img"">
                            </div>
                        </div>",0.89,"",0,"",NA,"","images/map10_Blues_scaleDef_orientMir_090.png","sad",1,10,10,"Blues","orientMir","scaleDef","090",NA,NA
"","","","","","html-slider-response",110,334005,"0.0-106.0","98e74q83ac",15,NA,"<div style=""width:500px;"">
                            <p style=""font-size:50px; font-weight:bold;""
                            >sad</p>
                            <div style=""width:240px; margin: auto;"">
                                <img src=""images/map27_RdYlGn_scaleDef_orientDef_270.png"" style= ""width:200px""alt=""img"">
                            </div>
                        </div>",0.1475,"",0,"",NA,"","images/map27_RdYlGn_scaleDef_orientDef_270.png","sad",1,27,27,"RdYlGn","orientDef","scaleDef","270",NA,NA
"","","","","","html-slider-response",111,337101,"0.0-107.0","98e74q83ac",15,NA,"<div style=""width:500px;"">
                            <p style=""font-size:50px; font-weight:bold;""
                            >sad</p>
                            <div style=""width:240px; margin: auto;"">
                                <img src=""images/map07_plasma_scaleDef_orientDef_090.png"" style= ""width:200px""alt=""img"">
                            </div>
                        </div>",0.1675,"",0,"",NA,"","images/map07_plasma_scaleDef_orientDef_090.png","sad",1,7,7,"plasma","orientDef","scaleDef","090",NA,NA
"","","","","","html-slider-response",112,340388,"0.0-108.0","98e74q83ac",15,NA,"<div style=""width:500px;"">
                            <p style=""font-size:50px; font-weight:bold;""
                            >sad</p>
                            <div style=""width:240px; margin: auto;"">
                                <img src=""images/map13_PuRd_scaleDef_orientDef_270.png"" style= ""width:200px""alt=""img"">
                            </div>
                        </div>",0.5325,"",0,"",NA,"","images/map13_PuRd_scaleDef_orientDef_270.png","sad",1,13,13,"PuRd","orientDef","scaleDef","270",NA,NA
"","","","","","html-slider-response",113,342972,"0.0-109.0","98e74q83ac",15,NA,"<div style=""width:500px;"">
                            <p style=""font-size:50px; font-weight:bold;""
                            >sad</p>
                            <div style=""width:240px; margin: auto;"">
                                <img src=""images/map23_YlGn_scaleRev_orientMir_000.png"" style= ""width:200px""alt=""img"">
                            </div>
                        </div>",0.605,"",0,"",NA,"","images/map23_YlGn_scaleRev_orientMir_000.png","sad",1,23,23,"YlGn","orientMir","scaleRev","000",NA,NA
"","","","","","html-slider-response",114,345330,"0.0-110.0","98e74q83ac",15,NA,"<div style=""width:500px;"">
                            <p style=""font-size:50px; font-weight:bold;""
                            >sad</p>
                            <div style=""width:240px; margin: auto;"">
                                <img src=""images/map12_Oranges_scaleRev_orientDef_180.png"" style= ""width:200px""alt=""img"">
                            </div>
                        </div>",0.2225,"",0,"",NA,"","images/map12_Oranges_scaleRev_orientDef_180.png","sad",1,12,12,"Oranges","orientDef","scaleRev","180",NA,NA
"","","","","","html-slider-response",115,346999,"0.0-111.0","98e74q83ac",15,NA,"<div style=""width:500px;"">
                            <p style=""font-size:50px; font-weight:bold;""
                            >sad</p>
                            <div style=""width:240px; margin: auto;"">
                                <img src=""images/map27_Spectral_scaleRev_orientMir_180.png"" style= ""width:200px""alt=""img"">
                            </div>
                        </div>",0.145,"",0,"",NA,"","images/map27_Spectral_scaleRev_orientMir_180.png","sad",1,27,27,"Spectral","orientMir","scaleRev","180",NA,NA
"","","","","","html-slider-response",116,349147,"0.0-112.0","98e74q83ac",15,NA,"<div style=""width:500px;"">
                            <p style=""font-size:50px; font-weight:bold;""
                            >sad</p>
                            <div style=""width:240px; margin: auto;"">
                                <img src=""images/map23_PRGn_scaleDef_orientMir_270.png"" style= ""width:200px""alt=""img"">
                            </div>
                        </div>",0.68,"",0,"",NA,"","images/map23_PRGn_scaleDef_orientMir_270.png","sad",1,23,23,"PRGn","orientMir","scaleDef","270",NA,NA
"","","","","","html-slider-response",117,351151,"0.0-113.0","98e74q83ac",15,NA,"<div style=""width:500px;"">
                            <p style=""font-size:50px; font-weight:bold;""
                            >sad</p>
                            <div style=""width:240px; margin: auto;"">
                                <img src=""images/map13_RdPu_scaleRev_orientMir_180.png"" style= ""width:200px""alt=""img"">
                            </div>
                        </div>",0.7075,"",0,"",NA,"","images/map13_RdPu_scaleRev_orientMir_180.png","sad",1,13,13,"RdPu","orientMir","scaleRev","180",NA,NA
"","","","","","html-slider-response",118,352825,"0.0-114.0","98e74q83ac",15,NA,"<div style=""width:500px;"">
                            <p style=""font-size:50px; font-weight:bold;""
                            >sad</p>
                            <div style=""width:240px; margin: auto;"">
                                <img src=""images/map05_managua_scaleRev_orientDef_000.png"" style= ""width:200px""alt=""img"">
                            </div>
                        </div>",0.815,"",0,"",NA,"","images/map05_managua_scaleRev_orientDef_000.png","sad",1,5,5,"managua","orientDef","scaleRev","000",NA,NA
"","","","","","html-slider-response",119,354521,"0.0-115.0","98e74q83ac",15,NA,"<div style=""width:500px;"">
                            <p style=""font-size:50px; font-weight:bold;""
                            >sad</p>
                            <div style=""width:240px; margin: auto;"">
                                <img src=""images/map05_vanimo_scaleDef_orientDef_090.png"" style= ""width:200px""alt=""img"">
                            </div>
                        </div>",0.085,"",0,"",NA,"","images/map05_vanimo_scaleDef_orientDef_090.png","sad",1,5,5,"vanimo","orientDef","scaleDef","090",NA,NA
"","","","","","html-slider-response",120,356698,"0.0-116.0","98e74q83ac",15,NA,"<div style=""width:500px;"">
                            <p style=""font-size:50px; font-weight:bold;""
                            >sad</p>
                            <div style=""width:240px; margin: auto;"">
                                <img src=""images/map27_RdYlBu_scaleDef_orientDef_090.png"" style= ""width:200px""alt=""img"">
                            </div>
                        </div>",0.575,"",0,"",NA,"","images/map27_RdYlBu_scaleDef_orientDef_090.png","sad",1,27,27,"RdYlBu","orientDef","scaleDef","090",NA,NA
"","","","","","html-slider-response",121,358970,"0.0-117.0","98e74q83ac",15,NA,"<div style=""width:500px;"">
                            <p style=""font-size:50px; font-weight:bold;""
                            >sad</p>
                            <div style=""width:240px; margin: auto;"">
                                <img src=""images/map12_Greens_scaleRev_orientDef_000.png"" style= ""width:200px""alt=""img"">
                            </div>
                        </div>",0.81,"",0,"",NA,"","images/map12_Greens_scaleRev_orientDef_000.png","sad",1,12,12,"Greens","orientDef","scaleRev","000",NA,NA
"","","","","","html-slider-response",122,360853,"0.0-118.0","98e74q83ac",15,NA,"<div style=""width:500px;"">
                            <p style=""font-size:50px; font-weight:bold;""
                            >sad</p>
                            <div style=""width:240px; margin: auto;"">
                                <img src=""images/map12_Reds_scaleDef_orientDef_270.png"" style= ""width:200px""alt=""img"">
                            </div>
                        </div>",0.3025,"",0,"",NA,"","images/map12_Reds_scaleDef_orientDef_270.png","sad",1,12,12,"Reds","orientDef","scaleDef","270",NA,NA
"","","","","","html-slider-response",123,362520,"0.0-119.0","98e74q83ac",15,NA,"<div style=""width:500px;"">
                            <p style=""font-size:50px; font-weight:bold;""
                            >sad</p>
                            <div style=""width:240px; margin: auto;"">
                                <img src=""images/map15_PuBu_scaleDef_orientDef_270.png"" style= ""width:200px""alt=""img"">
                            </div>
                        </div>",0.785,"",0,"",NA,"","images/map15_PuBu_scaleDef_orientDef_270.png","sad",1,15,15,"PuBu","orientDef","scaleDef","270",NA,NA
"","","","","","html-slider-response",124,364862,"0.0-120.0","98e74q83ac",15,NA,"<div style=""width:500px;"">
                            <p style=""font-size:50px; font-weight:bold;""
                            >sad</p>
                            <div style=""width:240px; margin: auto;"">
                                <img src=""images/map13_RdPu_scaleDef_orientMir_090.png"" style= ""width:200px""alt=""img"">
                            </div>
                        </div>",0.615,"",0,"",NA,"","images/map13_RdPu_scaleDef_orientMir_090.png","sad",1,13,13,"RdPu","orientMir","scaleDef","090",NA,NA
"","","","","","html-slider-response",125,366748,"0.0-121.0","98e74q83ac",15,NA,"<div style=""width:500px;"">
                            <p style=""font-size:50px; font-weight:bold;""
                            >sad</p>
                            <div style=""width:240px; margin: auto;"">
                                <img src=""images/map02_bwr_scaleRev_orientDef_180.png"" style= ""width:200px""alt=""img"">
                            </div>
                        </div>",0.19,"",0,"",NA,"","images/map02_bwr_scaleRev_orientDef_180.png","sad",1,2,2,"bwr","orientDef","scaleRev","180",NA,NA
"","","","","","html-slider-response",126,369369,"0.0-122.0","98e74q83ac",15,NA,"<div style=""width:500px;"">
                            <p style=""font-size:50px; font-weight:bold;""
                            >sad</p>
                            <div style=""width:240px; margin: auto;"">
                                <img src=""images/map15_YlGnBu_scaleRev_orientMir_180.png"" style= ""width:200px""alt=""img"">
                            </div>
                        </div>",0.97,"",0,"",NA,"","images/map15_YlGnBu_scaleRev_orientMir_180.png","sad",1,15,15,"YlGnBu","orientMir","scaleRev","180",NA,NA
"","","","","","html-slider-response",127,377944,"0.0-123.0","98e74q83ac",15,NA,"<div style=""width:500px;"">
                            <p style=""font-size:50px; font-weight:bold;""
                            >sad</p>
                            <div style=""width:240px; margin: auto;"">
                                <img src=""images/map07_inferno_scaleRev_orientMir_000.png"" style= ""width:200px""alt=""img"">
                            </div>
                        </div>",0.285,"",0,"",NA,"","images/map07_inferno_scaleRev_orientMir_000.png","sad",1,7,7,"inferno","orientMir","scaleRev","000",NA,NA
"","","","","","html-slider-response",128,379854,"0.0-124.0","98e74q83ac",15,NA,"<div style=""width:500px;"">
                            <p style=""font-size:50px; font-weight:bold;""
                            >sad</p>
                            <div style=""width:240px; margin: auto;"">
                                <img src=""images/map10_Greys_scaleRev_orientDef_180.png"" style= ""width:200px""alt=""img"">
                            </div>
                        </div>",1,"",0,"",NA,"","images/map10_Greys_scaleRev_orientDef_180.png","sad",1,10,10,"Greys","orientDef","scaleRev","180",NA,NA
"","","","","","html-slider-response",129,386297,"0.0-125.0","98e74q83ac",15,NA,"<div style=""width:500px;"">
                            <p style=""font-size:50px; font-weight:bold;""
                            >sad</p>
                            <div style=""width:240px; margin: auto;"">
                                <img src=""images/map15_GnBu_scaleDef_orientDef_090.png"" style= ""width:200px""alt=""img"">
                            </div>
                        </div>",1,"",0,"",NA,"","images/map15_GnBu_scaleDef_orientDef_090.png","sad",1,15,15,"GnBu","orientDef","scaleDef","090",NA,NA
"","","","","","html-slider-response",130,388334,"0.0-126.0","98e74q83ac",15,NA,"<div style=""width:500px;"">
                            <p style=""font-size:50px; font-weight:bold;""
                            >sad</p>
                            <div style=""width:240px; margin: auto;"">
                                <img src=""images/map02_seismic_scaleDef_orientDef_270.png"" style= ""width:200px""alt=""img"">
                            </div>
                        </div>",0.1975,"",0,"",NA,"","images/map02_seismic_scaleDef_orientDef_270.png","sad",1,2,2,"seismic","orientDef","scaleDef","270",NA,NA
"","","","","","html-slider-response",131,390255,"0.0-127.0","98e74q83ac",15,NA,"<div style=""width:500px;"">
                            <p style=""font-size:50px; font-weight:bold;""
                            >sad</p>
                            <div style=""width:240px; margin: auto;"">
                                <img src=""images/map26_RdBu_scaleDef_orientMir_270.png"" style= ""width:200px""alt=""img"">
                            </div>
                        </div>",0.775,"",0,"",NA,"","images/map26_RdBu_scaleDef_orientMir_270.png","sad",1,26,26,"RdBu","orientMir","scaleDef","270",NA,NA
"","","","","","html-slider-response",132,391988,"0.0-128.0","98e74q83ac",15,NA,"<div style=""width:500px;"">
                            <p style=""font-size:50px; font-weight:bold;""
                            >sad</p>
                            <div style=""width:240px; margin: auto;"">
                                <img src=""images/map07_cividis_scaleDef_orientMir_270.png"" style= ""width:200px""alt=""img"">
                            </div>
                        </div>",1,"",0,"",NA,"","images/map07_cividis_scaleDef_orientMir_270.png","sad",1,7,7,"cividis","orientMir","scaleDef","270",NA,NA
"","","","","","html-slider-response",133,394457,"0.0-129.0","98e74q83ac",15,NA,"<div style=""width:500px;"">
                            <p style=""font-size:50px; font-weight:bold;""
                            >sad</p>
                            <div style=""width:240px; margin: auto;"">
                                <img src=""images/map26_RdGy_scaleDef_orientMir_090.png"" style= ""width:200px""alt=""img"">
                            </div>
                        </div>",0.345,"",0,"",NA,"","images/map26_RdGy_scaleDef_orientMir_090.png","sad",1,26,26,"RdGy","orientMir","scaleDef","090",NA,NA
"","","","","","html-slider-response",134,397050,"0.0-130.0","98e74q83ac",15,NA,"<div style=""width:500px;"">
                            <p style=""font-size:50px; font-weight:bold;""
                            >sad</p>
                            <div style=""width:240px; margin: auto;"">
                                <img src=""images/map10_Purples_scaleRev_orientMir_000.png"" style= ""width:200px""alt=""img"">
                            </div>
                        </div>",0.945,"",0,"",NA,"","images/map10_Purples_scaleRev_orientMir_000.png","sad",1,10,10,"Purples","orientMir","scaleRev","000",NA,NA
"","","","","","html-slider-response",135,398784,"0.0-131.0","98e74q83ac",15,NA,"<div style=""width:500px;"">
                            <p style=""font-size:50px; font-weight:bold;""
                            >sad</p>
                            <div style=""width:240px; margin: auto;"">
                                <img src=""images/map12_YlOrBr_scaleRev_orientMir_180.png"" style= ""width:200px""alt=""img"">
                            </div>
                        </div>",0.1725,"",0,"",NA,"","images/map12_YlOrBr_scaleRev_orientMir_180.png","sad",1,12,12,"YlOrBr","orientMir","scaleRev","180",NA,NA
"","","","","","html-slider-response",136,402884,"0.0-132.0","98e74q83ac",15,NA,"<div style=""width:500px;"">
                            <p style=""font-size:50px; font-weight:bold;""
                            >sad</p>
                            <div style=""width:240px; margin: auto;"">
                                <img src=""images/map27_Spectral_scaleDef_orientMir_090.png"" style= ""width:200px""alt=""img"">
                            </div>
                        </div>",0.67,"",0,"",NA,"","images/map27_Spectral_scaleDef_orientMir_090.png","sad",1,27,27,"Spectral","orientMir","scaleDef","090",NA,NA
"","","","","","html-slider-response",137,404625,"0.0-133.0","98e74q83ac",15,NA,"<div style=""width:500px;"">
                            <p style=""font-size:50px; font-weight:bold;""
                            >sad</p>
                            <div style=""width:240px; margin: auto;"">
                                <img src=""images/map05_gist_earth_scaleDef_orientDef_270.png"" style= ""width:200px""alt=""img"">
                            </div>
                        </div>",0.87,"",0,"",NA,"","images/map05_gist_earth_scaleDef_orientDef_270.png","sad",1,5,5,"gist","scaleDef","earth","orientDef",NA,NA
"","","","","","html-slider-response",138,406939,"0.0-134.0","98e74q83ac",15,NA,"<div style=""width:500px;"">
                            <p style=""font-size:50px; font-weight:bold;""
                            >sad</p>
                            <div style=""width:240px; margin: auto;"">
                                <img src=""images/map23_BuGn_scaleRev_orientDef_180.png"" style= ""width:200px""alt=""img"">
                            </div>
                        </div>",0.9325,"",0,"",NA,"","images/map23_BuGn_scaleRev_orientDef_180.png","sad",1,23,23,"BuGn","orientDef","scaleRev","180",NA,NA
"","","","","","html-slider-response",139,408622,"0.0-135.0","98e74q83ac",15,NA,"<div style=""width:500px;"">
                            <p style=""font-size:50px; font-weight:bold;""
                            >sad</p>
                            <div style=""width:240px; margin: auto;"">
                                <img src=""images/map15_PuBuGn_scaleDef_orientMir_270.png"" style= ""width:200px""alt=""img"">
                            </div>
                        </div>",1,"",0,"",NA,"","images/map15_PuBuGn_scaleDef_orientMir_270.png","sad",1,15,15,"PuBuGn","orientMir","scaleDef","270",NA,NA
"","","","","","html-slider-response",140,410354,"0.0-136.0","98e74q83ac",15,NA,"<div style=""width:500px;"">
                            <p style=""font-size:50px; font-weight:bold;""
                            >sad</p>
                            <div style=""width:240px; margin: auto;"">
                                <img src=""images/map05_turbo_scaleDef_orientMir_090.png"" style= ""width:200px""alt=""img"">
                            </div>
                        </div>",0.08,"",0,"",NA,"","images/map05_turbo_scaleDef_orientMir_090.png","sad",1,5,5,"turbo","orientMir","scaleDef","090",NA,NA
"","","","","","html-button-response",141,431137,"0.0-137.0","98e74q83ac",15,20279,"<p>You are doing great!<br></br> You are halway done with the current block. When you are ready to continue, click the 'Continue' button.</p>",0.5,"",NA,"",NA,"","","",NA,NA,NA,"","","","",NA,NA
"","","","","","html-slider-response",142,433070,"0.0-138.0","98e74q83ac",15,NA,"<div style=""width:500px;"">
                            <p style=""font-size:50px; font-weight:bold;""
                            >sad</p>
                            <div style=""width:240px; margin: auto;"">
                                <img src=""images/map26_PuOr_scaleRev_orientMir_000.png"" style= ""width:200px""alt=""img"">
                            </div>
                        </div>",0.5525,"",0,"",NA,"","images/map26_PuOr_scaleRev_orientMir_000.png","sad",1,26,26,"PuOr","orientMir","scaleRev","000",NA,NA
"","","","","","html-slider-response",143,434769,"0.0-139.0","98e74q83ac",15,NA,"<div style=""width:500px;"">
                            <p style=""font-size:50px; font-weight:bold;""
                            >sad</p>
                            <div style=""width:240px; margin: auto;"">
                                <img src=""images/map26_PRGn_scaleRev_orientDef_000.png"" style= ""width:200px""alt=""img"">
                            </div>
                        </div>",0.145,"",0,"",NA,"","images/map26_PRGn_scaleRev_orientDef_000.png","sad",1,26,26,"PRGn","orientDef","scaleRev","000",NA,NA
"","","","","","html-slider-response",144,436637,"0.0-140.0","98e74q83ac",15,NA,"<div style=""width:500px;"">
                            <p style=""font-size:50px; font-weight:bold;""
                            >sad</p>
                            <div style=""width:240px; margin: auto;"">
                                <img src=""images/map02_berlin_scaleRev_orientMir_180.png"" style= ""width:200px""alt=""img"">
                            </div>
                        </div>",0.645,"",0,"",NA,"","images/map02_berlin_scaleRev_orientMir_180.png","sad",1,2,2,"berlin","orientMir","scaleRev","180",NA,NA
"","","","","","html-slider-response",145,439436,"0.0-141.0","98e74q83ac",15,NA,"<div style=""width:500px;"">
                            <p style=""font-size:50px; font-weight:bold;""
                            >sad</p>
                            <div style=""width:240px; margin: auto;"">
                                <img src=""images/map13_OrRd_scaleRev_orientDef_180.png"" style= ""width:200px""alt=""img"">
                            </div>
                        </div>",0.325,"",0,"",NA,"","images/map13_OrRd_scaleRev_orientDef_180.png","sad",1,13,13,"OrRd","orientDef","scaleRev","180",NA,NA
"","","","","","html-slider-response",146,441421,"0.0-142.0","98e74q83ac",15,NA,"<div style=""width:500px;"">
                            <p style=""font-size:50px; font-weight:bold;""
                            >sad</p>
                            <div style=""width:240px; margin: auto;"">
                                <img src=""images/map05_gist_earth_scaleRev_orientMir_000.png"" style= ""width:200px""alt=""img"">
                            </div>
                        </div>",0.755,"",0,"",NA,"","images/map05_gist_earth_scaleRev_orientMir_000.png","sad",1,5,5,"gist","scaleRev","earth","orientMir",NA,NA
"","","","","","html-slider-response",147,442871,"0.0-143.0","98e74q83ac",15,NA,"<div style=""width:500px;"">
                            <p style=""font-size:50px; font-weight:bold;""
                            >sad</p>
                            <div style=""width:240px; margin: auto;"">
                                <img src=""images/map05_turbo_scaleRev_orientMir_180.png"" style= ""width:200px""alt=""img"">
                            </div>
                        </div>",0.0725,"",0,"",NA,"","images/map05_turbo_scaleRev_orientMir_180.png","sad",1,5,5,"turbo","orientMir","scaleRev","180",NA,NA
"","","","","","html-slider-response",148,444922,"0.0-144.0","98e74q83ac",15,NA,"<div style=""width:500px;"">
                            <p style=""font-size:50px; font-weight:bold;""
                            >sad</p>
                            <div style=""width:240px; margin: auto;"">
                                <img src=""images/map10_Blues_scaleRev_orientMir_180.png"" style= ""width:200px""alt=""img"">
                            </div>
                        </div>",0.9875,"",0,"",NA,"","images/map10_Blues_scaleRev_orientMir_180.png","sad",1,10,10,"Blues","orientMir","scaleRev","180",NA,NA
"","","","","","html-slider-response",149,446453,"0.0-145.0","98e74q83ac",15,NA,"<div style=""width:500px;"">
                            <p style=""font-size:50px; font-weight:bold;""
                            >sad</p>
                            <div style=""width:240px; margin: auto;"">
                                <img src=""images/map26_BrBG_scaleDef_orientDef_090.png"" style= ""width:200px""alt=""img"">
                            </div>
                        </div>",1,"",0,"",NA,"","images/map26_BrBG_scaleDef_orientDef_090.png","sad",1,26,26,"BrBG","orientDef","scaleDef","090",NA,NA
"","","","","","html-slider-response",150,448422,"0.0-146.0","98e74q83ac",15,NA,"<div style=""width:500px;"">
                            <p style=""font-size:50px; font-weight:bold;""
                            >sad</p>
                            <div style=""width:240px; margin: auto;"">
                                <img src=""images/map07_viridis_scaleRev_orientDef_000.png"" style= ""width:200px""alt=""img"">
                            </div>
                        </div>",0.77,"",0,"",NA,"","images/map07_viridis_scaleRev_orientDef_000.png","sad",1,7,7,"viridis","orientDef","scaleRev","000",NA,NA
"","","","","","html-slider-response",151,449988,"0.0-147.0","98e74q83ac",15,NA,"<div style=""width:500px;"">
                            <p style=""font-size:50px; font-weight:bold;""
                            >sad</p>
                            <div style=""width:240px; margin: auto;"">
                                <img src=""images/map02_coolwarm_scaleRev_orientDef_000.png"" style= ""width:200px""alt=""img"">
                            </div>
                        </div>",0.7325,"",0,"",NA,"","images/map02_coolwarm_scaleRev_orientDef_000.png","sad",1,2,2,"coolwarm","orientDef","scaleRev","000",NA,NA
"","","","","","html-slider-response",152,452069,"0.0-148.0","98e74q83ac",15,NA,"<div style=""width:500px;"">
                            <p style=""font-size:50px; font-weight:bold;""
                            >sad</p>
                            <div style=""width:240px; margin: auto;"">
                                <img src=""images/map13_PuRd_scaleRev_orientMir_000.png"" style= ""width:200px""alt=""img"">
                            </div>
                        </div>",0.285,"",0,"",NA,"","images/map13_PuRd_scaleRev_orientMir_000.png","sad",1,13,13,"PuRd","orientMir","scaleRev","000",NA,NA
"","","","","","html-slider-response",153,453983,"0.0-149.0","98e74q83ac",15,NA,"<div style=""width:500px;"">
                            <p style=""font-size:50px; font-weight:bold;""
                            >sad</p>
                            <div style=""width:240px; margin: auto;"">
                                <img src=""images/map02_managua_scaleDef_orientMir_270.png"" style= ""width:200px""alt=""img"">
                            </div>
                        </div>",0.7875,"",0,"",NA,"","images/map02_managua_scaleDef_orientMir_270.png","sad",1,2,2,"managua","orientMir","scaleDef","270",NA,NA
"","","","","","html-slider-response",154,455637,"0.0-150.0","98e74q83ac",15,NA,"<div style=""width:500px;"">
                            <p style=""font-size:50px; font-weight:bold;""
                            >sad</p>
                            <div style=""width:240px; margin: auto;"">
                                <img src=""images/map15_PuBu_scaleRev_orientMir_000.png"" style= ""width:200px""alt=""img"">
                            </div>
                        </div>",0.98,"",0,"",NA,"","images/map15_PuBu_scaleRev_orientMir_000.png","sad",1,15,15,"PuBu","orientMir","scaleRev","000",NA,NA
"","","","","","html-slider-response",155,458939,"0.0-151.0","98e74q83ac",15,NA,"<div style=""width:500px;"">
                            <p style=""font-size:50px; font-weight:bold;""
                            >sad</p>
                            <div style=""width:240px; margin: auto;"">
                                <img src=""images/map10_cividis_scaleRev_orientDef_000.png"" style= ""width:200px""alt=""img"">
                            </div>
                        </div>",0.9875,"",0,"",NA,"","images/map10_cividis_scaleRev_orientDef_000.png","sad",1,10,10,"cividis","orientDef","scaleRev","000",NA,NA
"","","","","","html-slider-response",156,460683,"0.0-152.0","98e74q83ac",15,NA,"<div style=""width:500px;"">
                            <p style=""font-size:50px; font-weight:bold;""
                            >sad</p>
                            <div style=""width:240px; margin: auto;"">
                                <img src=""images/map26_PuOr_scaleDef_orientDef_270.png"" style= ""width:200px""alt=""img"">
                            </div>
                        </div>",0.065,"",0,"",NA,"","images/map26_PuOr_scaleDef_orientDef_270.png","sad",1,26,26,"PuOr","orientDef","scaleDef","270",NA,NA
"","","","","","html-slider-response",157,462954,"0.0-153.0","98e74q83ac",15,NA,"<div style=""width:500px;"">
                            <p style=""font-size:50px; font-weight:bold;""
                            >sad</p>
                            <div style=""width:240px; margin: auto;"">
                                <img src=""images/map27_RdBu_scaleRev_orientDef_000.png"" style= ""width:200px""alt=""img"">
                            </div>
                        </div>",0.155,"",0,"",NA,"","images/map27_RdBu_scaleRev_orientDef_000.png","sad",1,27,27,"RdBu","orientDef","scaleRev","000",NA,NA
"","","","","","html-slider-response",158,465971,"0.0-154.0","98e74q83ac",15,NA,"<div style=""width:500px;"">
                            <p style=""font-size:50px; font-weight:bold;""
                            >sad</p>
                            <div style=""width:240px; margin: auto;"">
                                <img src=""images/map15_YlGnBu_scaleDef_orientMir_090.png"" style= ""width:200px""alt=""img"">
                            </div>
                        </div>",0.5825,"",0,"",NA,"","images/map15_YlGnBu_scaleDef_orientMir_090.png","sad",1,15,15,"YlGnBu","orientMir","scaleDef","090",NA,NA
"","","","","","html-slider-response",159,468143,"0.0-155.0","98e74q83ac",15,NA,"<div style=""width:500px;"">
                            <p style=""font-size:50px; font-weight:bold;""
                            >sad</p>
                            <div style=""width:240px; margin: auto;"">
                                <img src=""images/map27_RdYlBu_scaleRev_orientDef_180.png"" style= ""width:200px""alt=""img"">
                            </div>
                        </div>",0.7625,"",0,"",NA,"","images/map27_RdYlBu_scaleRev_orientDef_180.png","sad",1,27,27,"RdYlBu","orientDef","scaleRev","180",NA,NA
"","","","","","html-slider-response",160,469937,"0.0-156.0","98e74q83ac",15,NA,"<div style=""width:500px;"">
                            <p style=""font-size:50px; font-weight:bold;""
                            >sad</p>
                            <div style=""width:240px; margin: auto;"">
                                <img src=""images/map12_Oranges_scaleDef_orientDef_090.png"" style= ""width:200px""alt=""img"">
                            </div>
                        </div>",0.2375,"",0,"",NA,"","images/map12_Oranges_scaleDef_orientDef_090.png","sad",1,12,12,"Oranges","orientDef","scaleDef","090",NA,NA
"","","","","","html-slider-response",161,471195,"0.0-157.0","98e74q83ac",15,NA,"<div style=""width:500px;"">
                            <p style=""font-size:50px; font-weight:bold;""
                            >sad</p>
                            <div style=""width:240px; margin: auto;"">
                                <img src=""images/map12_YlOrBr_scaleDef_orientMir_090.png"" style= ""width:200px""alt=""img"">
                            </div>
                        </div>",0.105,"",0,"",NA,"","images/map12_YlOrBr_scaleDef_orientMir_090.png","sad",1,12,12,"YlOrBr","orientMir","scaleDef","090",NA,NA
"","","","","","html-slider-response",162,473080,"0.0-158.0","98e74q83ac",15,NA,"<div style=""width:500px;"">
                            <p style=""font-size:50px; font-weight:bold;""
                            >sad</p>
                            <div style=""width:240px; margin: auto;"">
                                <img src=""images/map05_vanimo_scaleRev_orientDef_180.png"" style= ""width:200px""alt=""img"">
                            </div>
